// Start Time: Unknown
// Update Rate: 60.0Hz
// Filter Profile: human (46.1)
// Option Flags: AHS Disabled ICC Disabled 
// Firmware Version: 4.3.5
PacketCounter	Acc_X	Acc_Y	Acc_Z	Quat_q0	Quat_q1	Quat_q2	Quat_q3
34999	-1.082909	1.672770	9.611603	-0.674970	-0.089980	0.013178	0.732220
35000	-1.070501	1.594307	9.456139	-0.675041	-0.090467	0.013185	0.732094
35001	-1.168489	1.520417	9.676763	-0.675192	-0.091053	0.013304	0.731880
35002	-1.061989	1.861699	9.619470	-0.675434	-0.091584	0.013265	0.731591
35003	-1.127427	1.682466	9.708338	-0.675831	-0.091865	0.012854	0.731197
35004	-1.065033	1.647743	9.613960	-0.676314	-0.091998	0.012290	0.730743
35005	-1.166018	1.529878	9.588375	-0.676734	-0.092216	0.011949	0.730332
35006	-1.183226	1.488872	9.796538	-0.677131	-0.092433	0.011588	0.729942
35007	-1.152875	1.676242	9.789457	-0.677502	-0.092569	0.011399	0.729583
35008	-1.078981	1.078308	9.795629	-0.677773	-0.092533	0.011299	0.729338
35009	-1.065626	0.930553	9.892918	-0.677832	-0.092739	0.011464	0.729254
35010	-1.184150	0.557494	9.668367	-0.677715	-0.093141	0.012107	0.729301
35011	-1.171113	0.985445	9.860521	-0.677365	-0.094207	0.013359	0.729467
35012	-1.273747	1.610241	9.682258	-0.676888	-0.095064	0.014509	0.729778
35013	-1.125372	1.455685	9.744895	-0.676342	-0.095503	0.015160	0.730213
35014	-1.015793	1.477105	9.542974	-0.675727	-0.096032	0.015847	0.730698
35015	-1.042640	1.250601	9.468717	-0.675067	-0.096513	0.016408	0.731232
35016	-1.170841	1.458759	9.419677	-0.674356	-0.096910	0.016764	0.731828
35017	-1.075055	1.608980	9.441633	-0.673758	-0.096599	0.016365	0.732428
35018	-1.059187	1.411637	9.637314	-0.673208	-0.096452	0.015791	0.732966
35019	-0.980885	1.433262	9.385291	-0.672630	-0.096793	0.015750	0.733452
35020	-0.957745	1.858580	9.394561	-0.672004	-0.097755	0.016358	0.733885
35021	-0.956677	2.193291	9.437076	-0.671498	-0.098645	0.016885	0.734217
35022	-1.089099	2.466007	9.785517	-0.671172	-0.099425	0.016987	0.734407
35023	-0.942418	2.315953	9.611346	-0.671133	-0.099753	0.016694	0.734405
35024	-1.092533	2.015874	9.710499	-0.671368	-0.100316	0.016467	0.734119
35025	-1.223380	2.132390	9.663264	-0.671885	-0.100869	0.016433	0.733571
35026	-1.273114	2.194304	9.649230	-0.672834	-0.101072	0.015909	0.732684
35027	-1.410513	2.323140	9.832390	-0.674329	-0.100815	0.015097	0.731361
35028	-1.316162	2.253624	9.712611	-0.676203	-0.100308	0.014190	0.729717
35029	-1.296833	1.876571	9.660164	-0.678075	-0.099714	0.013488	0.728072
35030	-1.376691	1.693863	9.753980	-0.679799	-0.099575	0.013529	0.726482
35031	-1.446106	1.801496	9.875238	-0.681609	-0.099555	0.013831	0.724780
35032	-1.389366	1.984493	9.794983	-0.683763	-0.099224	0.014036	0.722790
35033	-1.434047	1.566785	9.733056	-0.686199	-0.098448	0.014125	0.720583
35034	-1.294987	1.431193	9.542610	-0.688572	-0.097680	0.014327	0.718416
35035	-1.384760	1.124192	9.745603	-0.690670	-0.096932	0.014095	0.716506
35036	-1.478342	0.636766	9.850999	-0.692113	-0.095872	0.013839	0.715260
35037	-1.407627	-0.569028	9.305473	-0.692528	-0.095992	0.015028	0.714818
35038	-1.275848	0.325564	9.365461	-0.692169	-0.097977	0.018125	0.714824
35039	-1.138963	1.402380	9.883702	-0.691528	-0.099663	0.021318	0.715124
35040	-1.117948	1.744147	10.058747	-0.690983	-0.100780	0.023499	0.715426
35041	-1.248282	1.723778	9.719098	-0.690561	-0.100675	0.024312	0.715820
35042	-1.196103	1.014120	9.843498	-0.690000	-0.099812	0.024134	0.716488
35043	-1.177164	0.902974	9.996421	-0.689181	-0.099391	0.024386	0.717326
35044	-1.225348	1.223229	10.064313	-0.688319	-0.099006	0.025134	0.718181
35045	-0.995186	1.740299	10.093990	-0.687382	-0.097201	0.025610	0.719306
35046	-0.810429	1.719116	10.283300	-0.686478	-0.094540	0.025452	0.720529
35047	-1.037386	1.454742	10.387786	-0.685480	-0.091393	0.025557	0.721880
35048	-0.999308	1.548975	10.350954	-0.684338	-0.088335	0.026351	0.723315
35049	-1.036670	1.712562	10.316094	-0.683090	-0.084946	0.027570	0.724853
35050	-0.842218	1.564916	10.293763	-0.681841	-0.081743	0.029706	0.726312
35051	-0.852796	2.206386	10.051904	-0.680625	-0.078271	0.032072	0.727733
35052	-0.649299	2.212793	9.773102	-0.679642	-0.073855	0.033611	0.729042
35053	-0.440033	2.217291	9.390996	-0.678831	-0.068923	0.034201	0.730252
35054	-0.484016	1.446333	9.273054	-0.678366	-0.063637	0.033308	0.731205
35055	-0.487662	0.630107	9.224445	-0.678034	-0.059361	0.032433	0.731911
35056	-0.578540	0.401674	8.860586	-0.677666	-0.056812	0.032409	0.732455
35057	-0.476929	0.679471	8.883111	-0.677232	-0.055303	0.033011	0.732945
35058	-0.201585	1.277524	8.984853	-0.676661	-0.054648	0.033891	0.733482
35059	0.067250	1.932300	8.875784	-0.676036	-0.053910	0.034087	0.734103
35060	0.102332	1.544224	8.713485	-0.675621	-0.052962	0.032798	0.734612
35061	-0.150996	0.768576	8.928593	-0.675231	-0.052575	0.031556	0.735053
35062	-0.324182	0.737182	8.988040	-0.674676	-0.053498	0.031288	0.735508
35063	-0.384326	0.890477	9.177680	-0.674126	-0.054415	0.031294	0.735944
35064	-0.375009	1.107386	9.566181	-0.673486	-0.055918	0.031563	0.736405
35065	-0.369545	1.562543	9.741789	-0.672845	-0.057205	0.031435	0.736899
35066	-0.308709	1.645352	9.699397	-0.672298	-0.057810	0.030416	0.737393
35067	-0.350890	1.017965	9.721257	-0.671868	-0.058203	0.029205	0.737803
35068	-0.417886	0.757128	9.686992	-0.671445	-0.059359	0.028913	0.738107
35069	-0.583408	1.161101	9.795922	-0.670967	-0.061115	0.029411	0.738378
35070	-0.578870	1.548494	9.823894	-0.670512	-0.062626	0.029746	0.738652
35071	-0.497317	1.520485	9.853331	-0.670224	-0.063739	0.029687	0.738820
35072	-0.566852	1.666788	9.945938	-0.670056	-0.064607	0.029286	0.738913
35073	-0.517868	1.689347	9.990709	-0.669996	-0.064947	0.028421	0.738972
35074	-0.559679	1.360665	9.751219	-0.670046	-0.065046	0.027413	0.738956
35075	-0.584263	0.969810	9.781318	-0.670092	-0.065404	0.026945	0.738900
35076	-0.673885	1.287521	9.800694	-0.670099	-0.066251	0.027069	0.738813
35077	-0.585883	1.570377	9.836516	-0.670160	-0.066790	0.027037	0.738711
35078	-0.496719	1.570679	9.879467	-0.670281	-0.067169	0.026853	0.738574
35079	-0.629351	1.492255	9.714094	-0.670368	-0.067443	0.026653	0.738476
35080	-0.710844	1.216748	9.850893	-0.670412	-0.067577	0.026409	0.738433
35081	-0.648948	1.156782	9.815177	-0.670322	-0.067987	0.026604	0.738470
35082	-0.588452	1.389257	9.824032	-0.670176	-0.068498	0.027019	0.738541
35083	-0.544879	1.544454	9.732285	-0.670064	-0.068656	0.026968	0.738630
35084	-0.592208	1.308971	9.762516	-0.670035	-0.068622	0.026743	0.738667
35085	-0.611219	1.200534	9.724898	-0.669973	-0.068773	0.026718	0.738710
35086	-0.614503	1.085675	9.685599	-0.669765	-0.069224	0.027096	0.738843
35087	-0.655953	1.271382	9.661617	-0.669406	-0.069754	0.027567	0.739101
35088	-0.636752	1.451733	9.778330	-0.669103	-0.070035	0.027681	0.739344
35089	-0.665981	1.569630	9.703505	-0.668899	-0.070206	0.027558	0.739517
35090	-0.609090	1.444118	9.587680	-0.668760	-0.070388	0.027456	0.739630
35091	-0.615698	1.467240	9.752710	-0.668623	-0.070777	0.027594	0.739711
35092	-0.659766	1.622792	9.666367	-0.668490	-0.071356	0.027853	0.739766
35093	-0.712815	1.469087	9.766445	-0.668380	-0.071966	0.028036	0.739799
35094	-0.682230	1.668735	9.599248	-0.668374	-0.072645	0.028288	0.739729
35095	-0.664793	1.563431	9.651209	-0.668468	-0.073127	0.028289	0.739596
35096	-0.607516	1.584867	9.561023	-0.668632	-0.073759	0.028436	0.739380
35097	-0.682334	1.592654	9.678197	-0.668821	-0.074412	0.028726	0.739132
35098	-0.569522	1.823867	9.742135	-0.669143	-0.075041	0.029025	0.738765
35099	-0.609087	1.907727	9.707928	-0.669670	-0.075750	0.029428	0.738199
35100	-0.561824	2.062250	9.539297	-0.670504	-0.076585	0.030008	0.737332
35101	-0.725027	1.799445	9.589282	-0.671672	-0.077559	0.030651	0.736140
35102	-0.773380	1.847614	9.742269	-0.673085	-0.078805	0.031576	0.734677
35103	-0.690088	2.268427	9.795370	-0.674725	-0.079952	0.032330	0.733014
35104	-0.533445	2.484882	9.646237	-0.676791	-0.080492	0.032140	0.731055
35105	-0.646141	2.339585	9.577538	-0.679347	-0.080669	0.031360	0.728695
35106	-0.765092	1.993148	9.529134	-0.682302	-0.080975	0.030684	0.725924
35107	-0.761958	1.798676	9.619264	-0.685622	-0.081930	0.030716	0.722680
35108	-0.688704	1.917670	9.594224	-0.689306	-0.083723	0.031733	0.718916
35109	-0.913616	2.232785	9.710056	-0.693354	-0.085749	0.033016	0.714715
35110	-0.684123	2.667184	9.574076	-0.697889	-0.086822	0.033572	0.710131
35111	-0.647712	2.700273	9.756092	-0.702891	-0.087148	0.032957	0.705169
35112	-0.764344	2.481387	9.724603	-0.708427	-0.087094	0.031707	0.699672
35113	-0.943184	2.105798	9.702724	-0.714418	-0.087297	0.030757	0.693570
35114	-1.015251	2.326609	9.728136	-0.720697	-0.087679	0.030412	0.687010
35115	-0.923349	2.382272	9.649269	-0.727034	-0.087783	0.030288	0.680293
35116	-0.693559	2.915861	9.693500	-0.733506	-0.086823	0.029491	0.673470
35117	-0.549796	2.640385	9.677856	-0.740278	-0.085030	0.027547	0.666333
35118	-0.749830	2.186319	9.724923	-0.747302	-0.083208	0.025540	0.658760
35119	-1.073253	1.589435	9.720678	-0.754477	-0.082057	0.024094	0.650730
35120	-1.266726	2.015545	9.724889	-0.761490	-0.081588	0.024099	0.642569
35121	-0.621900	1.819970	9.704074	-0.768479	-0.080824	0.024098	0.634293
35122	-0.743836	2.038158	9.648434	-0.775467	-0.080128	0.023873	0.625828
35123	-0.624335	1.698260	9.672761	-0.782463	-0.079055	0.023353	0.617216
35124	-0.801675	1.477204	9.674675	-0.789334	-0.078623	0.023224	0.608466
35125	-0.880005	1.451239	9.585444	-0.796130	-0.078686	0.023764	0.599517
35126	-0.794212	1.516561	9.591711	-0.802820	-0.078991	0.024535	0.590456
35127	-0.696572	1.484277	9.587086	-0.809379	-0.079371	0.025093	0.581357
35128	-0.777677	1.857832	9.556225	-0.815739	-0.079742	0.025664	0.572322
35129	-0.557641	1.871809	9.621156	-0.822100	-0.079502	0.025649	0.563181
35130	-0.752751	1.954011	9.660992	-0.828445	-0.078973	0.024980	0.553912
35131	-0.757746	1.525272	9.621772	-0.834789	-0.078443	0.024206	0.544416
35132	-0.755899	1.108425	9.505703	-0.841063	-0.079046	0.023847	0.534599
35133	-0.901941	1.208057	9.525603	-0.847158	-0.080957	0.024196	0.524580
35134	-0.922601	1.656133	9.383674	-0.853105	-0.083239	0.024778	0.514460
35135	-0.616648	2.028059	9.378965	-0.859084	-0.085046	0.024883	0.504107
35136	-0.584497	2.242978	9.403124	-0.865129	-0.086026	0.024268	0.493520
35137	-0.671164	2.227211	9.411873	-0.871222	-0.086670	0.022997	0.482631
35138	-0.855379	1.868380	9.412048	-0.877276	-0.087287	0.021489	0.471493
35139	-0.884183	1.875306	9.438786	-0.882977	-0.088505	0.020703	0.460533
35140	-0.443457	1.465447	9.394810	-0.888493	-0.090491	0.020533	0.449411
35141	-0.497644	2.336590	9.566563	-0.893834	-0.092852	0.020493	0.438199
35142	-0.541825	2.750750	9.522421	-0.899240	-0.094208	0.019357	0.426752
35143	-0.707329	2.535443	9.571312	-0.904561	-0.094346	0.017731	0.415397
35144	-0.629510	1.837885	9.799887	-0.909825	-0.093658	0.015829	0.403976
35145	-0.795441	1.780637	9.702840	-0.914809	-0.094121	0.014273	0.392508
35146	-0.893205	2.085680	9.569784	-0.919648	-0.094784	0.012887	0.380917
35147	-0.931012	1.917565	9.545526	-0.924369	-0.095272	0.011492	0.369233
35148	-0.831884	1.556930	9.611623	-0.928918	-0.096090	0.010586	0.357442
35149	-0.674210	1.618134	9.654487	-0.933174	-0.098123	0.010215	0.345621
35150	-0.692038	2.064227	9.784292	-0.937268	-0.100200	0.009786	0.333755
35151	-0.650857	2.476628	9.645653	-0.941207	-0.101838	0.009083	0.321987
35152	-0.626077	2.716968	9.605536	-0.945053	-0.102153	0.007794	0.310451
35153	-0.668403	2.293573	9.602142	-0.948803	-0.101676	0.006013	0.298995
35154	-0.768392	1.619490	9.517512	-0.952374	-0.101425	0.004381	0.287536
35155	-0.780747	1.100672	9.547173	-0.955611	-0.102668	0.003516	0.276142
35156	-0.853386	1.715606	9.550481	-0.958450	-0.105742	0.003444	0.264917
35157	-0.596565	2.438688	9.599575	-0.961188	-0.108176	0.003168	0.253783
35158	-0.467743	2.645059	9.771609	-0.963944	-0.108986	0.002210	0.242751
35159	-0.608120	1.824621	9.757765	-0.966545	-0.109695	0.001297	0.231854
35160	-0.805891	1.660432	9.835115	-0.968785	-0.112293	0.001027	0.221011
35161	-0.886541	2.239762	9.819608	-0.970834	-0.115364	0.000969	0.210170
35162	-0.623334	2.600403	9.834303	-0.972913	-0.117223	0.000778	0.199245
35163	-0.556058	2.570201	9.721832	-0.974957	-0.117504	-0.000036	0.188819
35164	-0.615922	2.019244	9.761129	-0.976953	-0.116705	-0.001004	0.178723
35165	-0.685640	2.255340	9.613863	-0.978758	-0.116187	-0.001953	0.168905
35166	-0.852139	2.467581	9.655859	-0.980511	-0.115016	-0.002957	0.159251
35167	-0.858460	2.083921	9.535864	-0.982152	-0.113632	-0.003861	0.149831
35168	-0.901249	1.596031	9.626256	-0.983653	-0.112567	-0.004606	0.140480
35169	-0.821637	0.986529	9.496441	-0.984901	-0.113050	-0.004878	0.131017
35170	-0.735040	1.632981	9.439635	-0.985767	-0.115860	-0.004722	0.121727
35171	-0.678468	2.467172	9.407390	-0.986545	-0.118546	-0.004823	0.112486
35172	-0.617811	2.033121	9.399263	-0.987359	-0.120167	-0.005281	0.103217
35173	-0.560333	1.667507	9.506544	-0.987992	-0.122167	-0.005737	0.094418
35174	-0.278731	2.266793	9.525188	-0.988595	-0.123271	-0.006038	0.086296
35175	-0.315246	2.689998	9.340964	-0.989218	-0.123438	-0.006833	0.078507
35176	-0.502355	2.288334	9.514433	-0.989963	-0.122029	-0.008160	0.070825
35177	-0.641094	1.245443	9.567369	-0.990565	-0.121120	-0.009028	0.063485
35178	-0.567781	1.118704	9.621534	-0.990784	-0.122684	-0.009351	0.056634
35179	-0.586401	2.031029	9.492993	-0.990826	-0.125146	-0.009742	0.050070
35180	-0.571055	2.416761	9.448762	-0.990948	-0.126436	-0.010298	0.043925
35181	-0.603957	1.889414	9.700454	-0.991151	-0.126660	-0.011115	0.038117
35182	-0.693029	1.946188	9.702255	-0.991270	-0.127172	-0.011897	0.032715
35183	-0.634825	2.025200	9.522091	-0.991387	-0.127349	-0.012837	0.027742
35184	-0.660929	1.508033	9.505719	-0.991586	-0.126559	-0.013785	0.023446
35185	-0.529860	1.513918	9.494307	-0.991749	-0.125789	-0.014733	0.019861
35186	-0.678010	1.600259	9.506571	-0.991903	-0.124862	-0.015585	0.017146
35187	-0.817353	1.599232	9.498650	-0.992101	-0.123408	-0.016613	0.015161
35188	-0.818840	1.221137	9.732369	-0.992350	-0.121412	-0.017496	0.013961
35189	-0.797257	0.740080	9.988375	-0.992565	-0.119585	-0.018042	0.013748
35190	-0.833752	0.851391	9.992248	-0.992682	-0.118410	-0.018579	0.014678
35191	-1.002677	1.094351	9.868131	-0.992787	-0.117188	-0.018946	0.016780
35192	-1.228360	0.809511	9.987331	-0.992879	-0.115868	-0.019259	0.019865
35193	-1.196066	0.956321	9.894065	-0.992906	-0.114878	-0.019265	0.023885
35194	-1.279924	0.861091	10.015777	-0.992928	-0.113574	-0.018902	0.028957
35195	-1.118336	0.830912	9.958607	-0.992903	-0.112142	-0.018167	0.035191
35196	-1.194030	0.827105	10.020246	-0.992845	-0.110227	-0.017352	0.042514
35197	-1.061176	0.682494	9.966359	-0.992674	-0.108331	-0.016398	0.050928
35198	-1.050527	0.501769	9.989416	-0.992341	-0.106709	-0.015227	0.060329
35199	-1.019703	1.000180	9.865373	-0.991790	-0.105728	-0.013564	0.070636
35200	-0.979967	1.336323	9.704489	-0.991106	-0.104400	-0.011938	0.081649
35201	-1.067861	0.956278	9.883416	-0.990280	-0.102539	-0.010128	0.093424
35202	-0.981087	0.811636	9.871482	-0.989194	-0.100980	-0.008137	0.105978
35203	-0.956377	1.184620	9.900542	-0.987829	-0.099723	-0.006026	0.119216
35204	-0.775056	1.692677	9.800548	-0.986263	-0.097950	-0.004056	0.132943
35205	-0.731731	1.589537	9.825746	-0.984516	-0.095224	-0.002240	0.147161
35206	-0.529043	1.200463	9.791005	-0.982467	-0.092321	-0.000473	0.161976
35207	-0.628518	1.379982	9.741108	-0.980054	-0.089810	0.001442	0.177277
35208	-0.722011	1.427578	9.478561	-0.977369	-0.087347	0.003007	0.192645
35209	-0.829886	1.333327	9.446000	-0.974322	-0.085415	0.004745	0.208276
35210	-0.815460	1.269914	9.495050	-0.970899	-0.083969	0.006798	0.224183
35211	-0.649512	1.348002	9.501725	-0.967092	-0.082744	0.008769	0.240435
35212	-0.772676	1.839318	9.730819	-0.962947	-0.081321	0.010575	0.256919
35213	-0.795822	2.132674	9.554800	-0.958657	-0.079510	0.011955	0.272968
35214	-0.935412	2.043863	9.506254	-0.954186	-0.077627	0.013120	0.288672
35215	-0.653733	1.514652	9.302191	-0.949446	-0.075729	0.014440	0.304316
35216	-0.399919	0.908495	9.418943	-0.944283	-0.074347	0.016101	0.320222
35217	-0.589025	1.477230	9.449234	-0.938715	-0.074221	0.017918	0.336131
35218	-0.903352	2.200897	9.336331	-0.933028	-0.073990	0.019190	0.351590
35219	-0.806373	2.212598	9.593444	-0.927223	-0.072497	0.020320	0.366864
35220	-0.358873	1.868843	9.742671	-0.921136	-0.071019	0.021432	0.382106
35221	-0.468078	1.911969	9.665658	-0.914938	-0.069906	0.022303	0.396869
35222	-0.807218	1.814224	9.357540	-0.908753	-0.068996	0.023010	0.410948
35223	-1.100917	1.440991	9.561716	-0.902455	-0.068390	0.024076	0.424639
35224	-0.624441	1.376265	9.505986	-0.895871	-0.068460	0.025863	0.438247
35225	-0.492132	1.478394	9.599740	-0.889015	-0.068486	0.027456	0.451894
35226	-0.546698	1.940558	9.621587	-0.881937	-0.068377	0.028706	0.465498
35227	-0.636288	2.636796	9.890521	-0.874716	-0.066969	0.029075	0.479105
35228	-0.506158	2.380544	9.837672	-0.867618	-0.064912	0.028731	0.492139
35229	-0.642304	2.019826	9.698235	-0.860660	-0.063201	0.028634	0.504431
35230	-0.665627	1.267301	9.437116	-0.853666	-0.062211	0.028957	0.516281
35231	-0.718711	1.110429	9.437975	-0.846425	-0.062458	0.030115	0.527974
35232	-0.784066	1.246024	9.505544	-0.838958	-0.063575	0.031442	0.539554
35233	-0.851654	1.628316	9.793271	-0.831289	-0.064305	0.032629	0.551144
35234	-0.541992	2.006651	9.942823	-0.823650	-0.064864	0.033557	0.562376
35235	-0.470065	2.418107	9.803282	-0.816175	-0.064970	0.033945	0.573136
35236	-0.571680	2.106664	9.547149	-0.808883	-0.064302	0.033907	0.583458
35237	-0.712078	1.684694	9.462384	-0.801486	-0.063604	0.034104	0.593643
35238	-0.693802	1.377996	9.585871	-0.794075	-0.063342	0.034415	0.603530
35239	-0.661495	1.796245	9.718290	-0.786493	-0.063842	0.035392	0.613270
35240	-0.495846	2.074699	9.712318	-0.778880	-0.064036	0.036057	0.622853
35241	-0.702295	2.455577	9.775357	-0.771147	-0.063838	0.036501	0.632396
35242	-0.443992	2.361362	9.818843	-0.763218	-0.062336	0.036451	0.642093
35243	-0.155560	2.436412	9.810307	-0.755009	-0.060182	0.035965	0.651955
35244	-0.323371	1.689781	9.981613	-0.746703	-0.058105	0.035225	0.661677
35245	-0.633167	1.361560	10.037102	-0.738212	-0.056929	0.035771	0.671210
35246	-0.322093	1.296613	9.779882	-0.729748	-0.057528	0.038100	0.680226
35247	-0.379599	1.297975	9.603260	-0.721444	-0.059879	0.041997	0.688600
35248	-0.499809	1.998426	9.553747	-0.713356	-0.063296	0.046733	0.696371
35249	-0.272375	2.392616	9.347544	-0.705911	-0.066751	0.050562	0.703333
35250	-0.781963	3.681782	9.193228	-0.698884	-0.070078	0.052949	0.709822
35251	-0.258033	2.906108	9.038561	-0.692730	-0.071114	0.052677	0.715747
35252	-0.293407	2.843648	8.996048	-0.687258	-0.072219	0.051980	0.720943
35253	-0.062839	2.772008	8.563921	-0.682428	-0.073083	0.050512	0.725534
35254	-0.341250	2.254484	8.674601	-0.678165	-0.074131	0.048540	0.729548
35255	-0.156867	2.575942	8.838338	-0.674321	-0.075638	0.047094	0.733043
35256	-0.180647	2.682231	9.066214	-0.671034	-0.077494	0.045599	0.735955
35257	-0.426398	2.873649	9.296042	-0.668303	-0.079274	0.044119	0.738336
35258	-0.420331	2.720440	9.487525	-0.666240	-0.080713	0.042205	0.740154
35259	-0.525065	2.802668	9.694130	-0.664712	-0.081896	0.040001	0.741520
35260	-0.608340	2.533846	9.840561	-0.663536	-0.083177	0.037706	0.742549
35261	-0.569711	2.307137	9.912101	-0.662896	-0.084400	0.035573	0.743088
35262	-0.758166	2.358378	9.853635	-0.662776	-0.085985	0.033997	0.743087
35263	-0.641702	2.483494	9.802495	-0.663046	-0.087219	0.032461	0.742771
35264	-0.661712	2.242435	9.775187	-0.663704	-0.088121	0.030914	0.742143
35265	-0.654300	1.949470	9.864437	-0.664655	-0.088997	0.029267	0.741253
35266	-0.813906	1.706362	9.905656	-0.665666	-0.090079	0.028009	0.740264
35267	-0.856676	1.610841	9.795779	-0.666770	-0.091140	0.027222	0.739168
35268	-0.744016	1.705233	9.906232	-0.668001	-0.092308	0.026784	0.737927
35269	-0.730929	1.962443	9.886258	-0.669377	-0.093338	0.026304	0.736567
35270	-0.819240	1.900403	9.756193	-0.670889	-0.093992	0.025582	0.735132
35271	-0.918521	1.685641	9.855148	-0.672457	-0.094291	0.024770	0.733687
35272	-0.758463	1.547506	9.929962	-0.673975	-0.094671	0.024203	0.732263
35273	-0.757943	1.619742	9.903493	-0.675415	-0.095278	0.024073	0.730860
35274	-0.737791	1.594252	9.819747	-0.676819	-0.095919	0.024050	0.729477
35275	-0.773588	1.523944	9.730355	-0.678271	-0.096482	0.024190	0.728048
35276	-0.841055	1.455148	9.724857	-0.679788	-0.097153	0.024455	0.726534
35277	-0.866269	1.343165	9.658367	-0.681307	-0.097929	0.024920	0.724990
35278	-0.771780	1.622728	9.708350	-0.682785	-0.098669	0.025448	0.723479
35279	-0.615571	1.804290	9.596790	-0.684331	-0.099139	0.025829	0.721938
35280	-0.605534	2.029523	9.341678	-0.686056	-0.099360	0.025793	0.720270
35281	-0.696554	1.672508	9.243658	-0.687882	-0.099293	0.025387	0.718551
35282	-0.862623	1.384796	9.318977	-0.689616	-0.099645	0.025265	0.716842
35283	-0.983008	1.421689	9.390454	-0.691187	-0.100890	0.025862	0.715132
35284	-1.034640	1.609073	9.613826	-0.692783	-0.102678	0.026871	0.713293
35285	-0.886326	1.885658	9.283079	-0.694583	-0.104903	0.028210	0.711164
35286	-0.970822	1.981395	9.135300	-0.696498	-0.107117	0.029405	0.708909
35287	-1.160893	1.947170	9.239129	-0.698455	-0.109008	0.029841	0.706673
35288	-1.272213	1.892022	9.739290	-0.700468	-0.110387	0.029544	0.704476
35289	-1.617304	1.939864	9.901340	-0.702444	-0.112047	0.029133	0.702260
35290	-1.751162	1.863492	10.079910	-0.704404	-0.113501	0.028778	0.700075
35291	-1.272962	1.935277	10.219259	-0.706221	-0.114877	0.028750	0.698017
35292	-0.949079	2.330711	10.000372	-0.707947	-0.116120	0.028764	0.696060
35293	-1.168947	2.256241	9.839498	-0.709736	-0.116628	0.028278	0.694171
35294	-1.441949	1.696842	9.942155	-0.711435	-0.116803	0.027816	0.692419
35295	-1.469332	1.373244	10.022649	-0.712937	-0.116914	0.027945	0.690848
35296	-1.416163	1.819206	10.127404	-0.714246	-0.117501	0.028684	0.689364
35297	-1.433124	2.222944	9.975517	-0.715471	-0.117671	0.029406	0.688034
35298	-1.277252	2.412279	9.791946	-0.716654	-0.117098	0.029879	0.686878
35299	-1.272956	2.310535	9.586067	-0.717821	-0.116100	0.029904	0.685828
35300	-1.403084	1.886029	9.473524	-0.719002	-0.114924	0.029882	0.684789
35301	-1.582893	1.523105	9.521272	-0.719999	-0.114323	0.030577	0.683811
35302	-1.505808	1.576615	9.434994	-0.720702	-0.114443	0.032265	0.682972
35303	-1.185103	2.200000	9.427306	-0.721390	-0.114509	0.034288	0.682135
35304	-1.008323	2.522070	9.154927	-0.722188	-0.114510	0.035612	0.681222
35305	-1.211875	2.282755	9.244556	-0.723146	-0.114010	0.036346	0.680250
35306	-1.269147	1.920152	9.344428	-0.724044	-0.113755	0.037055	0.679299
35307	-1.242673	1.883856	9.421047	-0.724835	-0.114029	0.038359	0.678336
35308	-1.226167	2.404868	9.348195	-0.725552	-0.114603	0.039837	0.677387
35309	-1.110156	2.638738	9.227223	-0.726376	-0.114681	0.040516	0.676450
35310	-1.197793	2.473204	9.350762	-0.727236	-0.114418	0.040541	0.675569
35311	-1.173117	2.142138	9.415086	-0.728010	-0.114566	0.040664	0.674702
35312	-1.227511	2.200329	9.576294	-0.728574	-0.115040	0.041172	0.673981
35313	-1.115005	2.587694	9.438572	-0.729011	-0.115510	0.041631	0.673400
35314	-1.055804	2.776913	9.364351	-0.729454	-0.115605	0.041535	0.672910
35315	-1.101866	2.554044	9.503652	-0.729946	-0.115300	0.040803	0.672473
35316	-1.147795	2.001548	9.645127	-0.730359	-0.115073	0.040113	0.672104
35317	-1.143347	1.834307	9.588343	-0.730504	-0.115626	0.040339	0.671838
35318	-1.112798	2.168861	9.541477	-0.730523	-0.116332	0.040961	0.671659
35319	-1.168909	2.340854	9.418622	-0.730647	-0.116912	0.041291	0.671403
35320	-1.165345	2.588022	9.589389	-0.730732	-0.116993	0.041416	0.671288
35321	-0.919106	2.383009	9.605560	-0.730753	-0.116764	0.041305	0.671312
35322	-0.968590	2.198290	9.595161	-0.730660	-0.116716	0.041200	0.671428
35323	-1.086273	2.246869	9.718215	-0.730499	-0.116482	0.041150	0.671648
35324	-1.025950	2.335350	9.531427	-0.730255	-0.116233	0.041085	0.671959
35325	-1.049989	2.360163	9.488562	-0.729902	-0.116010	0.041120	0.672379
35326	-1.007885	2.370693	9.456073	-0.729476	-0.115733	0.041058	0.672893
35327	-1.038192	2.244800	9.511866	-0.728905	-0.115681	0.041137	0.673515
35328	-1.015435	2.289557	9.485425	-0.728184	-0.115905	0.041615	0.674228
35329	-1.006621	2.541904	9.364111	-0.727432	-0.116113	0.042224	0.674964
35330	-0.920109	2.646226	9.319325	-0.726724	-0.115914	0.042285	0.675757
35331	-0.938626	2.528217	9.374483	-0.725933	-0.115672	0.042222	0.676653
35332	-0.950896	2.488803	9.379580	-0.725049	-0.115456	0.042102	0.677643
35333	-0.978654	2.604394	9.337596	-0.724151	-0.115229	0.041883	0.678656
35334	-0.844401	2.558500	9.308295	-0.723272	-0.115036	0.041669	0.679638
35335	-0.681599	2.203358	9.351258	-0.722394	-0.115223	0.041661	0.680540
35336	-0.720207	2.133332	9.535290	-0.721592	-0.115789	0.041858	0.681283
35337	-0.842941	2.351444	9.439908	-0.720849	-0.116594	0.042218	0.681910
35338	-0.719412	2.537674	9.309846	-0.720130	-0.117178	0.042511	0.682550
35339	-0.614289	2.504989	9.215532	-0.719558	-0.117368	0.042154	0.683143
35340	-0.864623	2.221771	9.303931	-0.719115	-0.117448	0.041429	0.683640
35341	-0.912923	2.068742	9.602050	-0.718651	-0.117868	0.041160	0.684072
35342	-0.751176	2.430722	9.619733	-0.718148	-0.118637	0.041441	0.684450
35343	-0.690911	2.741114	9.508901	-0.717861	-0.119176	0.041410	0.684659
35344	-0.731999	2.625990	9.417420	-0.717840	-0.119235	0.040693	0.684714
35345	-0.836544	2.257755	9.585732	-0.717969	-0.118942	0.039607	0.684693
35346	-0.903269	2.017470	9.676048	-0.718196	-0.118830	0.038693	0.684527
35347	-0.923948	1.943702	9.777708	-0.718360	-0.119070	0.038358	0.684332
35348	-0.852365	2.237608	9.504696	-0.718496	-0.119461	0.038312	0.684123
35349	-0.790567	2.222536	9.494627	-0.718790	-0.119353	0.037825	0.683860
35350	-0.786454	2.094989	9.592182	-0.719205	-0.119076	0.037090	0.683513
35351	-0.962496	2.072139	9.691792	-0.719664	-0.118675	0.036366	0.683138
35352	-0.972559	2.115944	9.522123	-0.720112	-0.118232	0.035678	0.682779
35353	-0.873338	1.988888	9.451952	-0.720493	-0.117703	0.035059	0.682500
35354	-0.957780	1.960669	9.436318	-0.720803	-0.117336	0.034564	0.682261
35355	-0.869083	2.079336	9.508139	-0.721111	-0.116853	0.034003	0.682047
35356	-0.844147	2.006557	9.453389	-0.721355	-0.116761	0.033696	0.681820
35357	-0.968729	2.066587	9.449029	-0.721524	-0.116908	0.033766	0.681612
35358	-0.896748	2.137162	9.367621	-0.721567	-0.117303	0.033999	0.681488
35359	-0.894388	2.310199	9.412117	-0.721567	-0.117529	0.034103	0.681443
35360	-0.734064	2.268118	9.382462	-0.721627	-0.117760	0.033917	0.681349
35361	-0.847506	2.024993	9.385963	-0.721788	-0.118074	0.033592	0.681140
35362	-0.956284	1.988485	9.357830	-0.721961	-0.118847	0.033575	0.680823
35363	-1.106100	2.382067	9.234088	-0.722095	-0.119717	0.033788	0.680519
35364	-0.753715	2.479037	9.250612	-0.722271	-0.120103	0.033368	0.680284
35365	-0.793763	2.455095	9.408981	-0.722571	-0.120365	0.032369	0.679968
35366	-0.929332	2.201909	9.475920	-0.722981	-0.120838	0.031462	0.679490
35367	-1.120277	2.086293	9.381506	-0.723418	-0.121927	0.031261	0.678839
35368	-1.027872	2.253163	9.392220	-0.723881	-0.123087	0.031281	0.678135
35369	-0.948462	2.299004	9.467029	-0.724386	-0.124331	0.031044	0.677379
35370	-1.082003	2.344928	9.531524	-0.724924	-0.125222	0.030381	0.676670
35371	-1.117129	2.446996	9.601791	-0.725511	-0.125853	0.029498	0.675962
35372	-1.179936	2.544136	9.495782	-0.726176	-0.126443	0.028754	0.675169
35373	-1.103680	2.378052	9.491051	-0.726825	-0.127000	0.028184	0.674390
35374	-1.311600	2.146439	9.427414	-0.727375	-0.127715	0.027673	0.673683
35375	-1.474845	2.098856	9.583554	-0.727738	-0.128713	0.027529	0.673107
35376	-1.427692	2.262799	9.678038	-0.727986	-0.129737	0.027649	0.672637
35377	-1.302146	2.504321	9.588029	-0.728135	-0.130748	0.027682	0.672279
35378	-1.325829	2.524005	9.519984	-0.728288	-0.131361	0.027313	0.672009
35379	-1.329581	2.459442	9.473326	-0.728417	-0.131597	0.026634	0.671849
35380	-1.265765	2.341540	9.382719	-0.728496	-0.131622	0.025697	0.671796
35381	-1.322249	1.991945	9.345689	-0.728477	-0.131631	0.024651	0.671853
35382	-1.471392	1.893778	9.320214	-0.728238	-0.132188	0.024138	0.672022
35383	-1.467257	2.171412	9.424382	-0.727841	-0.132771	0.023795	0.672349
35384	-1.417289	2.378834	9.422552	-0.727318	-0.133235	0.023271	0.672841
35385	-1.383687	2.331846	9.406246	-0.726791	-0.133479	0.022461	0.673390
35386	-1.576368	2.084623	9.311077	-0.726294	-0.133745	0.021378	0.673908
35387	-1.788199	1.695502	9.228536	-0.725766	-0.134320	0.020584	0.674388
35388	-1.808505	1.702621	9.265513	-0.725018	-0.135391	0.020313	0.674985
35389	-1.391984	2.371764	9.330889	-0.724083	-0.136126	0.019796	0.675857
35390	-1.184703	2.613935	9.342616	-0.723088	-0.136487	0.018160	0.676894
35391	-1.454376	2.440838	9.434545	-0.722207	-0.136287	0.015696	0.677936
35392	-1.588665	1.992027	9.453085	-0.721288	-0.136766	0.013780	0.678859
35393	-1.674988	1.923378	9.306568	-0.720312	-0.138137	0.012711	0.679638
35394	-1.789444	1.814446	9.212596	-0.719415	-0.139846	0.011880	0.680253
35395	-1.820619	1.554671	9.074965	-0.718614	-0.141537	0.010852	0.680767
35396	-2.081418	1.562688	9.105228	-0.717759	-0.143360	0.009844	0.681303
35397	-2.054187	1.656762	9.225835	-0.716903	-0.145084	0.008735	0.681854
35398	-2.122708	1.797209	9.251600	-0.716110	-0.147135	0.007823	0.682258
35399	-2.347070	2.090991	9.457109	-0.715320	-0.149420	0.007077	0.682599
35400	-2.470628	2.329001	9.610552	-0.714521	-0.151669	0.006334	0.682947
35401	-2.232476	2.536092	9.606892	-0.713773	-0.153589	0.005523	0.683307
35402	-2.278779	2.761381	9.611532	-0.713090	-0.155269	0.004394	0.683648
35403	-2.317592	2.874614	9.799406	-0.712536	-0.155953	0.002757	0.684079
35404	-2.184312	2.521199	10.089794	-0.712112	-0.156340	0.001234	0.684436
35405	-2.195623	2.310285	10.110422	-0.711825	-0.156974	0.000436	0.684590
35406	-2.507383	2.347531	9.938811	-0.711728	-0.157509	0.000289	0.684568
35407	-2.551415	2.399497	10.074167	-0.711762	-0.157546	0.000402	0.684525
35408	-2.155024	2.677319	10.092673	-0.712116	-0.156506	0.000053	0.684396
35409	-2.036763	2.182112	9.723294	-0.712671	-0.155019	-0.000479	0.684156
35410	-2.136875	1.909029	9.570365	-0.713323	-0.153450	-0.000593	0.683830
35411	-2.126476	1.821223	9.281412	-0.713914	-0.152474	0.000187	0.683432
35412	-2.168113	1.795309	9.262766	-0.714512	-0.151963	0.001652	0.682918
35413	-2.073531	2.029933	9.269019	-0.715287	-0.151682	0.003136	0.682164
35414	-1.869919	2.033171	9.213647	-0.716145	-0.151315	0.004240	0.681338
35415	-1.829226	1.902326	9.043608	-0.716848	-0.151477	0.005310	0.680555
35416	-1.935052	2.159438	8.964879	-0.717511	-0.151672	0.006223	0.679805
35417	-1.761649	2.270935	8.828939	-0.718145	-0.152089	0.006739	0.679037
35418	-1.795176	2.213407	8.872645	-0.718639	-0.152865	0.007166	0.678335
35419	-1.887035	2.155069	8.900539	-0.718921	-0.153965	0.007590	0.677783
35420	-1.794221	1.978681	9.061056	-0.719035	-0.155152	0.007750	0.677389
35421	-1.852937	2.079988	9.176453	-0.718973	-0.156635	0.007825	0.677113
35422	-1.919845	2.041604	9.286615	-0.718908	-0.157913	0.007477	0.676889
35423	-2.089945	2.264016	9.398108	-0.718876	-0.158976	0.006828	0.676681
35424	-1.979359	2.222907	9.503556	-0.718775	-0.159916	0.006281	0.676572
35425	-1.976732	2.280578	9.639669	-0.718403	-0.161232	0.006319	0.676654
35426	-2.199932	2.518086	9.816000	-0.717874	-0.162279	0.006657	0.676962
35427	-2.268434	2.660326	10.040797	-0.717496	-0.162473	0.006948	0.677314
35428	-2.433043	2.695880	10.608766	-0.717234	-0.162109	0.007303	0.677674
35429	-2.811276	2.660054	11.306226	-0.716989	-0.160960	0.008031	0.678199
35430	-2.989308	2.651294	11.720326	-0.716682	-0.158437	0.009446	0.679098
35431	-2.378908	2.715816	11.839743	-0.716421	-0.154449	0.011589	0.680259
35432	-2.289254	3.088926	11.924776	-0.716187	-0.148984	0.014528	0.681666
35433	-2.360446	2.884978	11.650359	-0.716164	-0.141726	0.018232	0.683148
35434	-2.565706	2.673010	11.779898	-0.716023	-0.133185	0.023122	0.684864
35435	-2.220054	2.328755	11.594733	-0.715743	-0.123835	0.029795	0.686651
35436	-2.179381	2.420322	11.475340	-0.715371	-0.113910	0.037912	0.688354
35437	-2.219190	2.201980	11.421972	-0.714932	-0.103440	0.047515	0.689866
35438	-1.938761	2.214193	11.278627	-0.714343	-0.092724	0.058976	0.691114
35439	-1.289594	2.254142	10.957525	-0.713562	-0.081923	0.071932	0.692058
35440	-1.074441	2.573262	10.507798	-0.712746	-0.071100	0.085804	0.692514
35441	-0.599689	2.417046	9.880067	-0.712152	-0.059685	0.100211	0.692268
35442	-0.235313	2.106701	9.458177	-0.711692	-0.048451	0.115383	0.691255
35443	0.154077	1.711882	9.064983	-0.711351	-0.037715	0.131249	0.689442
35444	0.207065	1.545428	8.936555	-0.710996	-0.028507	0.148119	0.686828
35445	0.878130	1.315538	9.290354	-0.710465	-0.019450	0.164618	0.683932
35446	2.122709	1.020223	9.248059	-0.709846	-0.010847	0.180671	0.680705
35447	2.451870	1.455565	8.464787	-0.709584	-0.003872	0.197578	0.676342
35448	2.171060	2.300838	7.968570	-0.709630	0.002283	0.214666	0.671073
35449	2.451303	2.687018	7.355432	-0.709708	0.008294	0.231518	0.665316
35450	2.813225	2.673519	7.004823	-0.709930	0.014847	0.246679	0.659492
35451	3.293356	1.810880	6.814189	-0.710156	0.020671	0.260943	0.653575
35452	3.300040	1.565672	6.837672	-0.710504	0.023749	0.275636	0.647028
35453	3.736200	2.206279	6.598133	-0.710716	0.024827	0.291614	0.639709
35454	4.070738	3.067029	6.715717	-0.710890	0.025971	0.305968	0.632728
35455	4.637944	3.392036	7.385449	-0.711004	0.028133	0.317967	0.626562
35456	4.844704	4.151640	7.796704	-0.711089	0.031547	0.327608	0.621313
35457	4.842783	4.729702	7.063246	-0.711210	0.037027	0.334678	0.617091
35458	5.264018	2.861384	5.935619	-0.711210	0.043653	0.340495	0.613465
35459	5.446603	2.788869	5.573304	-0.711056	0.047630	0.346982	0.609700
35460	5.634672	2.851571	5.734594	-0.710495	0.050468	0.353492	0.606377
35461	5.731911	3.567126	5.600823	-0.709678	0.051416	0.360789	0.602946
35462	5.876766	3.595442	5.528076	-0.708587	0.053566	0.365956	0.600926
35463	6.155648	2.957831	5.570709	-0.707418	0.054587	0.370533	0.599404
35464	6.409975	3.720418	6.120979	-0.705803	0.055721	0.373857	0.599139
35465	6.377101	3.589766	6.193756	-0.703839	0.057989	0.375250	0.600362
35466	6.273646	4.286075	5.911516	-0.701851	0.060093	0.376112	0.601941
35467	6.157801	3.715138	5.629859	-0.700237	0.062217	0.376370	0.603443
35468	5.967823	4.055004	5.419633	-0.698989	0.063286	0.377259	0.604222
35469	6.664673	4.086304	5.174487	-0.698142	0.063732	0.377590	0.604948
35470	6.349861	3.714501	5.594012	-0.697540	0.062977	0.377337	0.605879
35471	6.230803	4.373176	5.544820	-0.696806	0.061423	0.377420	0.606830
35472	6.268798	3.741579	5.443589	-0.696316	0.060471	0.376512	0.608051
35473	6.238933	3.824838	5.397338	-0.696026	0.058959	0.375241	0.609316
35474	6.356630	3.657875	5.608761	-0.695925	0.056767	0.373304	0.610828
35475	6.152024	3.982343	5.863007	-0.695899	0.053577	0.370835	0.612647
35476	5.690768	4.299723	6.020471	-0.695904	0.051134	0.366852	0.615242
35477	5.673151	3.857853	5.582725	-0.696070	0.048857	0.362137	0.618026
35478	5.659630	3.827526	5.566178	-0.696381	0.045882	0.357059	0.620852
35479	5.818565	3.697936	5.631463	-0.696675	0.042561	0.351113	0.624141
35480	5.714095	3.487253	5.920380	-0.697069	0.038250	0.344015	0.627922
35481	5.034493	3.519881	6.256676	-0.697341	0.033508	0.335915	0.632261
35482	4.713478	3.342102	6.432556	-0.697586	0.027723	0.328073	0.636375
35483	4.509575	3.761767	6.549775	-0.697790	0.021401	0.320179	0.640404
35484	4.499793	3.406256	6.419237	-0.698136	0.015515	0.311309	0.644556
35485	4.325845	2.978912	6.595087	-0.698628	0.008785	0.302012	0.648560
35486	4.041240	3.690243	7.145059	-0.698861	0.000837	0.292755	0.652600
35487	3.791696	3.548657	7.350656	-0.698797	-0.007776	0.283219	0.656818
35488	3.093911	3.750938	7.498791	-0.698772	-0.017479	0.273474	0.660775
35489	2.471710	3.378339	7.476063	-0.698699	-0.026502	0.262790	0.664876
35490	2.307812	2.968707	7.638986	-0.698356	-0.035933	0.251831	0.669021
35491	2.242375	2.939655	8.107367	-0.697796	-0.046312	0.241148	0.672892
35492	2.144582	3.501353	8.313941	-0.697307	-0.058617	0.231653	0.675769
35493	1.617300	4.111348	8.245501	-0.696807	-0.071190	0.221921	0.678339
35494	1.123749	4.459111	8.175267	-0.696252	-0.081712	0.210300	0.681418
35495	0.904029	3.625161	8.405852	-0.695919	-0.091195	0.196363	0.684706
35496	0.043144	3.432739	8.294249	-0.695734	-0.101249	0.182702	0.687258
35497	0.161723	3.406803	8.700198	-0.695355	-0.111079	0.168240	0.689810
35498	-0.534956	2.991075	8.604313	-0.694565	-0.122613	0.154574	0.691847
35499	-0.866602	3.743848	8.516445	-0.693407	-0.134162	0.142025	0.693553
35500	-0.460663	3.404550	8.334561	-0.692418	-0.145089	0.128364	0.695003
35501	-1.125462	3.367486	8.487593	-0.691370	-0.156374	0.113834	0.696129
35502	-1.924375	2.902146	8.586324	-0.690314	-0.167182	0.098484	0.697006
35503	-2.459967	3.029743	8.251994	-0.688140	-0.179019	0.085056	0.697984
35504	-1.783155	3.299825	8.482273	-0.685628	-0.189433	0.070113	0.699367
35505	-2.111818	3.652745	8.836854	-0.682636	-0.200191	0.054783	0.700664
35506	-2.995157	4.031316	8.822247	-0.680238	-0.210893	0.039321	0.700895
35507	-4.404054	3.477278	8.962940	-0.678050	-0.221776	0.024799	0.700321
35508	-4.073714	2.786126	9.251652	-0.675514	-0.231842	0.011962	0.699848
35509	-3.265894	2.356446	8.980095	-0.671796	-0.243672	0.000418	0.699510
35510	-3.595026	3.043517	8.567097	-0.667569	-0.255464	-0.011419	0.699257
35511	-5.233047	2.715232	8.678564	-0.663358	-0.266638	-0.024894	0.698742
35512	-6.843600	3.727065	9.132573	-0.659052	-0.276825	-0.036876	0.698325
35513	-5.645584	2.664294	9.386303	-0.655533	-0.285238	-0.049641	0.697461
35514	-4.770972	2.962582	9.209291	-0.650902	-0.295058	-0.060305	0.696872
35515	-4.845607	3.368057	8.374862	-0.646390	-0.304969	-0.070846	0.695812
35516	-6.124355	2.614756	7.865699	-0.642512	-0.314581	-0.082521	0.693836
35517	-7.975184	2.124030	7.660439	-0.638306	-0.324653	-0.092941	0.691757
35518	-7.532897	3.048029	7.797594	-0.633735	-0.333976	-0.102462	0.690175
35519	-6.747967	2.914707	7.940595	-0.628943	-0.343187	-0.111913	0.688570
35520	-6.407668	4.076450	8.280953	-0.624433	-0.351230	-0.122076	0.686891
35521	-6.439624	3.239097	7.679757	-0.621084	-0.357464	-0.134142	0.684456
35522	-7.428378	2.280701	6.948925	-0.618221	-0.363987	-0.146629	0.681041
35523	-8.679138	1.745269	6.517501	-0.615502	-0.371060	-0.158084	0.677113
35524	-8.702838	1.262078	6.347706	-0.611576	-0.379966	-0.166992	0.673583
35525	-8.351851	1.610144	6.328824	-0.606324	-0.390256	-0.174107	0.670640
35526	-8.165076	2.013277	6.321943	-0.600416	-0.400935	-0.180816	0.667875
35527	-7.820237	2.353442	5.993410	-0.594555	-0.411282	-0.188744	0.664625
35528	-7.964495	2.482780	5.334471	-0.588943	-0.421036	-0.197009	0.661107
35529	-7.790069	2.928799	5.311568	-0.583896	-0.430289	-0.205264	0.657102
35530	-8.339672	3.498312	5.373813	-0.579250	-0.439560	-0.213220	0.652529
35531	-8.275966	3.266389	5.849806	-0.575920	-0.447385	-0.222008	0.647206
35532	-8.393670	2.644053	5.878933	-0.573035	-0.455080	-0.230762	0.641313
35533	-8.901095	2.845901	5.374176	-0.570368	-0.462081	-0.239592	0.635419
35534	-8.563015	2.436780	4.855646	-0.567829	-0.468427	-0.247595	0.629955
35535	-8.780283	3.217586	4.842063	-0.565174	-0.474658	-0.255074	0.624672
35536	-8.947381	3.805533	5.343808	-0.564369	-0.478355	-0.263790	0.618934
35537	-9.070670	2.603408	5.828388	-0.565118	-0.480131	-0.272399	0.613119
35538	-9.118911	1.369715	6.083074	-0.565571	-0.481972	-0.278458	0.608517
35539	-9.155636	1.996279	5.577697	-0.565098	-0.484369	-0.282164	0.605338
35540	-9.061170	2.634673	5.379736	-0.565268	-0.485546	-0.285760	0.602544
35541	-8.969056	2.476398	5.335734	-0.566309	-0.485133	-0.290139	0.599799
35542	-8.806634	2.580332	5.275108	-0.568295	-0.482860	-0.295983	0.596893
35543	-8.618774	2.832467	5.078545	-0.571711	-0.478004	-0.304321	0.593336
35544	-8.665091	2.734413	4.887018	-0.576954	-0.469892	-0.315759	0.588746
35545	-8.705968	2.279576	4.539868	-0.583324	-0.459471	-0.328682	0.583598
35546	-9.064222	2.118238	3.939812	-0.590234	-0.447942	-0.341752	0.578081
35547	-8.696677	0.551912	3.331753	-0.597199	-0.436174	-0.353919	0.572579
35548	-8.835485	-0.958157	2.980147	-0.601314	-0.427993	-0.363127	0.568666
35549	-9.406427	0.073186	2.971255	-0.602392	-0.423698	-0.368310	0.567408
35550	-9.469258	1.411958	2.702852	-0.602918	-0.420609	-0.371816	0.566861
35551	-9.701544	2.323134	2.375899	-0.604211	-0.417916	-0.375419	0.565098
35552	-9.360700	1.421357	2.109511	-0.606988	-0.415008	-0.379980	0.561204
35553	-9.278574	-0.346132	2.303788	-0.608925	-0.413995	-0.384006	0.557098
35554	-9.321690	-0.619153	2.739561	-0.609162	-0.415136	-0.385883	0.554688
35555	-8.998428	0.174201	2.635506	-0.608465	-0.417241	-0.386819	0.553219
35556	-8.518801	0.831661	2.320879	-0.607426	-0.419805	-0.388525	0.551222
35557	-8.609556	1.064931	2.712203	-0.606777	-0.421730	-0.392231	0.547832
35558	-8.864371	0.258711	3.105568	-0.606418	-0.422976	-0.396677	0.544054
35559	-9.128923	-0.346956	3.388087	-0.605318	-0.424753	-0.400194	0.541312
35560	-9.187868	0.365464	3.351290	-0.603405	-0.427406	-0.402492	0.539655
35561	-9.187270	1.454392	3.006104	-0.601646	-0.429927	-0.405008	0.537730
35562	-9.197695	1.500699	2.737995	-0.600762	-0.431615	-0.408420	0.534778
35563	-9.479805	0.749680	2.904516	-0.600334	-0.432831	-0.412257	0.531320
35564	-9.619649	0.246741	3.137067	-0.599777	-0.434279	-0.415368	0.528336
35565	-9.590216	0.346038	3.222107	-0.598869	-0.436191	-0.417669	0.525971
35566	-9.595202	0.847738	3.130398	-0.597954	-0.438083	-0.419989	0.523587
35567	-9.800276	0.845278	3.077467	-0.597687	-0.439080	-0.422933	0.520680
35568	-9.948437	0.442736	3.074151	-0.598007	-0.439353	-0.426100	0.517489
35569	-9.982886	0.205930	3.035789	-0.598353	-0.439727	-0.428732	0.514589
35570	-9.883679	0.199914	2.992361	-0.598751	-0.440163	-0.430680	0.512121
35571	-9.720767	0.266740	2.862724	-0.598984	-0.440790	-0.432203	0.510023
35572	-9.667248	0.804741	2.721508	-0.599486	-0.441168	-0.433580	0.507933
35573	-9.557804	0.769751	2.556039	-0.600509	-0.441055	-0.435052	0.505559
35574	-9.547820	0.563549	2.524202	-0.601440	-0.441067	-0.436233	0.503418
35575	-9.655970	0.573600	2.583005	-0.602367	-0.440954	-0.437060	0.501690
35576	-9.576241	0.894717	2.580701	-0.603313	-0.440887	-0.437420	0.500296
35577	-9.551749	1.220915	2.639160	-0.604586	-0.440311	-0.438036	0.498725
35578	-9.484356	1.389755	2.593956	-0.606199	-0.438993	-0.439098	0.496991
35579	-9.572819	1.371676	2.323225	-0.608129	-0.436833	-0.440858	0.494975
35580	-9.636931	1.191290	2.229966	-0.609709	-0.434669	-0.442844	0.493161
35581	-9.749349	1.291453	2.336063	-0.611198	-0.432090	-0.445166	0.491489
35582	-9.540970	1.213925	2.524805	-0.612713	-0.428998	-0.448022	0.489714
35583	-9.524291	1.203450	2.407486	-0.614039	-0.425639	-0.451310	0.487962
35584	-9.531341	0.994619	2.258070	-0.615211	-0.422188	-0.454944	0.486106
35585	-9.621368	0.825490	2.120657	-0.615992	-0.419160	-0.458314	0.484569
35586	-9.656755	0.590707	2.023688	-0.616436	-0.416603	-0.461345	0.483332
35587	-9.590846	0.422162	2.030600	-0.616443	-0.414628	-0.463978	0.482500
35588	-9.527277	0.413933	2.059660	-0.616130	-0.412918	-0.466585	0.481851
35589	-9.480950	0.420509	2.010382	-0.615458	-0.411544	-0.469020	0.481522
35590	-9.473946	0.501240	1.960670	-0.614513	-0.410340	-0.471374	0.481458
35591	-9.445523	0.593619	1.947764	-0.613470	-0.409025	-0.473955	0.481373
35592	-9.365200	0.647868	1.887608	-0.612541	-0.407370	-0.476856	0.481094
35593	-9.282209	0.617580	1.946368	-0.611764	-0.405338	-0.480092	0.480580
35594	-9.284513	0.462373	1.907052	-0.610910	-0.403285	-0.483440	0.480037
35595	-9.364109	0.262976	1.843851	-0.609773	-0.401717	-0.486242	0.479967
35596	-9.565492	0.260046	1.943358	-0.608579	-0.400505	-0.488602	0.480099
35597	-9.590046	0.301596	1.927108	-0.607501	-0.399727	-0.490447	0.480233
35598	-9.694777	0.261956	1.968325	-0.606602	-0.399245	-0.491932	0.480251
35599	-9.631229	0.040219	1.944499	-0.605787	-0.399106	-0.492919	0.480384
35600	-9.669747	0.004847	1.983596	-0.604993	-0.399147	-0.493521	0.480731
35601	-9.588299	0.161485	1.856032	-0.604232	-0.399426	-0.493724	0.481247
35602	-9.479298	0.260084	1.898451	-0.603756	-0.399571	-0.494008	0.481433
35603	-9.449036	0.182571	1.962439	-0.603515	-0.399831	-0.494078	0.481448
35604	-9.419247	0.100968	1.985447	-0.603470	-0.400301	-0.493717	0.481484
35605	-9.420438	0.170358	2.006238	-0.603531	-0.401029	-0.492878	0.481661
35606	-9.515738	0.223705	1.996423	-0.603701	-0.401827	-0.491811	0.481873
35607	-9.511254	0.342202	2.051823	-0.603963	-0.402744	-0.490499	0.482116
35608	-9.507243	0.331838	2.015167	-0.604256	-0.403954	-0.488816	0.482446
35609	-9.597728	0.339316	2.100842	-0.604425	-0.405551	-0.486707	0.483027
35610	-9.623213	0.485146	2.198121	-0.604612	-0.407346	-0.484317	0.483684
35611	-9.538402	0.828075	2.257169	-0.604831	-0.409307	-0.481666	0.484402
35612	-9.452513	0.939972	2.265451	-0.605296	-0.411093	-0.479089	0.484864
35613	-9.471146	0.862580	2.295414	-0.606034	-0.412496	-0.476767	0.485040
35614	-9.573321	0.881428	2.235333	-0.606759	-0.413931	-0.474406	0.485225
35615	-9.582378	0.778185	2.192691	-0.607357	-0.415553	-0.471889	0.485546
35616	-9.521419	0.780154	2.260340	-0.607794	-0.417266	-0.469297	0.486041
35617	-9.438955	0.970252	2.306611	-0.608231	-0.418869	-0.466822	0.486499
35618	-9.426204	1.091371	2.288788	-0.608875	-0.420189	-0.464598	0.486683
35619	-9.442565	1.011232	2.175620	-0.609803	-0.421009	-0.462686	0.486636
35620	-9.613818	0.757675	2.094894	-0.610908	-0.421589	-0.461043	0.486306
35621	-9.692185	0.470364	2.189181	-0.611903	-0.422296	-0.459299	0.486092
35622	-9.775669	0.396116	2.310388	-0.612385	-0.423653	-0.457030	0.486442
35623	-9.584192	0.642669	2.262771	-0.612483	-0.425485	-0.454350	0.487231
35624	-9.459153	1.041341	2.166518	-0.612562	-0.427237	-0.451772	0.487994
35625	-9.403284	1.173802	2.174064	-0.612874	-0.428588	-0.449635	0.488391
35626	-9.358583	0.947701	2.169263	-0.613418	-0.429644	-0.447787	0.488478
35627	-9.424441	0.701171	2.196816	-0.613835	-0.430959	-0.445822	0.488593
35628	-9.528416	0.534228	2.222524	-0.613987	-0.432671	-0.443472	0.489028
35629	-9.695539	0.674946	2.283603	-0.613876	-0.434832	-0.440690	0.489766
35630	-9.631241	0.825673	2.280092	-0.613830	-0.437061	-0.437696	0.490522
35631	-9.513717	0.959554	2.326017	-0.613968	-0.439117	-0.434904	0.490997
35632	-9.333066	1.024706	2.357285	-0.614207	-0.440989	-0.432364	0.491264
35633	-9.344196	1.051552	2.406082	-0.614490	-0.442586	-0.430161	0.491408
35634	-9.352969	1.286718	2.373117	-0.614646	-0.444106	-0.428047	0.491687
35635	-9.382006	1.582474	2.430161	-0.614967	-0.445125	-0.426458	0.491744
35636	-9.399337	1.675538	2.549515	-0.615519	-0.445592	-0.425521	0.491443
35637	-9.476790	1.771747	2.511430	-0.616180	-0.445670	-0.425084	0.490921
35638	-9.505284	1.665821	2.523546	-0.617082	-0.445218	-0.425060	0.490219
35639	-9.507028	1.631192	2.374262	-0.618156	-0.444372	-0.425427	0.489314
35640	-9.480516	1.414390	2.248524	-0.619384	-0.443216	-0.426181	0.488152
35641	-9.466674	1.161446	2.148915	-0.620600	-0.441978	-0.427095	0.486931
35642	-9.455567	0.939830	2.098786	-0.621639	-0.440791	-0.427991	0.485893
35643	-9.449531	0.885474	2.060100	-0.622421	-0.439749	-0.428798	0.485123
35644	-9.505843	0.981026	2.087637	-0.623065	-0.438762	-0.429621	0.484462
35645	-9.565206	1.079217	2.019997	-0.623667	-0.437882	-0.430365	0.483823
35646	-9.633545	1.184281	2.044925	-0.624375	-0.436961	-0.431259	0.482945
35647	-9.629512	1.055157	1.999978	-0.625210	-0.435987	-0.432124	0.481972
35648	-9.685232	1.003739	2.000394	-0.626105	-0.435047	-0.432963	0.480905
35649	-9.668727	0.982935	1.898601	-0.627138	-0.434024	-0.433756	0.479768
35650	-9.641214	0.948929	1.767561	-0.628234	-0.433043	-0.434466	0.478576
35651	-9.625051	0.925740	1.636037	-0.629338	-0.432041	-0.435117	0.477438
35652	-9.599815	0.982101	1.616635	-0.630391	-0.431127	-0.435600	0.476434
35653	-9.562641	1.201073	1.599350	-0.631270	-0.430572	-0.435671	0.475707
35654	-9.531187	1.523888	1.683621	-0.631987	-0.430003	-0.435703	0.475239
35655	-9.656097	1.684978	1.767966	-0.632767	-0.429079	-0.435905	0.474852
35656	-9.643248	1.815129	1.782755	-0.633812	-0.427503	-0.436611	0.474230
35657	-9.581542	1.734067	1.785728	-0.635164	-0.425210	-0.437814	0.473373
35658	-9.600037	1.620774	1.671541	-0.636453	-0.422387	-0.439413	0.472688
35659	-9.578780	1.483967	1.406546	-0.637630	-0.419067	-0.441274	0.472323
35660	-9.761438	1.366885	1.166042	-0.638588	-0.415412	-0.443342	0.472321
35661	-9.973263	1.296758	1.086323	-0.639459	-0.411630	-0.445331	0.472582
35662	-10.141879	0.998823	1.130439	-0.640409	-0.407831	-0.447062	0.472954
35663	-10.218959	0.624128	1.225297	-0.641257	-0.404024	-0.448312	0.473888
35664	-10.331672	0.206189	1.220008	-0.641841	-0.400415	-0.449017	0.475492
35665	-10.305727	0.143077	1.153483	-0.641918	-0.397428	-0.449140	0.477771
35666	-10.343233	0.020610	1.199404	-0.641472	-0.394805	-0.448927	0.480736
35667	-10.274050	-0.101307	1.420073	-0.640495	-0.392640	-0.448221	0.484456
35668	-10.374090	-0.059169	1.714691	-0.639053	-0.390835	-0.447307	0.488647
35669	-10.258656	-0.102598	1.940767	-0.637338	-0.388898	-0.446416	0.493225
35670	-9.924572	-0.275087	2.195772	-0.635415	-0.386652	-0.445847	0.497963
35671	-9.876325	-0.540081	2.540478	-0.633320	-0.384265	-0.445735	0.502560
35672	-9.959049	-0.475152	2.778753	-0.631001	-0.382374	-0.445397	0.507198
35673	-9.706691	-0.453101	2.735551	-0.628466	-0.381203	-0.444642	0.511868
35674	-9.062654	-0.699753	2.650732	-0.625751	-0.380682	-0.443507	0.516545
35675	-8.540622	-0.814589	2.696996	-0.622608	-0.380969	-0.442117	0.521300
35676	-8.305105	-0.983774	2.968639	-0.619229	-0.381727	-0.440646	0.525995
35677	-8.308253	-1.371683	3.327021	-0.615440	-0.383202	-0.438792	0.530897
35678	-8.568640	-1.175497	3.564006	-0.610841	-0.385719	-0.436311	0.536402
35679	-8.747048	-0.612289	3.758363	-0.605606	-0.388649	-0.433439	0.542517
35680	-8.784218	-0.074311	3.975563	-0.599801	-0.391706	-0.430576	0.549008
35681	-8.871921	0.523752	4.251280	-0.593901	-0.394338	-0.428462	0.555157
35682	-8.970443	0.773253	4.273033	-0.588569	-0.396124	-0.427477	0.560299
35683	-8.921564	0.565258	4.234703	-0.583773	-0.397579	-0.427239	0.564453
35684	-8.699697	0.324092	4.084099	-0.578972	-0.399383	-0.426950	0.568329
35685	-8.421326	0.364939	3.913811	-0.574027	-0.401569	-0.426262	0.572307
35686	-8.281713	0.581658	3.820836	-0.569071	-0.403917	-0.425219	0.576367
35687	-8.334312	0.697860	3.826727	-0.564450	-0.406250	-0.424193	0.580015
35688	-8.606538	0.564853	3.874523	-0.560381	-0.408458	-0.423444	0.582950
35689	-8.801538	0.239877	3.898206	-0.556847	-0.410624	-0.422978	0.585150
35690	-8.891293	-0.085934	3.725473	-0.553439	-0.413024	-0.422348	0.587144
35691	-8.853685	-0.064862	3.637311	-0.549952	-0.415663	-0.421450	0.589200
35692	-8.804922	-0.105324	3.502366	-0.546386	-0.418392	-0.420565	0.591215
35693	-8.777170	-0.088423	3.463374	-0.542717	-0.421196	-0.419713	0.593206
35694	-9.012244	0.102473	3.509748	-0.539084	-0.424059	-0.419100	0.594910
35695	-9.227280	0.173189	3.583374	-0.535537	-0.427027	-0.418640	0.596313
35696	-9.341476	0.250283	3.525812	-0.532012	-0.430089	-0.418280	0.597518
35697	-9.239652	0.407214	3.335017	-0.528561	-0.433160	-0.417936	0.598603
35698	-9.006162	0.524289	3.218514	-0.525360	-0.436048	-0.417780	0.599432
35699	-8.822584	0.486687	3.042187	-0.522425	-0.438685	-0.418088	0.599858
35700	-8.901947	0.499215	2.853918	-0.520086	-0.440838	-0.418797	0.599818
35701	-8.926078	0.150237	2.802329	-0.518337	-0.442632	-0.419721	0.599365
35702	-9.076370	0.004816	2.895422	-0.516468	-0.444764	-0.420213	0.599056
35703	-9.120601	-0.072745	2.913389	-0.514271	-0.447199	-0.420090	0.599218
35704	-9.130148	0.378104	2.785381	-0.511662	-0.449884	-0.419329	0.599974
35705	-9.099635	0.744492	2.696224	-0.509316	-0.452023	-0.419118	0.600510
35706	-9.237590	0.822640	2.846133	-0.507388	-0.453550	-0.419651	0.600619
35707	-9.513380	0.732877	2.966137	-0.506037	-0.454432	-0.421000	0.600148
35708	-9.752233	0.591375	2.994505	-0.505218	-0.454876	-0.422692	0.599311
35709	-9.813787	0.320659	3.026462	-0.504777	-0.455069	-0.424376	0.598345
35710	-9.773960	0.129595	2.857180	-0.504561	-0.455147	-0.425618	0.597585
35711	-9.982612	0.216809	2.582304	-0.504691	-0.454988	-0.426605	0.596893
35712	-10.159213	0.250190	2.426456	-0.505411	-0.454562	-0.427509	0.595961
35713	-10.302192	0.112075	2.320462	-0.506759	-0.453877	-0.428537	0.594598
35714	-10.345606	-0.142787	2.341587	-0.508583	-0.452850	-0.429541	0.593098
35715	-10.448486	-0.446455	2.395327	-0.510763	-0.451617	-0.430360	0.591569
35716	-10.424619	-0.712552	2.387005	-0.513087	-0.450421	-0.430816	0.590136
35717	-10.331074	-0.733084	2.363712	-0.515430	-0.449364	-0.430673	0.589003
35718	-10.121913	-0.660138	2.356970	-0.517694	-0.448577	-0.429895	0.588186
35719	-9.831213	-0.426425	2.357251	-0.519809	-0.447990	-0.428910	0.587486
35720	-9.640190	-0.261516	2.390055	-0.521811	-0.447429	-0.427873	0.586895
35721	-9.492081	-0.037383	2.586497	-0.523691	-0.446891	-0.426856	0.586370
35722	-9.441277	0.035054	2.793050	-0.525514	-0.446360	-0.426061	0.585722
35723	-9.432710	0.226908	2.985381	-0.527327	-0.445912	-0.425213	0.585049
35724	-9.338866	0.420885	3.022421	-0.529245	-0.445548	-0.424277	0.584273
35725	-9.146985	0.552673	2.862340	-0.531422	-0.445135	-0.423275	0.583339
35726	-8.950771	0.556936	2.646636	-0.534148	-0.444446	-0.422445	0.581974
35727	-8.932616	0.221060	2.614702	-0.537467	-0.443506	-0.421743	0.580142
35728	-9.140836	-0.126747	2.664294	-0.541135	-0.442642	-0.421051	0.577890
35729	-9.517235	-0.363206	2.697417	-0.544681	-0.442236	-0.419740	0.575820
35730	-9.613859	-0.374195	2.812684	-0.547662	-0.442633	-0.417665	0.574193
35731	-9.354183	0.136446	2.898732	-0.549878	-0.443589	-0.415207	0.573120
35732	-8.854623	0.394955	3.028280	-0.551766	-0.444410	-0.413157	0.572150
35733	-8.594600	0.542047	3.204179	-0.553845	-0.444679	-0.411883	0.570849
35734	-8.883355	0.512302	3.278910	-0.556374	-0.444390	-0.411617	0.568803
35735	-9.446415	0.342207	3.349584	-0.558985	-0.444088	-0.411565	0.566511
35736	-9.613944	0.259881	3.305317	-0.561134	-0.444365	-0.410734	0.564770
35737	-9.076439	0.836563	3.139062	-0.562720	-0.445060	-0.409336	0.563659
35738	-8.460456	1.238885	3.093416	-0.564316	-0.445368	-0.408496	0.562429
35739	-8.548019	1.036694	3.217794	-0.566532	-0.444801	-0.408820	0.560411
35740	-9.329551	0.545951	3.402280	-0.569219	-0.443861	-0.410085	0.557501
35741	-9.961653	0.338982	3.474470	-0.571779	-0.443257	-0.411094	0.554612
35742	-9.871349	0.234554	3.586062	-0.573672	-0.443333	-0.411208	0.552507
35743	-9.177128	0.656188	3.512617	-0.574997	-0.443736	-0.410845	0.551075
35744	-8.461512	0.693921	3.285561	-0.576418	-0.443448	-0.411413	0.549396
35745	-8.401472	0.447021	3.264370	-0.578172	-0.442465	-0.413234	0.546973
35746	-8.945830	0.061714	3.289759	-0.580035	-0.441418	-0.415558	0.544079
35747	-9.246452	0.063478	3.374492	-0.581513	-0.440918	-0.417363	0.541518
35748	-9.139409	0.109828	3.417502	-0.582067	-0.441283	-0.418208	0.539972
35749	-8.921798	0.581220	3.588211	-0.582117	-0.441747	-0.419065	0.538873
35750	-8.676281	0.661780	3.376555	-0.582306	-0.441638	-0.420714	0.537472
35751	-8.584002	0.475544	3.060373	-0.583041	-0.440724	-0.423519	0.535217
35752	-8.720737	-0.160787	3.029002	-0.584358	-0.438928	-0.427246	0.532286
35753	-8.875088	-0.834195	2.879610	-0.585337	-0.437273	-0.430663	0.529813
35754	-8.936884	-0.894567	2.732348	-0.585395	-0.436405	-0.433071	0.528501
35755	-8.941260	-0.319529	2.576235	-0.584907	-0.435949	-0.434687	0.528090
35756	-8.992639	0.126951	2.255769	-0.584559	-0.435189	-0.436463	0.527637
35757	-9.379225	0.112246	1.998506	-0.584676	-0.433711	-0.438791	0.526793
35758	-9.990186	-0.083773	1.845607	-0.585060	-0.431785	-0.441158	0.525972
35759	-10.450977	-0.175145	1.815096	-0.585470	-0.429716	-0.443199	0.525494
35760	-10.579116	-0.167021	1.719388	-0.585567	-0.427735	-0.444863	0.525596
35761	-10.522627	-0.046290	1.555761	-0.585367	-0.425727	-0.446252	0.526271
35762	-10.331262	-0.002815	1.355988	-0.585039	-0.423525	-0.447667	0.527210
35763	-10.081418	-0.134465	1.240252	-0.584654	-0.421107	-0.449112	0.528344
35764	-9.918581	-0.334733	1.225686	-0.584011	-0.418907	-0.450307	0.529785
35765	-9.862605	-0.332394	1.335242	-0.582901	-0.417268	-0.450804	0.531874
35766	-9.982029	-0.016060	1.520392	-0.581192	-0.416336	-0.450494	0.534729
35767	-10.078310	0.389283	1.742588	-0.579288	-0.415554	-0.449991	0.537819
35768	-10.160134	0.804531	1.870178	-0.577383	-0.414737	-0.449585	0.540828
35769	-10.176164	1.038281	1.887393	-0.576027	-0.413265	-0.450037	0.543021
35770	-10.188287	0.982792	1.961754	-0.575322	-0.411315	-0.451399	0.544117
35771	-10.123415	0.334372	2.012603	-0.575341	-0.408924	-0.453648	0.544029
35772	-10.035309	-0.456696	2.073256	-0.575681	-0.406834	-0.455794	0.543443
35773	-9.789425	-0.869341	2.114846	-0.575825	-0.405593	-0.457172	0.543059
35774	-9.461769	-0.795358	2.118453	-0.575575	-0.405162	-0.457707	0.543196
35775	-9.120800	-0.764273	2.082353	-0.575283	-0.404838	-0.458235	0.543301
35776	-8.977292	-0.896821	2.023017	-0.574996	-0.404729	-0.458503	0.543461
35777	-9.048568	-0.622106	2.121238	-0.574589	-0.404989	-0.458538	0.543667
35778	-9.239646	-0.429903	2.281149	-0.574082	-0.405567	-0.458404	0.543885
35779	-9.295356	-0.269977	2.626086	-0.573342	-0.406756	-0.457776	0.544307
35780	-9.173016	0.013053	2.925251	-0.572514	-0.408365	-0.456814	0.544781
35781	-8.896171	0.224666	3.013390	-0.571755	-0.410226	-0.455666	0.545141
35782	-8.696740	0.590177	3.015353	-0.571224	-0.412049	-0.454721	0.545112
35783	-8.556479	0.768025	2.991678	-0.571058	-0.413757	-0.454095	0.544514
35784	-8.464966	0.666117	3.114645	-0.571489	-0.414921	-0.454055	0.543209
35785	-8.421054	0.270764	3.218915	-0.572525	-0.415468	-0.454579	0.541257
35786	-8.321456	-0.188406	3.279128	-0.573959	-0.415740	-0.455280	0.538935
35787	-8.280393	-0.398508	3.132084	-0.575429	-0.416309	-0.455697	0.536571
35788	-8.293384	-0.489080	3.060639	-0.577018	-0.417052	-0.456001	0.534023
35789	-8.405903	-0.680366	3.136536	-0.578688	-0.417941	-0.456325	0.531238
35790	-8.558622	-0.812368	3.307486	-0.580383	-0.418999	-0.456718	0.528208
35791	-8.957338	-0.908133	3.399756	-0.582049	-0.420265	-0.457196	0.524946
35792	-9.375374	-0.939544	3.368056	-0.583631	-0.421607	-0.457742	0.521627
35793	-9.619097	-0.991287	3.320153	-0.584984	-0.423051	-0.458291	0.518450
35794	-9.711673	-0.900133	3.270126	-0.585944	-0.424679	-0.458694	0.515671
35795	-9.848459	-0.381179	3.173236	-0.586627	-0.426315	-0.458875	0.513379
35796	-10.223137	0.199069	3.026613	-0.587574	-0.427415	-0.459173	0.511111
35797	-10.833335	0.282300	2.951640	-0.588812	-0.428072	-0.459491	0.508845
35798	-11.618947	0.594605	2.799726	-0.590072	-0.428679	-0.459692	0.506688
35799	-12.036978	1.042504	2.620634	-0.591627	-0.428990	-0.460056	0.504276
35800	-11.641135	1.450767	2.560353	-0.593206	-0.429078	-0.460842	0.501620
35801	-10.718717	1.779001	2.452192	-0.594660	-0.428711	-0.462758	0.498439
35802	-9.858953	2.000293	2.274735	-0.596213	-0.427511	-0.465986	0.494593
35803	-9.443811	2.134397	1.968533	-0.598476	-0.424947	-0.470393	0.489874
35804	-9.477473	1.894417	1.472206	-0.602071	-0.420540	-0.475782	0.484033
35805	-9.770932	1.483297	0.996947	-0.607010	-0.414545	-0.481527	0.477308
35806	-10.041365	0.818128	0.684501	-0.612508	-0.408152	-0.486695	0.470504
35807	-10.224470	0.395798	0.532698	-0.617611	-0.402511	-0.490758	0.464433
35808	-10.149082	0.074558	0.646446	-0.621305	-0.398793	-0.493061	0.460256
35809	-9.918360	0.513315	0.683132	-0.623397	-0.397115	-0.493682	0.458207
35810	-9.503279	1.173237	0.645102	-0.625022	-0.395743	-0.493998	0.456838
35811	-9.164203	1.389665	0.687048	-0.626695	-0.393898	-0.495008	0.455044
35812	-9.068239	1.458564	0.743650	-0.628714	-0.391195	-0.497068	0.452336
35813	-9.225255	1.211463	0.800557	-0.631183	-0.387643	-0.499874	0.448850
35814	-9.408696	0.842796	0.798847	-0.633844	-0.383812	-0.502887	0.445011
35815	-9.669987	0.513469	0.723941	-0.636475	-0.380136	-0.505717	0.441188
35816	-9.762826	0.256820	0.683469	-0.638796	-0.377218	-0.508001	0.437700
35817	-9.595096	0.030418	0.756595	-0.640584	-0.375336	-0.509625	0.434808
35818	-9.340412	0.049358	0.731911	-0.641737	-0.374450	-0.510642	0.432674
35819	-9.194393	0.346842	0.730387	-0.642485	-0.374123	-0.511399	0.430948
35820	-9.034057	0.536483	0.737411	-0.643277	-0.373584	-0.512392	0.429049
35821	-8.887804	0.329866	0.779767	-0.644316	-0.372562	-0.513773	0.426722
35822	-8.843917	-0.090833	0.882671	-0.645322	-0.371532	-0.514983	0.424635
35823	-8.857316	-0.048366	0.880258	-0.645883	-0.371190	-0.515484	0.423473
35824	-8.894817	0.310302	0.907945	-0.645930	-0.371601	-0.515419	0.423119
35825	-9.028600	0.683262	0.902999	-0.645494	-0.372568	-0.515203	0.423199
35826	-9.278179	1.049823	0.938133	-0.644856	-0.373778	-0.515110	0.423218
35827	-9.502616	1.126388	0.915877	-0.644494	-0.374668	-0.515414	0.422610
35828	-9.745299	0.915978	0.995111	-0.644478	-0.375259	-0.516026	0.421362
35829	-9.921146	0.633951	1.134695	-0.644605	-0.375894	-0.516640	0.419847
35830	-9.997996	0.371222	1.290418	-0.644540	-0.377010	-0.516987	0.418518
35831	-9.956103	0.270123	1.386210	-0.644065	-0.378805	-0.516889	0.417748
35832	-9.876258	0.456627	1.358070	-0.643138	-0.381074	-0.516592	0.417479
35833	-9.835500	0.745302	1.453857	-0.641847	-0.383486	-0.516378	0.417522
35834	-9.796450	0.917733	1.670811	-0.640440	-0.385621	-0.516429	0.417653
35835	-9.727839	1.076932	1.881559	-0.639048	-0.387300	-0.516868	0.417689
35836	-9.687065	1.192952	2.064430	-0.637919	-0.388325	-0.517801	0.417306
35837	-9.644184	1.167988	2.094903	-0.637372	-0.388472	-0.519237	0.416220
35838	-9.704361	0.765917	1.983218	-0.637616	-0.387747	-0.521058	0.414242
35839	-10.050441	0.336198	1.738933	-0.638343	-0.386751	-0.522735	0.411934
35840	-10.629577	0.392173	1.564002	-0.638920	-0.386325	-0.523895	0.409962
35841	-11.095206	0.673956	1.569855	-0.639145	-0.386671	-0.524437	0.408589
35842	-11.148957	0.737453	1.479887	-0.639203	-0.387251	-0.524866	0.407397
35843	-10.898594	0.587248	1.343128	-0.639332	-0.387501	-0.525618	0.405985
35844	-10.610461	0.260095	1.360443	-0.639687	-0.387303	-0.526645	0.404280
35845	-10.195224	-0.074930	1.562337	-0.639829	-0.387415	-0.527338	0.403043
35846	-9.941999	0.075695	1.776272	-0.639370	-0.388265	-0.527370	0.402911
35847	-9.804965	0.518958	1.716088	-0.638492	-0.389527	-0.526842	0.403775
35848	-9.779226	0.930054	1.439092	-0.637924	-0.390396	-0.526176	0.404701
35849	-9.620573	0.889395	1.188153	-0.638058	-0.390603	-0.525667	0.404951
35850	-9.358316	0.582388	1.170221	-0.638535	-0.390686	-0.525076	0.404886
35851	-9.064044	0.418023	1.380133	-0.638772	-0.390993	-0.524332	0.405179
35852	-9.044969	0.382388	1.452379	-0.638653	-0.391570	-0.523306	0.406135
35853	-9.438234	0.449752	1.252538	-0.638522	-0.392216	-0.521980	0.407423
35854	-9.716141	0.441539	0.985483	-0.638700	-0.392808	-0.520357	0.408648
35855	-9.736167	0.493343	1.015281	-0.638799	-0.393654	-0.518485	0.410055
35856	-9.442300	0.564518	1.241509	-0.638359	-0.394803	-0.516477	0.412165
35857	-9.065589	0.602327	1.357727	-0.637044	-0.396361	-0.514411	0.415275
35858	-9.238752	0.960788	1.321539	-0.635120	-0.398231	-0.512159	0.419199
35859	-9.512757	1.366519	1.032979	-0.633480	-0.399607	-0.510202	0.422743
35860	-9.548361	1.268065	0.976505	-0.632367	-0.400364	-0.508574	0.425644
35861	-9.026646	1.091660	1.189546	-0.631121	-0.400982	-0.507250	0.428482
35862	-8.597980	0.638872	1.216740	-0.629360	-0.401657	-0.506276	0.431582
35863	-8.884993	0.671818	0.930203	-0.627258	-0.402562	-0.505146	0.435107
35864	-9.435851	0.962236	0.497823	-0.625887	-0.402823	-0.504085	0.438061
35865	-10.027406	0.864617	0.301545	-0.625097	-0.402880	-0.503198	0.440151
35866	-10.326779	0.918751	0.665007	-0.624001	-0.403550	-0.502086	0.442356
35867	-9.804317	0.615507	1.091808	-0.622109	-0.404775	-0.500996	0.445130
35868	-9.080935	0.262273	1.089264	-0.618923	-0.407214	-0.499324	0.449207
35869	-9.063351	0.993211	0.896891	-0.615227	-0.410145	-0.497405	0.453723
35870	-9.206963	1.701340	0.548386	-0.612668	-0.412000	-0.496149	0.456871
35871	-9.483184	1.397069	0.448717	-0.611402	-0.412470	-0.495999	0.458303
35872	-9.750487	0.916728	0.679691	-0.610264	-0.412923	-0.495477	0.459973
35873	-9.791049	0.794891	0.938514	-0.608495	-0.414110	-0.494176	0.462641
35874	-9.769960	1.077016	1.070155	-0.605943	-0.416203	-0.492349	0.466048
35875	-9.930478	1.455259	1.040268	-0.603456	-0.418357	-0.490540	0.469243
35876	-9.941842	1.654724	0.871638	-0.601793	-0.419922	-0.489131	0.471446
35877	-9.898639	1.408386	0.917351	-0.600803	-0.420974	-0.488052	0.472887
35878	-9.809950	1.311041	1.166966	-0.599853	-0.421875	-0.486890	0.474485
35879	-9.520190	1.098628	1.372188	-0.598316	-0.422958	-0.485480	0.476900
35880	-9.184419	1.472596	1.419235	-0.596357	-0.423887	-0.484190	0.479831
35881	-8.942850	1.612291	1.345374	-0.594635	-0.424071	-0.483557	0.482437
35882	-9.057094	1.772996	1.181235	-0.593866	-0.423180	-0.483655	0.484065
35883	-9.419162	1.582271	0.960444	-0.594493	-0.421076	-0.484465	0.484321
35884	-10.176825	1.342265	0.706371	-0.596302	-0.418384	-0.485329	0.483565
35885	-10.759043	0.888012	0.537665	-0.598911	-0.415544	-0.485700	0.482414
35886	-10.908606	0.376535	0.673864	-0.601494	-0.413168	-0.485112	0.481834
35887	-10.658385	-0.054389	0.933237	-0.603539	-0.411654	-0.483544	0.482149
35888	-10.161225	-0.250010	1.140119	-0.604622	-0.411425	-0.481085	0.483445
35889	-9.888505	0.094385	1.304110	-0.604645	-0.412133	-0.478073	0.485795
35890	-9.952703	0.482672	1.341623	-0.604497	-0.412805	-0.475062	0.488356
35891	-10.095198	0.587991	1.526077	-0.604509	-0.413144	-0.472331	0.490697
35892	-10.247083	0.783516	1.833037	-0.604715	-0.412992	-0.470036	0.492772
35893	-10.374815	0.875721	2.145485	-0.605028	-0.412568	-0.468133	0.494551
35894	-10.266556	0.734758	2.342832	-0.605358	-0.412073	-0.466586	0.496020
35895	-10.009834	0.770673	2.406434	-0.605623	-0.411417	-0.465421	0.497333
35896	-10.071254	0.728817	2.391879	-0.606266	-0.410425	-0.464713	0.498031
35897	-10.578611	0.554770	2.453756	-0.607105	-0.409653	-0.464123	0.498194
35898	-11.348267	0.650810	2.707361	-0.608043	-0.409349	-0.463425	0.497950
35899	-11.330448	0.363384	3.019753	-0.608975	-0.409417	-0.462772	0.497363
35900	-10.465388	-0.149669	3.325690	-0.609569	-0.409745	-0.462262	0.496839
35901	-9.437221	-0.376824	3.359968	-0.609826	-0.410323	-0.461700	0.496569
35902	-8.746309	-0.185354	3.082192	-0.610243	-0.410508	-0.461469	0.496118
35903	-8.617851	-0.074016	2.882601	-0.611423	-0.409597	-0.461972	0.494949
35904	-8.973074	-0.460806	2.764460	-0.613243	-0.407772	-0.462967	0.493272
35905	-9.459341	-0.570952	2.924442	-0.615104	-0.405920	-0.463537	0.491945
35906	-9.871282	-0.648193	3.263891	-0.616647	-0.404391	-0.463734	0.491086
35907	-10.058169	-0.531461	3.504915	-0.617641	-0.403679	-0.463144	0.490980
35908	-9.896611	-0.449335	3.540723	-0.618421	-0.403286	-0.462096	0.491308
35909	-9.588570	-0.384358	3.400372	-0.618877	-0.403229	-0.460695	0.492096
35910	-9.259742	-0.315775	3.432558	-0.619110	-0.403300	-0.459074	0.493257
35911	-8.997236	-0.181730	3.534860	-0.619320	-0.403185	-0.457387	0.494654
35912	-8.694195	0.085010	3.792687	-0.619408	-0.403080	-0.455434	0.496427
35913	-8.590175	0.407003	3.973028	-0.619473	-0.402778	-0.453427	0.498425
35914	-8.581153	0.631799	3.976533	-0.619586	-0.402124	-0.451373	0.500671
35915	-8.575532	0.811614	3.937516	-0.619687	-0.401198	-0.449367	0.503089
35916	-8.546518	0.958098	3.817377	-0.619924	-0.399873	-0.447612	0.505410
35917	-8.496385	0.972364	3.701904	-0.620326	-0.398223	-0.446151	0.507507
35918	-8.564057	0.966776	3.602647	-0.620928	-0.396320	-0.444965	0.509298
35919	-8.701290	0.816879	3.422680	-0.621665	-0.394375	-0.443933	0.510808
35920	-8.949603	0.637003	3.271241	-0.622615	-0.392623	-0.442675	0.512090
35921	-9.109251	0.523142	3.105086	-0.623639	-0.391269	-0.440992	0.513331
35922	-9.217041	0.487644	3.097731	-0.624725	-0.390264	-0.438946	0.514528
35923	-9.317382	0.359715	3.063249	-0.625820	-0.389535	-0.436835	0.515546
35924	-9.293730	0.168327	3.136427	-0.626931	-0.388955	-0.434870	0.516295
35925	-9.267550	-0.064866	3.254410	-0.627963	-0.388668	-0.432926	0.516889
35926	-9.104673	-0.162555	3.295594	-0.628956	-0.388636	-0.430823	0.517463
35927	-8.921289	-0.120536	3.210002	-0.629961	-0.388787	-0.428607	0.517967
35928	-8.821254	-0.234092	3.117898	-0.631010	-0.388899	-0.426375	0.518448
35929	-8.792263	-0.346036	3.072490	-0.631896	-0.389147	-0.424162	0.518998
35930	-8.880191	-0.228332	3.082960	-0.632402	-0.389839	-0.421754	0.519824
35931	-8.981733	-0.096921	3.205781	-0.632651	-0.390899	-0.419089	0.520879
35932	-8.818382	0.088914	3.189294	-0.632762	-0.392136	-0.416250	0.522090
35933	-8.698268	0.236296	3.216856	-0.632667	-0.393471	-0.413494	0.523389
35934	-8.621907	0.505392	3.304821	-0.632452	-0.394856	-0.410734	0.524778
35935	-8.665597	0.805342	3.382847	-0.632203	-0.396370	-0.408021	0.526051
35936	-8.708060	0.972438	3.400607	-0.632110	-0.397745	-0.405579	0.527012
35937	-8.812576	0.967991	3.440012	-0.632063	-0.399144	-0.403304	0.527756
35938	-8.889693	0.980830	3.510809	-0.632008	-0.400448	-0.401149	0.528476
35939	-8.928942	0.994445	3.520189	-0.631873	-0.401781	-0.399066	0.529202
35940	-8.924557	0.940387	3.497631	-0.631732	-0.403076	-0.397232	0.529765
35941	-8.980113	0.848448	3.449716	-0.631625	-0.404256	-0.395713	0.530131
35942	-9.075748	0.804129	3.440120	-0.631434	-0.405448	-0.394298	0.530502
35943	-9.084541	0.836886	3.442626	-0.631149	-0.406675	-0.392887	0.530948
35944	-9.082726	0.911021	3.443800	-0.630748	-0.407943	-0.391532	0.531453
35945	-9.047727	1.010575	3.484641	-0.630257	-0.409261	-0.390290	0.531936
35946	-9.059387	1.064962	3.479896	-0.629825	-0.410497	-0.389327	0.532201
35947	-9.106441	1.040572	3.473438	-0.629444	-0.411604	-0.388560	0.532356
35948	-9.117796	0.939081	3.489829	-0.629001	-0.412683	-0.387905	0.532522
35949	-9.165031	0.908599	3.440128	-0.628471	-0.413683	-0.387411	0.532732
35950	-9.227851	0.960001	3.427712	-0.627890	-0.414599	-0.387092	0.532937
35951	-9.287091	1.117634	3.399556	-0.627332	-0.415375	-0.387067	0.533007
35952	-9.272662	1.220049	3.310860	-0.626819	-0.415985	-0.387363	0.532920
35953	-9.157052	1.235900	3.236275	-0.626547	-0.416276	-0.388258	0.532362
35954	-9.059634	1.008204	3.082087	-0.626367	-0.416385	-0.389622	0.531492
35955	-9.020570	0.743341	2.879729	-0.625874	-0.416835	-0.391012	0.530697
35956	-9.090701	0.716966	2.732304	-0.625017	-0.417727	-0.392273	0.530076
35957	-9.051230	0.502810	2.726705	-0.623895	-0.418848	-0.393486	0.529613
35958	-9.117563	0.523844	2.695200	-0.622311	-0.420491	-0.394425	0.529476
35959	-9.155843	0.613470	2.647900	-0.620356	-0.422491	-0.395339	0.529497
35960	-9.160774	0.690644	2.712476	-0.618199	-0.424659	-0.396292	0.529573
35961	-9.099826	0.722768	2.676288	-0.615932	-0.426899	-0.397325	0.529639
35962	-9.064443	0.769953	2.633748	-0.613384	-0.429341	-0.398525	0.529721
35963	-9.196224	0.900920	2.672320	-0.610640	-0.431950	-0.399814	0.529799
35964	-9.336613	1.036746	2.642496	-0.607735	-0.434701	-0.400960	0.530024
35965	-9.349357	1.137589	2.665952	-0.604758	-0.437550	-0.401939	0.530343
35966	-9.414282	1.224433	2.726074	-0.601712	-0.440497	-0.402787	0.530724
35967	-9.549237	1.321611	2.808694	-0.598685	-0.443460	-0.403479	0.531154
35968	-9.670732	1.350123	2.846459	-0.595817	-0.446287	-0.404032	0.531590
35969	-9.784637	1.387820	2.877316	-0.593189	-0.448880	-0.404507	0.531984
35970	-9.882007	1.366316	3.002973	-0.590803	-0.451186	-0.404977	0.532331
35971	-9.844073	1.245118	3.108788	-0.588634	-0.453165	-0.405333	0.532782
35972	-9.729798	1.233570	3.024345	-0.586613	-0.454806	-0.405573	0.533429
35973	-9.681619	1.211441	2.918313	-0.584773	-0.455969	-0.405937	0.534180
35974	-9.682501	1.180047	2.886678	-0.583130	-0.456721	-0.406293	0.535061
35975	-9.806798	1.176612	2.884081	-0.581673	-0.457180	-0.406497	0.536100
35976	-9.906264	1.009106	2.890374	-0.580453	-0.457164	-0.406467	0.537457
35977	-9.922937	0.446075	2.962150	-0.579118	-0.456878	-0.406049	0.539452
35978	-9.913614	-0.002175	2.987205	-0.577253	-0.456429	-0.405027	0.542591
35979	-9.825088	-0.662324	3.033512	-0.574635	-0.455716	-0.403359	0.547192
35980	-9.828844	-0.990764	3.101196	-0.570717	-0.455301	-0.400849	0.553447
35981	-9.852894	-0.340114	2.764864	-0.566179	-0.454584	-0.398467	0.560374
35982	-9.875578	0.470693	2.838506	-0.562161	-0.452583	-0.396861	0.567137
35983	-9.883241	0.603196	3.155178	-0.558693	-0.449531	-0.395906	0.573623
35984	-9.894878	0.541614	3.345279	-0.555436	-0.445860	-0.395346	0.580000
35985	-9.871031	0.840343	3.386497	-0.552320	-0.441584	-0.394538	0.586759
35986	-9.576389	1.289266	3.124731	-0.549714	-0.436637	-0.393710	0.593426
35987	-9.148722	1.868598	2.789672	-0.547785	-0.431201	-0.393799	0.599099
35988	-9.109834	1.990733	2.599827	-0.547021	-0.425229	-0.395539	0.602908
35989	-8.743126	1.554007	2.505341	-0.547369	-0.418672	-0.398204	0.605420
35990	-8.515099	1.047764	2.481087	-0.548381	-0.412356	-0.401367	0.606750
35991	-8.476314	0.099214	2.301887	-0.549125	-0.407183	-0.403900	0.607889
35992	-8.440301	-0.346239	2.414630	-0.549344	-0.403326	-0.406009	0.608856
35993	-8.690520	-0.523795	2.782244	-0.548712	-0.400715	-0.406979	0.610500
35994	-9.163584	-1.002234	3.542367	-0.547616	-0.399030	-0.406341	0.613008
