// Start Time: Unknown
// Update Rate: 60.0Hz
// Filter Profile: human (46.1)
// Option Flags: AHS Disabled ICC Disabled 
// Firmware Version: 4.3.5
PacketCounter	Acc_X	Acc_Y	Acc_Z	Quat_q0	Quat_q1	Quat_q2	Quat_q3
39183	-9.596943	0.195227	-1.676153	-0.641694	-0.038132	-0.765775	0.019063
39184	-9.598554	0.180520	-1.771173	-0.641674	-0.037919	-0.765806	0.018924
39185	-9.521573	0.158824	-1.760468	-0.641661	-0.037889	-0.765819	0.018920
39186	-9.538361	0.176853	-1.714315	-0.641636	-0.037821	-0.765845	0.018825
39187	-9.571593	0.171918	-1.673810	-0.641607	-0.037804	-0.765872	0.018737
39188	-9.509108	0.189031	-1.702005	-0.641492	-0.037782	-0.765972	0.018617
39189	-9.595908	0.223525	-1.748172	-0.641284	-0.037784	-0.766149	0.018502
39190	-9.601863	0.268292	-1.924142	-0.641213	-0.037756	-0.766214	0.018354
39191	-9.579845	0.328534	-1.780002	-0.641116	-0.037977	-0.766281	0.018454
39192	-9.539722	0.326365	-1.738453	-0.641008	-0.038162	-0.766359	0.018585
39193	-9.544926	0.328892	-1.817234	-0.640899	-0.038291	-0.766444	0.018625
39194	-9.554775	0.345681	-1.863668	-0.640766	-0.038288	-0.766556	0.018553
39195	-9.613446	0.392495	-1.890690	-0.640645	-0.038198	-0.766667	0.018348
39196	-9.549674	0.371877	-1.836850	-0.640613	-0.038190	-0.766696	0.018257
39197	-9.568831	0.278332	-1.770199	-0.640549	-0.038229	-0.766748	0.018236
39198	-9.584242	0.305904	-1.768159	-0.640486	-0.038304	-0.766797	0.018253
39199	-9.578992	0.339963	-1.778225	-0.640488	-0.038291	-0.766796	0.018221
39200	-9.536909	0.352745	-1.806465	-0.640425	-0.038192	-0.766858	0.018073
39201	-9.549363	0.354292	-1.780025	-0.640346	-0.038129	-0.766929	0.017989
39202	-9.560479	0.259725	-1.968564	-0.640278	-0.037908	-0.767002	0.017763
39203	-9.492319	0.277427	-1.785889	-0.640231	-0.037885	-0.767043	0.017719
39204	-9.573056	0.218018	-1.685223	-0.640110	-0.037881	-0.767146	0.017652
39205	-9.583358	0.231705	-1.717176	-0.640003	-0.037892	-0.767236	0.017616
39206	-9.569552	0.277813	-1.726384	-0.639888	-0.037883	-0.767333	0.017542
39207	-9.574989	0.232962	-1.681342	-0.639710	-0.037906	-0.767480	0.017586
39208	-9.548317	0.273358	-1.707475	-0.639556	-0.037965	-0.767605	0.017570
39209	-9.563901	0.298057	-1.693606	-0.639390	-0.037977	-0.767744	0.017508
39210	-9.583221	0.335250	-1.797439	-0.639216	-0.037993	-0.767890	0.017434
39211	-9.622391	0.330831	-1.819789	-0.639144	-0.037970	-0.767954	0.017337
39212	-9.575836	0.334299	-1.745184	-0.639118	-0.037937	-0.767977	0.017313
39213	-9.557570	0.273343	-1.700242	-0.639041	-0.037903	-0.768045	0.017237
39214	-9.565924	0.247582	-1.799453	-0.638973	-0.037830	-0.768108	0.017104
39215	-9.541600	0.269305	-1.886631	-0.638958	-0.037800	-0.768124	0.017011
39216	-9.552153	0.242294	-1.820613	-0.638895	-0.037873	-0.768173	0.016990
39217	-9.570888	0.203757	-1.757611	-0.638864	-0.037909	-0.768199	0.016914
39218	-9.548762	0.213679	-1.788005	-0.638772	-0.037856	-0.768281	0.016790
39219	-9.552067	0.323430	-1.858853	-0.638694	-0.037780	-0.768353	0.016626
39220	-9.571002	0.322768	-1.878803	-0.638597	-0.037609	-0.768446	0.016410
39221	-9.542991	0.331714	-1.849502	-0.638534	-0.037591	-0.768501	0.016368
39222	-9.550073	0.322389	-1.869251	-0.638532	-0.037534	-0.768507	0.016260
39223	-9.592162	0.306143	-1.831554	-0.638520	-0.037426	-0.768527	0.016031
39224	-9.536595	0.318022	-1.888316	-0.638549	-0.037232	-0.768518	0.015800
39225	-9.529052	0.375030	-1.847775	-0.638503	-0.037079	-0.768567	0.015636
39226	-9.538208	0.343191	-1.918589	-0.638390	-0.036894	-0.768673	0.015428
39227	-9.502402	0.350777	-1.979455	-0.638317	-0.036754	-0.768744	0.015241
39228	-9.509403	0.352396	-1.893378	-0.638225	-0.036625	-0.768832	0.015022
39229	-9.576185	0.297627	-1.852769	-0.638104	-0.036461	-0.768944	0.014773
39230	-9.591966	0.261232	-1.955542	-0.638049	-0.036304	-0.769002	0.014534
39231	-9.581553	0.292625	-1.891821	-0.637979	-0.036206	-0.769068	0.014367
39232	-9.554985	0.385510	-1.903570	-0.637950	-0.036209	-0.769093	0.014340
39233	-9.501056	0.439112	-1.906177	-0.637983	-0.036025	-0.769077	0.014125
39234	-9.476807	0.320317	-1.932178	-0.638001	-0.035700	-0.769086	0.013697
39235	-9.501140	0.183291	-1.965460	-0.637991	-0.035382	-0.769116	0.013244
39236	-9.484835	0.153860	-1.960373	-0.637855	-0.035183	-0.769245	0.012896
39237	-9.506231	0.190921	-1.900786	-0.637569	-0.035071	-0.769492	0.012575
39238	-9.446693	0.330353	-1.890776	-0.637351	-0.035001	-0.769681	0.012279
39239	-9.542665	0.358802	-1.806828	-0.637143	-0.034861	-0.769865	0.011875
39240	-9.647860	0.378965	-1.953189	-0.636712	-0.034682	-0.770235	0.011555
39241	-9.595900	0.543721	-2.028176	-0.636564	-0.034642	-0.770360	0.011468
39242	-9.512171	0.518582	-1.734641	-0.636391	-0.034441	-0.770516	0.011160
39243	-9.553788	0.502635	-1.702114	-0.636174	-0.034052	-0.770720	0.010647
39244	-9.516182	0.463346	-1.791903	-0.635911	-0.033483	-0.770969	0.010095
39245	-9.524594	0.377855	-1.864937	-0.635655	-0.032929	-0.771211	0.009567
39246	-9.605670	0.165590	-1.821010	-0.635375	-0.032383	-0.771471	0.009044
39247	-9.549476	0.149839	-1.710521	-0.635048	-0.032027	-0.771759	0.008713
39248	-9.528988	0.233869	-1.745377	-0.634692	-0.031691	-0.772069	0.008378
39249	-9.581960	0.297075	-1.850506	-0.634291	-0.031431	-0.772413	0.008041
39250	-9.631582	0.267357	-2.024279	-0.633778	-0.031249	-0.772844	0.007836
39251	-9.640780	0.307590	-1.893717	-0.633315	-0.031208	-0.773225	0.007819
39252	-9.582916	0.348916	-1.803201	-0.632851	-0.031280	-0.773602	0.007848
39253	-9.592706	0.373930	-1.945602	-0.632483	-0.031317	-0.773901	0.007850
39254	-9.552618	0.424808	-2.104716	-0.632352	-0.031250	-0.774012	0.007779
39255	-9.597359	0.381693	-2.105587	-0.632370	-0.031061	-0.774007	0.007581
39256	-9.583673	0.310121	-2.014664	-0.632578	-0.030872	-0.773846	0.007415
39257	-9.477459	0.175470	-1.989418	-0.632865	-0.030739	-0.773617	0.007298
39258	-9.398590	0.185735	-2.157220	-0.633150	-0.030597	-0.773390	0.007236
39259	-9.404758	0.288215	-2.187747	-0.633468	-0.030607	-0.773128	0.007323
39260	-9.474582	0.420939	-2.170363	-0.633728	-0.030667	-0.772912	0.007405
39261	-9.483850	0.458615	-2.157608	-0.633941	-0.030800	-0.772731	0.007596
39262	-9.449111	0.410674	-2.209219	-0.634037	-0.030873	-0.772648	0.007713
39263	-9.445072	0.389179	-2.213479	-0.634088	-0.030908	-0.772604	0.007751
39264	-9.454088	0.442200	-2.323186	-0.634074	-0.030860	-0.772618	0.007724
39265	-9.467267	0.493800	-2.088447	-0.634000	-0.030954	-0.772673	0.007834
39266	-9.515880	0.469315	-2.086042	-0.633864	-0.031149	-0.772775	0.008033
39267	-9.523022	0.437473	-1.962761	-0.633741	-0.031355	-0.772865	0.008270
39268	-9.511821	0.490434	-1.863363	-0.633647	-0.031520	-0.772934	0.008487
39269	-9.403704	0.512246	-1.824607	-0.633576	-0.031615	-0.772986	0.008632
39270	-9.506208	0.466223	-1.876180	-0.633406	-0.031622	-0.773125	0.008676
39271	-9.572070	0.429144	-1.985690	-0.633172	-0.031696	-0.773312	0.008774
39272	-9.476984	0.415934	-2.052292	-0.632748	-0.031742	-0.773656	0.008815
39273	-9.392019	0.431817	-2.072048	-0.632132	-0.031850	-0.774153	0.009026
39274	-9.280151	0.474346	-1.996526	-0.631417	-0.032119	-0.774721	0.009373
39275	-9.601798	0.450695	-2.194819	-0.630624	-0.032364	-0.775353	0.009637
39276	-9.716589	0.522995	-2.132300	-0.629849	-0.032609	-0.775968	0.009983
39277	-9.552923	0.699697	-2.085536	-0.629061	-0.032744	-0.776597	0.010376
39278	-9.487831	0.789315	-1.883622	-0.628357	-0.032804	-0.777158	0.010821
39279	-9.341492	0.717176	-1.756281	-0.627572	-0.032785	-0.777788	0.011190
39280	-9.470258	0.453233	-1.770935	-0.626701	-0.032519	-0.778499	0.011266
39281	-9.581813	0.319000	-2.028642	-0.625780	-0.032116	-0.779258	0.011172
39282	-9.606033	0.355851	-2.137188	-0.624778	-0.031825	-0.780072	0.011274
39283	-9.662908	0.377076	-2.056403	-0.623822	-0.031778	-0.780832	0.011697
39284	-9.752197	0.425478	-1.941049	-0.622905	-0.031939	-0.781546	0.012463
39285	-9.568289	0.514365	-1.790252	-0.622009	-0.032304	-0.782224	0.013642
39286	-9.592721	0.566880	-1.862025	-0.621109	-0.032575	-0.782906	0.014861
39287	-9.690570	0.587258	-1.976893	-0.620290	-0.032851	-0.783515	0.016252
39288	-9.506989	0.580221	-2.085384	-0.619322	-0.033083	-0.784238	0.017816
39289	-9.468791	0.556256	-2.122956	-0.618313	-0.033275	-0.784988	0.019397
39290	-9.611095	0.464660	-2.147445	-0.617352	-0.033468	-0.785691	0.021135
39291	-9.825953	0.359170	-2.028993	-0.616540	-0.033872	-0.786249	0.023324
39292	-9.964576	0.454492	-1.855499	-0.616029	-0.034434	-0.786545	0.025869
39293	-9.687253	0.612582	-1.846298	-0.615586	-0.034953	-0.786776	0.028573
39294	-9.370258	0.670245	-1.820549	-0.615273	-0.035496	-0.786891	0.031337
39295	-9.213519	0.395354	-2.308649	-0.614868	-0.035979	-0.787077	0.033948
39296	-8.983781	0.089986	-2.720346	-0.614207	-0.036746	-0.787430	0.036782
39297	-8.876343	-0.092350	-2.769358	-0.612957	-0.038123	-0.788165	0.040318
39298	-8.940865	-0.090069	-2.874695	-0.611221	-0.039981	-0.789208	0.044284
39299	-9.244908	0.275178	-2.885543	-0.609128	-0.041773	-0.790505	0.048169
39300	-9.434077	0.773420	-2.891831	-0.606895	-0.043349	-0.791892	0.052020
39301	-9.199415	1.109817	-2.701135	-0.604531	-0.044670	-0.793362	0.055885
39302	-9.299102	0.663236	-2.529486	-0.602233	-0.045340	-0.794834	0.059140
39303	-9.457670	0.193659	-2.793371	-0.600194	-0.045385	-0.796181	0.061671
39304	-9.556639	0.138249	-3.059584	-0.598604	-0.045246	-0.797185	0.064208
39305	-9.416708	0.249662	-2.651619	-0.597184	-0.045034	-0.798034	0.066973
39306	-9.280483	-0.075052	-2.680195	-0.595966	-0.044393	-0.798780	0.069310
39307	-8.877503	-0.517936	-3.081341	-0.594841	-0.043451	-0.799494	0.071312
39308	-8.713260	-1.544358	-3.271981	-0.593428	-0.043240	-0.800325	0.073839
39309	-9.190421	-2.426336	-3.357537	-0.591883	-0.044149	-0.801103	0.077198
39310	-9.345320	-2.638280	-3.367684	-0.590359	-0.046040	-0.801692	0.081524
39311	-9.248236	-1.830724	-2.812606	-0.588818	-0.048764	-0.802114	0.086768
39312	-9.045196	-0.906974	-2.170403	-0.587307	-0.051356	-0.802464	0.092110
39313	-9.429991	-0.420330	-1.828728	-0.585647	-0.052815	-0.803141	0.095879
39314	-9.462183	-0.131899	-1.767489	-0.584255	-0.053139	-0.803880	0.097978
39315	-9.709151	0.529724	-1.537938	-0.583146	-0.051873	-0.804746	0.098154
39316	-10.246670	-0.203203	-1.330059	-0.582425	-0.048701	-0.805657	0.096573
39317	-10.246299	-1.102074	-1.505014	-0.582247	-0.044221	-0.806339	0.094070
39318	-9.334736	-1.601229	-1.806293	-0.582417	-0.039668	-0.806751	0.091491
39319	-9.337816	-2.167939	-2.157878	-0.582622	-0.035954	-0.807026	0.089263
39320	-9.093231	-1.858925	-2.648782	-0.582744	-0.032841	-0.807281	0.087335
39321	-8.832084	-1.846028	-3.065396	-0.582538	-0.029982	-0.807722	0.085643
39322	-8.644683	-1.872743	-3.162405	-0.581969	-0.027439	-0.808398	0.083981
39323	-8.519719	-1.902432	-3.312013	-0.580787	-0.025242	-0.809510	0.082112
39324	-8.248898	-1.943971	-3.480074	-0.578964	-0.023786	-0.811005	0.080660
39325	-8.705196	-1.907228	-2.964806	-0.576754	-0.023274	-0.812637	0.080211
39326	-9.177380	-1.317033	-2.486477	-0.574489	-0.022787	-0.814298	0.079762
39327	-9.271086	-0.826140	-2.584917	-0.572179	-0.022016	-0.816039	0.078786
39328	-9.074544	-0.791114	-2.376452	-0.569673	-0.021050	-0.817947	0.077413
39329	-9.080759	-1.465281	-2.605145	-0.566962	-0.020021	-0.820007	0.075773
39330	-8.893670	-1.839640	-3.120284	-0.564077	-0.019348	-0.822133	0.074436
39331	-8.615841	-1.654342	-3.060644	-0.560988	-0.019201	-0.824308	0.073752
39332	-8.554142	-1.169140	-2.756684	-0.557843	-0.019138	-0.826495	0.073150
39333	-8.571876	-1.192224	-2.660150	-0.554320	-0.019158	-0.828923	0.072450
39334	-8.891284	-1.353303	-2.882965	-0.550566	-0.019349	-0.831495	0.071542
39335	-9.273310	-1.193978	-2.591128	-0.546775	-0.019902	-0.834050	0.070719
39336	-9.704838	-0.793284	-2.137241	-0.543340	-0.020295	-0.836375	0.069614
39337	-9.668758	-0.908345	-1.634354	-0.540191	-0.019916	-0.838578	0.067703
39338	-9.683405	-1.275928	-2.065260	-0.537138	-0.018647	-0.840801	0.064715
39339	-9.166045	-1.469911	-2.517485	-0.534069	-0.017080	-0.843047	0.061242
39340	-8.814164	-1.855834	-2.887433	-0.530705	-0.015751	-0.845435	0.057824
39341	-8.765390	-2.146134	-3.013645	-0.527126	-0.014825	-0.847892	0.054743
39342	-9.193572	-2.072663	-2.786018	-0.523659	-0.014425	-0.850207	0.052164
39343	-9.659007	-1.501084	-2.213514	-0.520667	-0.013836	-0.852214	0.049459
39344	-10.228297	-1.182631	-2.032800	-0.518255	-0.012874	-0.853896	0.045906
39345	-10.860689	-1.242845	-2.194712	-0.516859	-0.011831	-0.854957	0.042026
39346	-11.768908	-1.418248	-2.188927	-0.516484	-0.011272	-0.855338	0.038912
39347	-12.821536	-0.722903	-1.978631	-0.517845	-0.010579	-0.854646	0.036117
39348	-12.747924	0.133652	-1.204332	-0.521721	-0.009211	-0.852403	0.033620
39349	-12.800466	0.372526	-0.161343	-0.527693	-0.007799	-0.848815	0.031516
39350	-13.151018	0.115281	0.960939	-0.535653	-0.006550	-0.843907	0.029207
39351	-13.261348	-0.018992	1.594917	-0.546137	-0.004802	-0.837284	0.025834
39352	-12.982688	0.201979	1.381317	-0.559441	-0.002573	-0.828585	0.021579
39353	-12.606036	1.074719	-0.243283	-0.575207	-0.001666	-0.817817	0.017597
39354	-12.619482	2.040594	-2.678771	-0.593209	-0.004116	-0.804891	0.015377
39355	-12.918387	2.750613	-4.180568	-0.612054	-0.008827	-0.790635	0.014459
39356	-13.270102	2.925147	-3.925226	-0.630095	-0.012808	-0.776314	0.012368
39357	-12.474104	2.212363	-3.215770	-0.647387	-0.014659	-0.761967	0.009042
39358	-11.192954	0.607098	-3.308650	-0.663527	-0.014655	-0.747990	0.005260
39359	-10.346058	-0.967467	-3.715593	-0.678633	-0.014149	-0.734341	0.000740
39360	-9.974586	-1.707215	-3.391139	-0.692984	-0.015426	-0.720783	-0.002728
39361	-10.665950	-1.961605	-2.737850	-0.706310	-0.019656	-0.707616	-0.004344
39362	-10.770270	-1.705954	-1.997059	-0.718814	-0.026588	-0.694684	-0.003710
39363	-9.663537	-0.857665	-1.447648	-0.730471	-0.034065	-0.682088	-0.002591
39364	-8.772811	0.387434	-1.318202	-0.741526	-0.040864	-0.669674	-0.002364
39365	-8.552398	1.107573	-1.227777	-0.752266	-0.046932	-0.657182	-0.002253
39366	-8.449618	1.092508	-1.289824	-0.762597	-0.052331	-0.644751	-0.001613
39367	-8.399829	0.300611	-1.518776	-0.771968	-0.057379	-0.633067	-0.000289
39368	-8.085090	0.020361	-1.371487	-0.780175	-0.062735	-0.622404	0.002047
39369	-7.816886	-0.175466	-1.238093	-0.787213	-0.068136	-0.612885	0.005034
39370	-7.445981	0.240473	-1.331911	-0.793172	-0.074028	-0.604419	0.008712
39371	-7.280047	0.501140	-0.924638	-0.798293	-0.079580	-0.596864	0.012198
39372	-7.409012	0.428256	-0.064486	-0.802700	-0.084108	-0.590227	0.015183
39373	-7.563001	0.412518	0.702287	-0.806482	-0.088109	-0.584367	0.018401
39374	-7.496974	0.807668	1.340248	-0.809626	-0.091531	-0.579357	0.021743
39375	-7.272421	1.410059	1.513128	-0.812167	-0.094116	-0.575242	0.024962
39376	-7.038894	2.146957	1.312720	-0.813944	-0.096201	-0.572220	0.028366
39377	-6.998815	2.399762	1.309195	-0.814769	-0.097215	-0.570695	0.031747
39378	-7.472679	2.230780	1.571249	-0.815072	-0.096147	-0.570268	0.034741
39379	-7.942772	1.727894	2.142583	-0.815044	-0.093781	-0.570501	0.037907
39380	-8.323267	1.310885	2.104632	-0.814590	-0.090727	-0.571424	0.041055
39381	-8.425985	0.729549	1.983622	-0.813705	-0.087437	-0.572977	0.044004
39382	-8.626825	0.414285	2.325167	-0.812395	-0.085569	-0.574798	0.047944
39383	-8.809017	0.623987	3.090941	-0.811080	-0.086030	-0.576123	0.053208
39384	-8.817525	1.254521	3.903237	-0.809441	-0.087669	-0.577631	0.058831
39385	-9.473341	1.677690	4.288173	-0.807695	-0.089701	-0.579206	0.064057
39386	-9.472615	1.462981	4.610061	-0.806794	-0.092659	-0.579348	0.069670
39387	-8.987783	1.130297	4.549069	-0.805987	-0.097570	-0.578797	0.076539
39388	-9.004489	1.276883	4.141623	-0.805118	-0.103437	-0.577910	0.084301
39389	-8.959786	2.093618	4.064918	-0.804805	-0.108767	-0.576186	0.092029
39390	-8.001863	2.486273	4.203500	-0.805332	-0.112795	-0.573519	0.098966
39391	-7.350029	2.219972	4.390538	-0.805448	-0.115323	-0.571700	0.105422
39392	-7.059344	2.043530	3.509611	-0.805344	-0.115590	-0.570676	0.111304
39393	-6.932338	1.620629	2.454120	-0.805125	-0.115055	-0.569907	0.117226
39394	-10.985898	0.975464	1.996989	-0.803728	-0.116539	-0.570233	0.123586
39395	-15.399265	0.451334	5.567756	-0.803567	-0.121304	-0.567709	0.131425
39396	-19.146120	-0.323141	10.373618	-0.806228	-0.131496	-0.559377	0.140719
39397	-16.821713	1.489385	9.357353	-0.814189	-0.145713	-0.541077	0.151985
39398	-10.032143	5.809807	4.131630	-0.819902	-0.159787	-0.525741	0.160700
39399	-5.435328	8.163336	-0.241303	-0.825149	-0.163440	-0.515913	0.162022
39400	-0.328028	8.616928	-1.102981	-0.830338	-0.159167	-0.509118	0.161255
39401	-2.278240	3.074750	1.674084	-0.833011	-0.149002	-0.508514	0.159074
39402	-8.762747	-3.444098	5.841791	-0.833976	-0.140509	-0.509568	0.158371
39403	-10.597166	-4.709173	5.561740	-0.833624	-0.136416	-0.511162	0.158665
39404	-9.916702	-2.392477	3.136454	-0.832723	-0.132754	-0.514136	0.156884
39405	-7.205590	0.520233	2.721215	-0.830817	-0.129309	-0.518506	0.155481
39406	-7.227165	2.927319	1.433266	-0.826914	-0.124525	-0.525983	0.155078
39407	-9.551411	1.752177	0.841000	-0.822279	-0.115251	-0.535899	0.152924
39408	-11.568479	-0.964317	0.218066	-0.817122	-0.103218	-0.547313	0.148680
39409	-11.902200	-3.716872	-0.110204	-0.811652	-0.092190	-0.558404	0.144590
39410	-10.870537	-4.851500	0.300651	-0.805569	-0.085556	-0.568491	0.143377
39411	-10.147736	-4.106966	0.705441	-0.798976	-0.082168	-0.578040	0.144067
39412	-9.807574	-2.439013	0.734039	-0.792055	-0.080493	-0.587412	0.145315
39413	-9.621960	-1.031473	0.987876	-0.785208	-0.078623	-0.596626	0.145960
39414	-9.776213	0.036116	1.163362	-0.778237	-0.075927	-0.606099	0.145690
39415	-9.855199	0.033889	1.231703	-0.770774	-0.072140	-0.616317	0.144419
39416	-9.638421	-1.331077	1.216601	-0.763132	-0.067355	-0.626731	0.142483
39417	-9.180166	-2.669264	0.826770	-0.755153	-0.062174	-0.637341	0.140265
39418	-9.261488	-3.164512	0.754221	-0.747005	-0.058171	-0.647529	0.138946
39419	-9.403825	-2.303519	0.421379	-0.738420	-0.055829	-0.657621	0.138397
39420	-9.194534	-1.537501	0.642951	-0.729599	-0.053705	-0.667758	0.137482
39421	-9.044432	-1.831063	0.644818	-0.720508	-0.051969	-0.677918	0.136365
39422	-9.042089	-1.935086	0.819955	-0.711059	-0.050645	-0.688102	0.135448
39423	-8.992999	-1.674776	0.837727	-0.701852	-0.048877	-0.697869	0.134139
39424	-8.932377	-1.619909	0.921767	-0.692677	-0.046649	-0.707451	0.132423
39425	-9.125691	-1.766377	0.854766	-0.683424	-0.044019	-0.716936	0.130370
39426	-9.036626	-1.178271	0.679812	-0.673893	-0.041034	-0.726468	0.128172
39427	-8.757889	-0.966446	-0.090983	-0.664000	-0.037928	-0.736187	0.125276
39428	-8.977766	-1.275352	-0.362048	-0.653996	-0.034594	-0.745901	0.121343
39429	-9.338116	-1.690983	-0.512999	-0.643875	-0.032179	-0.755301	0.117937
39430	-10.270364	-1.344179	-0.361355	-0.633575	-0.030042	-0.764624	0.114153
39431	-9.685637	-1.111794	-0.919884	-0.623779	-0.027816	-0.773423	0.109281
39432	-9.547708	-0.829514	-1.257223	-0.614993	-0.025879	-0.781173	0.104317
39433	-9.444855	-0.655045	-1.516548	-0.606858	-0.023748	-0.788251	0.099091
39434	-9.502926	-0.831839	-1.409762	-0.599451	-0.020921	-0.794702	0.093114
39435	-8.658648	-1.739234	-2.312224	-0.591744	-0.017314	-0.801279	0.086546
39436	-8.580778	-2.187400	-2.367400	-0.583527	-0.013769	-0.808016	0.080104
39437	-8.365552	-1.431703	-2.718936	-0.575490	-0.010845	-0.814354	0.074305
39438	-7.117797	-1.458325	-2.732454	-0.567100	-0.007616	-0.820723	0.068947
39439	-6.018433	-2.940028	-2.522652	-0.558205	-0.004413	-0.827143	0.064977
39440	-5.937134	-3.193759	-2.658594	-0.549614	-0.002198	-0.833041	0.062946
39441	-7.733220	-1.032169	-3.158397	-0.540506	-0.000807	-0.839119	0.061087
39442	-8.606111	0.863582	-4.944327	-0.530026	0.000474	-0.846006	0.057835
39443	-8.459709	0.589468	-4.550158	-0.518314	0.000660	-0.853503	0.053699
39444	-9.144940	-2.746770	-3.735762	-0.505803	-0.001214	-0.861159	0.050656
39445	-10.698400	-4.246691	-2.578377	-0.494393	-0.004563	-0.867714	0.051248
39446	-10.654255	-2.717307	-0.867469	-0.484909	-0.007639	-0.872885	0.053637
39447	-11.533362	-1.150717	-0.786782	-0.478118	-0.009010	-0.876583	0.054076
39448	-11.926278	-1.755971	-2.187782	-0.474196	-0.008788	-0.878802	0.052606
39449	-11.089008	-2.003297	-3.192077	-0.473486	-0.007494	-0.879257	0.051589
39450	-9.946740	-1.082660	-2.247770	-0.474140	-0.004449	-0.878961	0.050978
39451	-10.836933	0.268088	-1.839488	-0.476116	0.000830	-0.878068	0.048065
39452	-12.335816	1.238917	-1.987803	-0.480305	0.007475	-0.876056	0.042160
39453	-12.344370	0.837154	-1.676582	-0.486630	0.013985	-0.872795	0.034984
39454	-11.935863	-1.626858	-1.140167	-0.494458	0.019065	-0.868550	0.027729
39455	-11.772344	-2.427417	-1.796313	-0.503378	0.021338	-0.863510	0.022498
39456	-12.463178	-0.947597	-2.809715	-0.513640	0.022024	-0.857530	0.018222
39457	-14.739956	0.344776	-2.542073	-0.525878	0.021441	-0.850160	0.014865
39458	-15.759985	0.847181	-2.175806	-0.541786	0.019161	-0.840198	0.012963
39459	-15.228229	0.193834	-3.161041	-0.560298	0.015056	-0.828061	0.012399
39460	-15.800843	0.065627	-4.335878	-0.580217	0.010338	-0.814279	0.013840
39461	-14.760690	-0.277221	-5.767045	-0.600670	0.004861	-0.799265	0.018659
39462	-14.258673	-0.070556	-5.569815	-0.620097	-0.001430	-0.784124	0.025044
39463	-14.637704	0.672270	-5.164346	-0.639293	-0.007246	-0.768374	0.029203
39464	-15.163215	1.241552	-4.380498	-0.657839	-0.014912	-0.752288	0.032986
39465	-13.330059	1.544620	-2.739649	-0.675953	-0.022691	-0.735729	0.035722
39466	-10.897862	1.391965	-1.759055	-0.692765	-0.028337	-0.719723	0.035686
39467	-10.104997	0.712833	-1.776788	-0.708924	-0.032509	-0.703744	0.033390
39468	-10.086618	0.542397	-2.305372	-0.724452	-0.035625	-0.687715	0.030785
39469	-9.562855	0.570216	-2.531737	-0.739045	-0.038296	-0.671949	0.028811
39470	-9.244849	0.067000	-2.332051	-0.752493	-0.041256	-0.656721	0.027751
39471	-8.847485	-0.407045	-1.606453	-0.765002	-0.044815	-0.641881	0.027426
39472	-8.410754	-0.482879	-1.194754	-0.776644	-0.048073	-0.627526	0.026896
39473	-8.184793	-0.303904	-1.646686	-0.787549	-0.051168	-0.613546	0.026652
39474	-7.593482	-0.464344	-2.100025	-0.797718	-0.054334	-0.599975	0.026904
39475	-7.016854	-0.261109	-1.970556	-0.806764	-0.057579	-0.587420	0.027464
39476	-6.543387	-0.234471	-1.687052	-0.814688	-0.061230	-0.575935	0.028851
39477	-6.058778	-0.286793	-1.330393	-0.821428	-0.065859	-0.565637	0.031200
39478	-5.735439	-0.342824	-1.029671	-0.826798	-0.071160	-0.556946	0.033929
39479	-5.643289	-0.332811	-0.862972	-0.830762	-0.076177	-0.550175	0.036598
39480	-5.511489	0.002999	-0.427206	-0.833442	-0.079980	-0.545408	0.038833
39481	-5.082168	0.372577	0.126179	-0.834958	-0.082903	-0.542481	0.041060
39482	-4.684226	0.619944	0.294384	-0.834940	-0.084933	-0.542021	0.043297
39483	-5.034039	0.698841	0.564740	-0.833244	-0.085126	-0.544443	0.045161
39484	-5.921605	0.600891	0.480693	-0.830143	-0.083429	-0.549278	0.046857
39485	-6.860543	0.471193	0.697241	-0.826308	-0.080982	-0.555176	0.049355
39486	-7.520571	0.407435	1.359838	-0.822352	-0.079123	-0.560903	0.053531
39487	-7.731186	0.710827	2.481516	-0.818732	-0.078200	-0.565760	0.058969
39488	-7.661194	1.487861	4.221919	-0.815512	-0.076782	-0.570042	0.064008
39489	-7.749267	2.391433	6.307697	-0.811644	-0.073642	-0.575579	0.067226
39490	-8.996560	2.277967	7.635686	-0.806639	-0.070474	-0.582674	0.069698
39491	-10.088049	2.028350	7.073880	-0.801946	-0.068333	-0.588994	0.072792
39492	-10.806862	1.469194	5.393481	-0.799236	-0.067312	-0.592236	0.077113
39493	-10.017728	-0.631795	4.015893	-0.798992	-0.067594	-0.591655	0.083586
39494	-8.009189	-2.825015	2.900671	-0.799973	-0.069796	-0.588680	0.092888
39495	-4.772315	-2.114592	1.277629	-0.798563	-0.072620	-0.588703	0.102237
39496	-8.800600	0.661289	-3.573571	-0.792116	-0.072531	-0.596693	0.106061
39497	-19.178125	1.813745	0.050930	-0.785269	-0.072157	-0.606121	0.103752
39498	-23.571553	-1.997564	7.556242	-0.786440	-0.081746	-0.602267	0.110021
39499	-12.692241	3.845080	3.948365	-0.790451	-0.094017	-0.593082	0.120841
39500	-9.443016	7.630738	-0.201988	-0.791813	-0.099129	-0.589907	0.123345
39501	-10.186214	6.428749	1.560562	-0.794812	-0.096824	-0.586756	0.120901
39502	-10.328754	3.927687	2.620261	-0.798367	-0.091738	-0.583396	0.117657
39503	-13.690875	-0.456259	2.819542	-0.801287	-0.084553	-0.581451	0.112717
39504	-12.477962	-6.303639	2.789244	-0.805607	-0.077680	-0.577156	0.108877
39505	-6.286332	-7.146740	3.086248	-0.809530	-0.074634	-0.571903	0.109624
39506	-2.021180	-8.082746	0.416201	-0.811294	-0.073534	-0.569017	0.112313
39507	-4.769828	-8.676207	1.056483	-0.809345	-0.078337	-0.569771	0.119096
39508	-10.132818	-5.960699	1.367195	-0.805858	-0.086836	-0.571774	0.126991
39509	-12.397245	-2.212540	1.183922	-0.802994	-0.095717	-0.572831	0.133802
39510	-10.875016	0.827864	0.929106	-0.800374	-0.103123	-0.573841	0.139548
39511	-9.554049	1.367061	0.419249	-0.797660	-0.109496	-0.574821	0.146047
39512	-8.666191	1.122917	0.996949	-0.794323	-0.114655	-0.576600	0.153094
39513	-9.433515	-0.099274	-0.176588	-0.790886	-0.117585	-0.579052	0.159287
39514	-10.266106	-1.008604	-0.857778	-0.787738	-0.120341	-0.581078	0.165334
39515	-10.143604	-1.400741	-0.860803	-0.785448	-0.124117	-0.581752	0.170972
39516	-9.825140	-0.030193	0.268985	-0.783478	-0.129122	-0.581712	0.176354
39517	-9.840479	2.096863	1.140242	-0.782019	-0.134292	-0.581133	0.180823
39518	-9.993031	2.958992	1.567859	-0.781190	-0.138871	-0.580019	0.184487
39519	-9.647107	2.510710	2.593848	-0.780611	-0.142399	-0.578941	0.187605
39520	-9.834756	0.943079	2.968431	-0.780451	-0.144001	-0.578152	0.189473
39521	-9.578179	-1.260635	2.702848	-0.780635	-0.144257	-0.577312	0.191076
39522	-8.883015	-1.718818	2.349069	-0.780803	-0.144562	-0.576401	0.192903
39523	-9.057966	-1.005967	2.157826	-0.781097	-0.144672	-0.575582	0.194068
39524	-9.527786	-0.556238	2.733170	-0.781052	-0.146213	-0.574721	0.195643
39525	-9.784583	0.165272	2.757841	-0.780834	-0.148613	-0.573696	0.197701
39526	-9.693442	0.840186	2.723227	-0.780612	-0.151553	-0.572372	0.200165
39527	-9.495626	1.558611	2.776630	-0.780803	-0.153842	-0.570815	0.202114
39528	-9.113360	1.747428	3.109760	-0.781376	-0.155051	-0.569284	0.203289
39529	-8.993606	1.282898	2.899501	-0.782080	-0.155312	-0.567997	0.203979
39530	-9.296470	-0.382076	2.708625	-0.782836	-0.154651	-0.567033	0.204267
39531	-9.519132	-1.213477	2.452885	-0.783599	-0.154428	-0.565796	0.204938
39532	-9.282624	-0.099438	2.404289	-0.784512	-0.154520	-0.564208	0.205754
39533	-9.205001	1.081375	2.485605	-0.785290	-0.154419	-0.563033	0.206079
39534	-9.815824	1.259445	2.735204	-0.786105	-0.153791	-0.562218	0.205664
39535	-9.590704	0.962411	2.908087	-0.787010	-0.152710	-0.561557	0.204815
39536	-9.383615	0.743693	2.798142	-0.787974	-0.150815	-0.561225	0.203416
39537	-9.341779	0.129317	3.180336	-0.789041	-0.148271	-0.560926	0.201972
39538	-9.317168	-0.352331	3.206222	-0.789718	-0.145555	-0.561242	0.200415
39539	-9.482209	-0.629622	3.097998	-0.790014	-0.143420	-0.561918	0.198891
39540	-9.457501	-0.523391	3.147871	-0.790429	-0.141369	-0.562450	0.197196
39541	-9.416740	-0.097452	2.900258	-0.790767	-0.139610	-0.563040	0.195404
39542	-9.318069	0.234557	3.078307	-0.791012	-0.137654	-0.563862	0.193419
39543	-9.281733	0.315317	2.930312	-0.791198	-0.135258	-0.564994	0.191033
39544	-9.101902	0.391070	3.091397	-0.791264	-0.132550	-0.566484	0.188225
39545	-9.122823	0.172622	3.287542	-0.791366	-0.129505	-0.568017	0.185271
39546	-9.208800	-0.498495	3.352492	-0.791221	-0.126744	-0.569724	0.182534
39547	-9.269277	-0.471365	2.996746	-0.791163	-0.124037	-0.571314	0.179655
39548	-9.020947	-0.288725	2.794097	-0.791294	-0.121542	-0.572523	0.176914
39549	-8.723922	-0.300831	2.697419	-0.791618	-0.118562	-0.573592	0.174003
39550	-8.452743	-0.546427	2.651082	-0.791689	-0.115500	-0.574925	0.171318
39551	-8.900100	-1.014422	3.456449	-0.791717	-0.112398	-0.576141	0.169153
39552	-9.277939	-1.458620	3.289367	-0.791538	-0.110470	-0.577121	0.167914
39553	-9.525935	-1.093453	3.432830	-0.791527	-0.109628	-0.577490	0.167246
39554	-9.528796	-0.323289	3.266168	-0.791768	-0.108892	-0.577479	0.166627
39555	-9.279326	0.590158	3.042413	-0.791904	-0.108236	-0.577605	0.165969
39556	-9.314805	0.598785	2.848326	-0.792231	-0.106567	-0.577831	0.164697
39557	-9.325105	0.279263	3.143241	-0.792825	-0.104385	-0.577900	0.162985
39558	-9.277211	-0.083681	3.256958	-0.793296	-0.102494	-0.578087	0.161221
39559	-9.225158	-0.253635	3.177800	-0.793767	-0.100536	-0.578311	0.159320
39560	-9.223951	-0.373817	3.013997	-0.794200	-0.098193	-0.578728	0.157093
39561	-9.386238	-0.310411	3.084615	-0.794438	-0.096156	-0.579277	0.155114
39562	-9.473498	-0.559196	3.059376	-0.794609	-0.094206	-0.579844	0.153305
39563	-9.158842	-0.517380	2.928807	-0.794800	-0.092477	-0.580312	0.151592
39564	-8.751831	-0.246685	3.011561	-0.795048	-0.090989	-0.580631	0.149957
39565	-8.683933	0.041758	3.080340	-0.795359	-0.089327	-0.580915	0.148195
39566	-9.087511	-0.290342	3.632139	-0.795839	-0.087497	-0.580892	0.146798
39567	-9.310901	-0.353689	3.307564	-0.796349	-0.086106	-0.580698	0.145617
39568	-9.260185	-0.062103	3.526938	-0.796912	-0.085267	-0.580354	0.144398
39569	-9.097875	-0.162126	3.595566	-0.797822	-0.084348	-0.579512	0.143289
39570	-9.206300	-0.499898	3.148909	-0.798772	-0.083089	-0.578654	0.142194
39571	-9.233291	-0.615485	2.840925	-0.799601	-0.082459	-0.577769	0.141500
39572	-9.247784	-0.931653	2.905745	-0.800303	-0.081888	-0.577045	0.140812
39573	-9.203315	-0.691645	2.868565	-0.800764	-0.081706	-0.576546	0.140343
39574	-9.120723	-0.428945	3.082244	-0.801189	-0.081761	-0.576035	0.139985
39575	-9.156183	-0.409972	3.298961	-0.801529	-0.081928	-0.575582	0.139797
39576	-9.208211	-0.358163	3.419894	-0.801623	-0.082350	-0.575405	0.139743
39577	-9.162819	-0.470598	3.216951	-0.801699	-0.082695	-0.575258	0.139712
39578	-9.138877	-0.726524	3.190672	-0.801573	-0.083158	-0.575297	0.139996
39579	-9.197803	-0.780911	3.231745	-0.801350	-0.084035	-0.575355	0.140509
39580	-9.080857	-0.552003	3.027108	-0.800866	-0.085371	-0.575676	0.141145
39581	-9.103244	-0.157884	2.945326	-0.800333	-0.086897	-0.575992	0.141945
39582	-9.253876	-0.116121	3.119047	-0.799726	-0.088328	-0.576378	0.142915
39583	-9.305014	-0.055334	3.084655	-0.799038	-0.089544	-0.576962	0.143651
39584	-9.379467	-0.016390	3.167101	-0.798180	-0.090362	-0.577921	0.144051
39585	-9.275262	-0.261088	2.986574	-0.797303	-0.091077	-0.578864	0.144673
39586	-8.877180	-0.339119	2.858722	-0.796257	-0.091741	-0.580025	0.145359
39587	-8.885455	-0.429347	2.885947	-0.795174	-0.092599	-0.581108	0.146415
39588	-9.264689	-0.472682	3.160244	-0.794177	-0.093235	-0.582020	0.147794
39589	-9.290205	-0.314144	2.983660	-0.793110	-0.094142	-0.582936	0.149332
39590	-9.214060	0.074879	2.831732	-0.791826	-0.094978	-0.584203	0.150659
39591	-9.450745	0.003957	2.719609	-0.790476	-0.095746	-0.585515	0.152160
39592	-9.337526	-0.104715	2.531199	-0.788892	-0.096760	-0.587057	0.153788
39593	-9.380537	-0.002693	2.675937	-0.787141	-0.098123	-0.588818	0.155158
39594	-9.300051	0.323191	2.898810	-0.785308	-0.099686	-0.590626	0.156570
39595	-9.262353	0.238729	2.897312	-0.783326	-0.100955	-0.592710	0.157807
39596	-9.088443	0.055586	2.772518	-0.781084	-0.101833	-0.595200	0.158984
39597	-8.905048	-0.365935	2.308361	-0.778531	-0.102456	-0.598106	0.160189
39598	-9.038986	-1.191661	2.384796	-0.775730	-0.103052	-0.601177	0.161897
39599	-9.656936	-1.594728	2.354261	-0.772708	-0.104191	-0.604140	0.164564
39600	-9.735065	-0.847916	2.333791	-0.769395	-0.106807	-0.607019	0.167785
39601	-9.575707	0.038846	2.218070	-0.766063	-0.110995	-0.609549	0.171108
39602	-9.356280	0.518697	2.262391	-0.762742	-0.116065	-0.611773	0.174606
39603	-8.974755	0.132736	2.437880	-0.759540	-0.120915	-0.613736	0.178343
39604	-9.303651	-0.376919	2.547673	-0.755845	-0.124837	-0.616402	0.182106
39605	-9.894836	-0.448459	2.264415	-0.751945	-0.127533	-0.619586	0.185546
39606	-9.629107	0.428922	2.045517	-0.748161	-0.130099	-0.622720	0.188544
39607	-9.436273	1.210556	2.110426	-0.744746	-0.132322	-0.625844	0.190166
39608	-9.315449	1.197680	2.104272	-0.741412	-0.134779	-0.628873	0.191473
39609	-9.358213	0.907161	1.799039	-0.737865	-0.136827	-0.632295	0.192450
39610	-9.304250	-0.131933	1.569210	-0.733903	-0.137467	-0.636647	0.192796
39611	-9.318424	-1.524602	1.697203	-0.729242	-0.137453	-0.641822	0.193334
39612	-9.339882	-1.977888	1.675474	-0.724120	-0.137363	-0.647395	0.194063
39613	-9.370941	-1.565597	1.251685	-0.718464	-0.138341	-0.653133	0.195163
39614	-9.475648	-1.194523	0.802419	-0.712702	-0.140611	-0.658485	0.196675
39615	-9.454953	-1.041827	0.656428	-0.706475	-0.144310	-0.663655	0.199072
39616	-9.297086	-0.236622	0.372521	-0.699906	-0.148938	-0.668766	0.201746
39617	-9.114904	0.423777	0.733014	-0.693306	-0.152912	-0.674253	0.203290
39618	-8.961341	0.605857	1.015541	-0.686606	-0.155897	-0.680271	0.203713
39619	-9.631516	0.460392	1.236233	-0.680003	-0.157873	-0.686694	0.202787
39620	-10.065736	-1.035766	0.945819	-0.674107	-0.158593	-0.692875	0.200879
39621	-10.189910	-2.935047	1.184653	-0.668565	-0.159613	-0.698307	0.199780
39622	-10.465774	-3.785007	1.090043	-0.663850	-0.161922	-0.702210	0.199963
39623	-10.480761	-3.450959	0.265399	-0.659641	-0.166428	-0.704681	0.201494
39624	-10.348900	-2.723924	-0.108888	-0.656056	-0.173444	-0.705213	0.205380
39625	-10.189728	-1.702143	-0.306451	-0.652799	-0.181424	-0.704674	0.210650
39626	-10.281105	-1.237893	0.382351	-0.649924	-0.189375	-0.703507	0.216366
39627	-9.749362	-0.792610	-0.455790	-0.647109	-0.196722	-0.702439	0.221651
39628	-9.453990	-0.693973	-1.194589	-0.644349	-0.203597	-0.701505	0.226392
39629	-9.439000	-1.205074	-1.553342	-0.641768	-0.210524	-0.700308	0.231046
39630	-9.715397	-1.483582	-1.470119	-0.639327	-0.217304	-0.698938	0.235637
39631	-9.646715	-1.399065	-1.700800	-0.636545	-0.224318	-0.697505	0.240787
39632	-9.722563	-1.488203	-1.831649	-0.633395	-0.232109	-0.695664	0.246957
39633	-9.807873	-1.086953	-1.996161	-0.630237	-0.240256	-0.693475	0.253320
39634	-9.597370	-0.526708	-1.465339	-0.627165	-0.248099	-0.691267	0.259348
39635	-9.321510	-0.482056	-0.940127	-0.623695	-0.256356	-0.689073	0.265450
39636	-9.742798	-1.114437	-1.159469	-0.620318	-0.263705	-0.687642	0.269841
39637	-9.912413	-0.704903	-2.038432	-0.617051	-0.271551	-0.685361	0.275298
39638	-9.563528	0.616508	-2.193483	-0.614074	-0.279629	-0.682290	0.281426
39639	-9.990408	0.915359	-1.688434	-0.611189	-0.286781	-0.679909	0.286231
39640	-10.067615	0.986012	-1.774872	-0.609793	-0.292640	-0.676805	0.290601
39641	-9.280289	-0.195869	-1.094184	-0.608594	-0.297666	-0.674167	0.294122
39642	-9.143339	-1.538337	-1.301755	-0.606790	-0.302949	-0.671819	0.297805
39643	-9.369499	-2.275140	-1.531770	-0.604343	-0.309165	-0.669210	0.302232
39644	-9.728852	-1.675326	-1.592331	-0.601483	-0.316320	-0.665976	0.307630
39645	-10.149081	-0.576459	-2.267852	-0.598735	-0.323277	-0.662327	0.313579
39646	-9.492110	1.137410	-1.804316	-0.596148	-0.329474	-0.658825	0.319379
39647	-9.266183	1.410433	-1.604784	-0.593755	-0.334289	-0.656705	0.323178
39648	-9.490693	0.943799	-1.686373	-0.591841	-0.338021	-0.655434	0.325381
39649	-10.013541	0.614884	-1.508039	-0.590319	-0.341436	-0.654078	0.327302
39650	-9.984360	0.691202	-1.008762	-0.589630	-0.344145	-0.652375	0.329101
39651	-9.803018	1.210128	-0.810028	-0.589363	-0.346105	-0.650782	0.330673
39652	-9.564374	1.292503	-0.929083	-0.589500	-0.346736	-0.650045	0.331218
39653	-9.551015	1.016132	-1.063330	-0.589950	-0.346541	-0.649941	0.330825
39654	-9.659141	0.422147	-0.829632	-0.590486	-0.346360	-0.649917	0.330105
39655	-9.812622	-0.145428	-0.855399	-0.591384	-0.345828	-0.649904	0.329078
39656	-9.797192	-0.581648	-0.798449	-0.592393	-0.345189	-0.649829	0.328082
39657	-9.715115	-0.491572	-0.882818	-0.593088	-0.344809	-0.649716	0.327449
39658	-9.496738	-0.100224	-0.890129	-0.593270	-0.344810	-0.649699	0.327152
39659	-9.467982	0.274266	-0.931676	-0.593203	-0.344916	-0.649941	0.326681
39660	-9.560278	0.255930	-0.959106	-0.593288	-0.344888	-0.650338	0.325765
39661	-9.847708	0.136376	-0.796985	-0.593487	-0.344819	-0.650653	0.324844
39662	-10.005236	-0.024302	-0.457700	-0.593876	-0.344478	-0.650853	0.324095
39663	-9.832675	-0.201215	-0.453354	-0.594222	-0.344132	-0.650876	0.323780
39664	-9.581111	-0.092095	-0.604192	-0.594375	-0.344130	-0.650766	0.323723
39665	-9.676643	0.038706	-0.638344	-0.594547	-0.344287	-0.650535	0.323705
39666	-9.631345	-0.234404	-0.390845	-0.594680	-0.344555	-0.650279	0.323691
39667	-9.657248	-0.270004	-0.842612	-0.594845	-0.344853	-0.650058	0.323511
39668	-9.677494	-0.428880	-0.753374	-0.594995	-0.345242	-0.649701	0.323539
39669	-9.655256	-0.370194	-0.855671	-0.595099	-0.345741	-0.649237	0.323746
39670	-9.646715	-0.179641	-0.740113	-0.595276	-0.346275	-0.648611	0.324104
39671	-9.594397	-0.281965	-0.853633	-0.595201	-0.347179	-0.647890	0.324717
39672	-9.685877	-0.462198	-0.941173	-0.594680	-0.348640	-0.647179	0.325523
39673	-9.674236	-1.056544	-0.797478	-0.593707	-0.350620	-0.646472	0.326577
39674	-9.620932	-1.241944	-0.825274	-0.592364	-0.353341	-0.645443	0.328113
39675	-9.477573	-0.822200	-0.946454	-0.591124	-0.356543	-0.643804	0.330098
39676	-9.819922	-0.205880	-0.890560	-0.589835	-0.359853	-0.641918	0.332479
39677	-9.887871	0.411509	-0.845890	-0.588595	-0.362841	-0.640126	0.334876
39678	-9.807512	0.238396	-0.795595	-0.587643	-0.365273	-0.638636	0.336742
39679	-9.781893	0.073115	-1.095964	-0.587157	-0.367296	-0.637234	0.338045
39680	-9.729307	0.303457	-1.224884	-0.586986	-0.369292	-0.635565	0.339305
39681	-9.627558	0.447215	-1.036825	-0.586801	-0.371141	-0.634026	0.340485
39682	-9.520000	0.136349	-0.784639	-0.586539	-0.372962	-0.632605	0.341589
39683	-9.677782	0.062910	-0.770254	-0.586320	-0.374687	-0.631348	0.342401
39684	-9.798755	0.352729	-0.750392	-0.586328	-0.376261	-0.630032	0.343084
39685	-9.924963	0.408406	-0.632395	-0.586466	-0.377467	-0.628837	0.343716
39686	-9.809320	0.761195	-0.686957	-0.586641	-0.378302	-0.627870	0.344266
39687	-9.536931	0.756952	-0.696195	-0.586785	-0.378856	-0.627275	0.344496
39688	-9.417170	0.201657	-0.677536	-0.587045	-0.379075	-0.627086	0.344157
39689	-9.592801	-0.349415	-0.826470	-0.587229	-0.379508	-0.626886	0.343729
39690	-9.870383	-0.373509	-0.887771	-0.587242	-0.380362	-0.626323	0.343789
39691	-9.741136	-0.127306	-0.691330	-0.587047	-0.381568	-0.625427	0.344416
39692	-9.704115	0.477584	-0.552729	-0.586892	-0.382792	-0.624403	0.345180
39693	-9.751410	1.041199	-0.537490	-0.587096	-0.383637	-0.623526	0.345479
39694	-9.773511	1.258892	-0.493028	-0.587537	-0.384050	-0.622919	0.345367
39695	-9.736193	0.867079	-0.398690	-0.588060	-0.384056	-0.622690	0.344883
39696	-9.651277	0.345202	-0.493179	-0.588680	-0.383793	-0.622611	0.344260
39697	-9.791594	-0.138635	-0.749234	-0.589197	-0.383749	-0.622408	0.343791
39698	-9.835041	-0.353480	-0.886865	-0.589527	-0.384241	-0.621669	0.344012
39699	-9.560597	-0.203515	-0.847056	-0.589594	-0.385302	-0.620550	0.344730
39700	-9.501883	0.103960	-0.687766	-0.589471	-0.386612	-0.619376	0.345585
39701	-9.620230	0.404583	-0.688700	-0.589454	-0.387636	-0.618516	0.346006
39702	-9.672878	0.558570	-0.685906	-0.589733	-0.388222	-0.617936	0.345910
39703	-9.663192	0.458441	-0.603779	-0.590056	-0.388628	-0.617519	0.345647
39704	-9.614961	0.249268	-0.600411	-0.590581	-0.388710	-0.617212	0.345207
39705	-9.744591	-0.006329	-0.686901	-0.591129	-0.388788	-0.616874	0.344785
39706	-9.815848	-0.420182	-0.732956	-0.591524	-0.389187	-0.616359	0.344578
39707	-9.550815	-0.704165	-0.702255	-0.591537	-0.390286	-0.615535	0.344787
39708	-9.494033	-0.685838	-0.880942	-0.591195	-0.392096	-0.614463	0.345232
39709	-9.559504	-0.344995	-0.817515	-0.590574	-0.394571	-0.613119	0.345862
39710	-9.522349	0.069855	-0.531777	-0.590037	-0.397323	-0.611429	0.346619
39711	-9.790161	0.463605	-0.280676	-0.589773	-0.399836	-0.609658	0.347299
39712	-9.809335	0.655469	-0.212395	-0.590073	-0.401589	-0.608003	0.347668
39713	-9.373898	0.769799	-0.657526	-0.590304	-0.402952	-0.606910	0.347608
39714	-9.346893	0.575251	-0.995061	-0.590206	-0.404379	-0.606239	0.347288
39715	-9.678960	0.129208	-0.922789	-0.590095	-0.405954	-0.605542	0.346855
39716	-9.877245	-0.289155	-0.842686	-0.589931	-0.407955	-0.604607	0.346416
39717	-9.773511	-0.489457	-0.767119	-0.589595	-0.410477	-0.603262	0.346354
39718	-9.794986	-0.205226	-0.857321	-0.589303	-0.413258	-0.601562	0.346502
39719	-9.956981	0.536676	-0.901863	-0.589241	-0.415944	-0.599550	0.346880
39720	-9.978956	1.133673	-0.830927	-0.589474	-0.418327	-0.597465	0.347216
39721	-9.780666	1.528234	-0.444523	-0.590155	-0.420111	-0.595496	0.347289
39722	-9.756393	1.542238	-0.586775	-0.591495	-0.420911	-0.593973	0.346646
39723	-9.551232	1.045385	-0.798529	-0.593132	-0.421287	-0.592688	0.345591
39724	-9.224608	0.605087	-1.147950	-0.594546	-0.421865	-0.591450	0.344575
39725	-9.169263	0.489300	-1.119632	-0.595522	-0.423039	-0.589996	0.343941
39726	-9.291207	0.717484	-0.955595	-0.596178	-0.424474	-0.588546	0.343522
39727	-9.190364	0.906731	-1.065181	-0.596710	-0.425767	-0.587454	0.342866
39728	-9.520434	1.138273	-1.002255	-0.596995	-0.427100	-0.586793	0.341843
39729	-9.710753	1.305811	-0.653623	-0.597291	-0.428450	-0.586101	0.340822
39730	-9.595549	1.170879	-0.263628	-0.597462	-0.430084	-0.585270	0.339891
39731	-9.638924	0.998134	-0.077588	-0.597706	-0.431712	-0.584539	0.338654
39732	-9.619091	0.737973	-0.000574	-0.598310	-0.433053	-0.583766	0.337206
39733	-9.455967	0.481681	-0.138822	-0.598965	-0.434287	-0.583044	0.335701
39734	-9.390952	0.514264	-0.497844	-0.599695	-0.435440	-0.582392	0.334033
39735	-9.528172	0.933119	-0.986925	-0.600494	-0.436442	-0.581915	0.332114
39736	-9.921016	1.703059	-0.709955	-0.601175	-0.437546	-0.581520	0.330116
39737	-10.118099	2.158646	-0.176081	-0.601998	-0.438678	-0.580888	0.328222
39738	-9.960899	2.015617	0.326230	-0.603191	-0.439715	-0.579873	0.326433
39739	-9.805768	1.907523	0.310725	-0.604894	-0.440417	-0.578637	0.324523
39740	-9.890313	1.883915	0.071654	-0.606997	-0.440807	-0.577224	0.322578
39741	-9.839087	1.932223	0.024644	-0.609213	-0.441064	-0.575650	0.320857
39742	-9.612681	2.007261	0.156438	-0.611356	-0.441212	-0.574028	0.319480
39743	-9.359514	1.943640	0.183232	-0.613219	-0.441495	-0.572489	0.318280
39744	-9.310920	1.955122	0.207640	-0.614955	-0.441756	-0.571234	0.316818
39745	-9.764569	1.812199	0.263534	-0.616862	-0.441653	-0.570253	0.315016
39746	-10.387864	1.547288	0.325588	-0.618695	-0.441463	-0.569207	0.313578
39747	-11.210523	1.231807	0.502255	-0.620028	-0.441845	-0.567718	0.313104
39748	-11.228452	1.131424	0.721439	-0.620865	-0.443127	-0.565382	0.313861
39749	-10.403154	1.499866	0.852935	-0.621605	-0.444961	-0.562408	0.315142
39750	-10.261519	1.684597	0.659503	-0.622581	-0.446601	-0.559513	0.316048
39751	-10.422345	1.456773	0.440824	-0.623523	-0.448072	-0.556694	0.317085
39752	-10.329004	1.205732	0.488264	-0.624025	-0.449604	-0.554006	0.318632
39753	-10.206069	0.803711	0.506919	-0.624067	-0.451199	-0.551461	0.320703
39754	-10.182471	0.307523	0.734662	-0.623394	-0.453237	-0.548869	0.323571
39755	-10.274065	-0.302637	0.931000	-0.622038	-0.455802	-0.545964	0.327469
39756	-10.246347	-0.757900	0.783342	-0.620078	-0.459067	-0.542249	0.332756
39757	-9.855136	-1.023821	0.388528	-0.617189	-0.463443	-0.537869	0.339110
39758	-9.698724	-0.773589	0.688709	-0.612335	-0.470049	-0.532616	0.347016
39759	-10.077990	0.169144	0.314483	-0.606025	-0.478473	-0.526004	0.356534
39760	-10.583421	0.729163	-0.106039	-0.598407	-0.488513	-0.518648	0.366425
39761	-11.234481	0.659295	0.534413	-0.588467	-0.501336	-0.509146	0.378338
39762	-10.200865	0.610545	0.480846	-0.576673	-0.514864	-0.497452	0.393580
39763	-9.264803	0.303823	0.480672	-0.564489	-0.526969	-0.484194	0.411353
39764	-9.480949	-0.024939	-0.314085	-0.552856	-0.536808	-0.471729	0.428555
39765	-9.421868	0.016682	-1.134050	-0.541921	-0.544513	-0.460624	0.444581
39766	-8.906966	1.156417	-1.274180	-0.531325	-0.550983	-0.450520	0.459504
39767	-8.654206	2.235075	-1.394466	-0.521514	-0.556388	-0.441522	0.472772
39768	-8.685017	3.066422	-1.189457	-0.512463	-0.560839	-0.433276	0.484885
39769	-8.873135	3.278958	-0.488719	-0.504652	-0.563949	-0.425968	0.495821
