// Start Time: Unknown
// Update Rate: 60.0Hz
// Filter Profile: human (46.1)
// Option Flags: AHS Disabled ICC Disabled 
// Firmware Version: 4.3.5
PacketCounter	Acc_X	Acc_Y	Acc_Z	Quat_q0	Quat_q1	Quat_q2	Quat_q3
43442	-1.864158	1.887988	9.443712	-0.836994	-0.019991	-0.131516	-0.530797
43443	-1.843145	1.960774	9.341601	-0.837020	-0.019722	-0.131296	-0.530819
43444	-1.850615	1.593058	9.358796	-0.837037	-0.019039	-0.130928	-0.530910
43445	-1.783064	1.422232	9.368230	-0.836968	-0.018879	-0.130980	-0.531011
43446	-1.823729	1.642761	9.437017	-0.836836	-0.018975	-0.131298	-0.531137
43447	-1.835341	1.687641	9.398940	-0.836685	-0.018966	-0.131747	-0.531263
43448	-1.811292	1.798263	9.377507	-0.836553	-0.018815	-0.132142	-0.531380
43449	-1.857898	1.812415	9.375458	-0.836498	-0.018495	-0.132409	-0.531410
43450	-1.947600	1.629701	9.407892	-0.836492	-0.017900	-0.132509	-0.531415
43451	-1.838048	1.473671	9.456228	-0.836440	-0.017715	-0.132831	-0.531422
43452	-1.866838	1.795137	9.596240	-0.836363	-0.017968	-0.133322	-0.531413
43453	-1.955374	2.042517	9.632191	-0.836346	-0.017819	-0.133553	-0.531386
43454	-2.019723	1.847132	9.398530	-0.836433	-0.017212	-0.133438	-0.531298
43455	-1.955982	1.617898	9.476853	-0.836568	-0.016637	-0.133268	-0.531147
43456	-1.905426	1.610479	9.549116	-0.836649	-0.016280	-0.133283	-0.531026
43457	-1.926563	1.486697	9.658064	-0.836651	-0.016260	-0.133483	-0.530974
43458	-1.858852	1.558660	9.553265	-0.836604	-0.016664	-0.134062	-0.530889
43459	-1.954146	1.823724	9.571883	-0.836540	-0.016963	-0.134590	-0.530846
43460	-2.017915	1.693232	9.697950	-0.836412	-0.016759	-0.134948	-0.530964
43461	-2.044363	1.642609	9.616207	-0.836291	-0.016735	-0.135345	-0.531055
43462	-2.028609	1.918736	9.554053	-0.836257	-0.016659	-0.135503	-0.531071
43463	-2.004490	1.889870	9.423478	-0.836330	-0.016163	-0.135330	-0.531014
43464	-1.937310	1.628859	9.403594	-0.836476	-0.015406	-0.134930	-0.530909
43465	-1.938295	1.360292	9.312556	-0.836671	-0.014930	-0.134778	-0.530654
43466	-1.890338	1.397257	9.214663	-0.836869	-0.014988	-0.135062	-0.530267
43467	-1.958258	1.520563	9.092061	-0.837054	-0.015416	-0.135667	-0.529809
43468	-2.027692	1.749823	9.218926	-0.837253	-0.015906	-0.136334	-0.529308
43469	-1.938200	1.951506	9.269656	-0.837550	-0.015671	-0.136673	-0.528758
43470	-1.804009	1.555029	9.371842	-0.837891	-0.014929	-0.136855	-0.528192
43471	-1.912461	1.429602	9.199875	-0.838147	-0.014399	-0.137265	-0.527694
43472	-2.101475	1.572886	9.179564	-0.838347	-0.014279	-0.137866	-0.527222
43473	-2.051084	1.794252	9.138678	-0.838561	-0.014357	-0.138645	-0.526676
43474	-2.265896	2.055534	9.187918	-0.838908	-0.014222	-0.139168	-0.525989
43475	-2.129107	1.859532	9.198478	-0.839474	-0.013671	-0.139319	-0.525058
43476	-1.864912	1.470320	9.192569	-0.840070	-0.012949	-0.139677	-0.524028
43477	-1.722586	1.213353	9.182613	-0.840506	-0.012768	-0.140628	-0.523078
43478	-2.067993	1.593803	9.153513	-0.840786	-0.013262	-0.142176	-0.522197
43479	-2.216001	1.948173	9.061610	-0.841031	-0.013440	-0.143723	-0.521373
43480	-2.188668	2.038335	8.786098	-0.841324	-0.013229	-0.145099	-0.520524
43481	-1.988864	2.083982	9.036059	-0.841658	-0.012018	-0.146022	-0.519754
43482	-1.797521	1.576906	8.904470	-0.841881	-0.009946	-0.146971	-0.519169
43483	-1.886329	1.429092	8.580101	-0.842022	-0.007869	-0.148233	-0.518618
43484	-2.242023	1.390102	8.340292	-0.842077	-0.006005	-0.149910	-0.518070
43485	-2.410599	1.356392	8.926883	-0.842005	-0.004566	-0.152184	-0.517539
43486	-2.149770	1.313606	9.219083	-0.841768	-0.003472	-0.155258	-0.517020
43487	-2.217292	1.880652	9.556197	-0.841345	-0.002771	-0.158870	-0.516615
43488	-2.535189	2.217473	9.402739	-0.840824	-0.001519	-0.162291	-0.516405
43489	-3.039000	2.113357	9.610936	-0.840267	-0.000009	-0.165234	-0.516380
43490	-2.935362	2.191375	9.762499	-0.839693	0.001558	-0.167812	-0.516481
43491	-2.660614	2.232723	9.782103	-0.839156	0.003536	-0.170077	-0.516603
43492	-2.947262	2.048655	9.667376	-0.838577	0.005406	-0.172187	-0.516828
43493	-3.021543	1.741574	9.745829	-0.837900	0.006760	-0.174419	-0.517162
43494	-3.111210	1.804157	9.746778	-0.837134	0.007210	-0.177128	-0.517476
43495	-3.124007	2.124719	10.393584	-0.836238	0.007333	-0.179827	-0.517990
43496	-2.956286	2.286627	10.723149	-0.835246	0.007648	-0.182309	-0.518719
43497	-3.126214	2.414146	11.111237	-0.834189	0.008190	-0.184192	-0.519744
43498	-3.550211	2.370849	10.959606	-0.833124	0.008629	-0.185400	-0.521015
43499	-3.658247	2.191812	11.051658	-0.831917	0.008285	-0.186477	-0.522563
43500	-3.384896	2.085052	10.208583	-0.830737	0.007798	-0.187529	-0.524069
43501	-3.626265	2.230948	10.445478	-0.829675	0.006272	-0.188344	-0.525478
43502	-3.963205	2.595888	11.087618	-0.828746	0.003523	-0.188612	-0.526872
43503	-4.057334	2.886849	11.573751	-0.827937	0.000127	-0.188063	-0.528349
43504	-4.055205	3.001050	11.433842	-0.827386	-0.003323	-0.186412	-0.529784
43505	-3.536517	2.892150	10.792843	-0.827221	-0.005980	-0.183355	-0.531085
43506	-2.899232	2.036645	9.851396	-0.827254	-0.007507	-0.179397	-0.532364
43507	-2.776437	1.437579	9.156055	-0.827199	-0.009104	-0.175542	-0.533708
43508	-2.672383	0.806237	8.806334	-0.827027	-0.011104	-0.172243	-0.535009
43509	-2.457467	0.791737	8.401834	-0.826892	-0.013935	-0.169613	-0.535992
43510	-2.135148	0.795623	8.128363	-0.826871	-0.017098	-0.167162	-0.536702
43511	-1.937522	0.815617	7.830207	-0.826963	-0.020240	-0.165313	-0.537024
43512	-2.026280	1.399687	7.623795	-0.827366	-0.022968	-0.163638	-0.536805
43513	-2.037609	1.531798	7.772490	-0.828140	-0.024605	-0.161830	-0.536087
43514	-1.915083	1.380193	7.557284	-0.829259	-0.025863	-0.160136	-0.534805
43515	-1.758876	1.444419	7.699907	-0.830519	-0.027191	-0.158881	-0.533156
43516	-1.690558	1.661748	7.779656	-0.831741	-0.028296	-0.158315	-0.531359
43517	-1.586245	1.499678	8.261778	-0.832783	-0.029180	-0.158479	-0.529628
43518	-1.805107	1.611602	8.375523	-0.833532	-0.030484	-0.159576	-0.528044
43519	-1.949269	2.269914	8.475908	-0.834091	-0.031945	-0.161122	-0.526604
43520	-2.043861	2.834746	8.784410	-0.834514	-0.032712	-0.162655	-0.525414
43521	-2.211337	2.868884	9.010852	-0.834903	-0.032454	-0.163799	-0.524456
43522	-2.276396	2.742907	9.032389	-0.835257	-0.031804	-0.164677	-0.523657
43523	-2.223866	2.605208	9.086648	-0.835517	-0.031088	-0.165594	-0.522995
43524	-2.578486	2.499510	9.177348	-0.835559	-0.030752	-0.166932	-0.522522
43525	-2.653469	2.770985	9.484778	-0.835416	-0.030877	-0.168457	-0.522254
43526	-2.538848	3.003684	9.741903	-0.835221	-0.030843	-0.169781	-0.522139
43527	-2.565175	2.711797	9.709873	-0.834962	-0.030496	-0.170881	-0.522215
43528	-2.654451	2.436831	9.734525	-0.834594	-0.030595	-0.171973	-0.522438
43529	-2.548942	2.392032	9.726573	-0.834094	-0.031015	-0.173152	-0.522823
43530	-2.447939	2.365161	9.505039	-0.833444	-0.031564	-0.174404	-0.523410
43531	-2.523215	2.308226	9.453126	-0.832630	-0.032626	-0.175886	-0.524144
43532	-2.713424	2.274463	9.605069	-0.831719	-0.033912	-0.177335	-0.525020
43533	-2.610621	2.410272	9.271974	-0.830822	-0.035060	-0.178601	-0.525935
43534	-2.390862	2.393683	9.293060	-0.830015	-0.035670	-0.179553	-0.526843
43535	-2.492642	2.097284	9.088707	-0.829300	-0.036111	-0.180456	-0.527630
43536	-2.424465	1.596662	8.817373	-0.828608	-0.036965	-0.181569	-0.528276
43537	-2.382302	1.765366	8.475470	-0.827842	-0.038960	-0.183395	-0.528703
43538	-2.371374	2.470431	8.782097	-0.827153	-0.040621	-0.185153	-0.529043
43539	-2.389136	2.745633	8.738196	-0.826813	-0.040437	-0.186224	-0.529212
43540	-2.533139	2.255582	8.566165	-0.826810	-0.038988	-0.186780	-0.529130
43541	-2.464299	1.836263	8.304761	-0.826915	-0.037858	-0.187561	-0.528771
43542	-2.482592	1.870371	8.122954	-0.827010	-0.037463	-0.188962	-0.528152
43543	-2.454869	1.973610	7.833448	-0.827148	-0.037282	-0.190974	-0.527223
43544	-2.462865	1.812954	7.138102	-0.827421	-0.036995	-0.193589	-0.525860
43545	-2.282766	1.153471	6.061663	-0.827893	-0.036730	-0.197393	-0.523718
43546	-2.087465	0.795085	4.741139	-0.828550	-0.037498	-0.203560	-0.520252
43547	-3.264052	0.704992	4.958988	-0.829221	-0.040494	-0.212775	-0.515246
43548	-4.211867	0.805542	5.345010	-0.830424	-0.046905	-0.224069	-0.507926
43549	-4.071766	1.818512	5.657723	-0.832376	-0.055850	-0.236896	-0.497907
43550	-3.144054	2.640703	5.396285	-0.834910	-0.064319	-0.250002	-0.486093
43551	-2.744597	2.890523	5.128153	-0.838006	-0.070351	-0.262786	-0.473013
43552	-3.322459	2.749635	5.319304	-0.841460	-0.073907	-0.275219	-0.459062
43553	-4.867141	2.260966	5.629877	-0.845286	-0.076959	-0.287404	-0.443810
43554	-6.012017	1.718465	5.986454	-0.849569	-0.081506	-0.300168	-0.426014
43555	-6.346235	1.282326	6.235048	-0.853682	-0.089107	-0.315228	-0.404868
43556	-6.466225	1.772282	5.790188	-0.857176	-0.098340	-0.332314	-0.380980
43557	-6.722952	2.321684	5.604750	-0.860104	-0.107747	-0.350212	-0.354912
43558	-8.040680	2.116884	5.260347	-0.862298	-0.117230	-0.368973	-0.326432
43559	-9.329285	2.168574	5.271029	-0.863854	-0.128602	-0.388463	-0.293794
43560	-9.512222	3.479364	5.996388	-0.864722	-0.140666	-0.407680	-0.257422
43561	-9.438583	5.129715	6.173050	-0.864830	-0.149368	-0.425978	-0.219774
43562	-9.533634	6.016399	6.022066	-0.864746	-0.152605	-0.442198	-0.182721
43563	-10.054220	4.842531	5.436546	-0.864031	-0.151398	-0.457280	-0.146371
43564	-10.589624	3.585327	4.757768	-0.862118	-0.149130	-0.471867	-0.108878
43565	-10.576810	3.394129	4.469976	-0.858116	-0.146533	-0.487055	-0.070296
43566	-11.156039	4.045349	4.232056	-0.852488	-0.143947	-0.501550	-0.031472
43567	-12.210083	4.350616	4.378220	-0.846075	-0.142834	-0.513496	0.008799
43568	-12.608109	4.373218	5.176250	-0.839141	-0.140339	-0.523259	0.048457
43569	-12.275129	4.536886	4.911773	-0.831139	-0.135494	-0.532577	0.084915
43570	-12.919439	4.936804	3.794710	-0.821351	-0.129024	-0.543101	0.117373
43571	-13.603592	5.514300	3.478636	-0.811828	-0.121275	-0.551867	0.147211
43572	-13.273640	3.712259	3.850915	-0.803096	-0.109363	-0.559477	0.173383
43573	-11.900523	0.272767	2.597107	-0.793229	-0.097500	-0.567587	0.197803
43574	-10.672076	0.167846	2.093227	-0.781904	-0.091160	-0.575301	0.222135
43575	-9.733029	2.596487	2.200585	-0.770251	-0.085833	-0.583401	0.242878
43576	-9.496078	2.915180	2.621706	-0.757906	-0.074480	-0.595715	0.255255
43577	-9.629096	0.442111	2.739827	-0.744745	-0.060095	-0.610831	0.261972
43578	-9.572263	-1.656074	1.733932	-0.730161	-0.047417	-0.627507	0.266177
43579	-10.139853	-2.138346	0.253868	-0.716865	-0.042296	-0.639755	0.273914
43580	-9.521944	-1.457594	1.630147	-0.705891	-0.041346	-0.647582	0.283981
43581	-8.056426	0.124157	2.152525	-0.694509	-0.039333	-0.657021	0.290573
43582	-8.011913	4.022255	3.007176	-0.683927	-0.033563	-0.668474	0.290276
43583	-5.499564	3.088139	3.931222	-0.674182	-0.020027	-0.684617	0.276365
43584	-8.750289	-3.573145	1.285547	-0.665380	-0.011697	-0.700503	0.257735
43585	-11.496211	-7.216163	0.758153	-0.659929	-0.015005	-0.708316	0.250114
43586	-9.530816	-2.554598	3.401410	-0.651285	-0.024186	-0.714967	0.253110
43587	-7.789030	-1.961409	2.393100	-0.640604	-0.024576	-0.725944	0.249053
43588	-7.920723	-5.272048	0.192006	-0.628294	-0.024050	-0.738361	0.243909
43589	-8.166755	-4.179605	-0.090162	-0.616112	-0.028121	-0.748274	0.244341
43590	-8.385481	-2.008063	0.032595	-0.603674	-0.031907	-0.758073	0.244715
43591	-9.523691	-1.269761	-1.055799	-0.590777	-0.034672	-0.768539	0.243161
43592	-10.522113	-1.914006	-2.080062	-0.578264	-0.036186	-0.779046	0.239561
43593	-10.613581	-3.344956	-3.502245	-0.566837	-0.039238	-0.787591	0.238446
43594	-9.163726	-2.850288	-3.233288	-0.555388	-0.042332	-0.795500	0.238604
43595	-8.280491	-2.851621	-3.520029	-0.543896	-0.043625	-0.803871	0.236783
43596	-7.961787	-3.428822	-3.669496	-0.532750	-0.043718	-0.812407	0.232938
43597	-8.150106	-3.856915	-4.019120	-0.521763	-0.043900	-0.820949	0.227769
43598	-8.908373	-3.646433	-4.474983	-0.511470	-0.045081	-0.828704	0.222748
43599	-9.231222	-3.241559	-4.555592	-0.502022	-0.047517	-0.835304	0.219048
43600	-9.357312	-2.762814	-4.220852	-0.493070	-0.050263	-0.841070	0.216694
43601	-9.193653	-2.622032	-3.973014	-0.484543	-0.052234	-0.846535	0.214169
43602	-9.537076	-2.912658	-4.014799	-0.476733	-0.053170	-0.851769	0.210685
43603	-9.921453	-3.465590	-4.691219	-0.470244	-0.053077	-0.856569	0.205776
43604	-10.278549	-3.928401	-5.065193	-0.465763	-0.053663	-0.859725	0.202626
43605	-10.405245	-3.627098	-4.788731	-0.463082	-0.055270	-0.861084	0.202570
43606	-10.142278	-3.090721	-4.699200	-0.461430	-0.057339	-0.861391	0.204450
43607	-10.331519	-2.946964	-4.983659	-0.460442	-0.058802	-0.861470	0.205924
43608	-10.520409	-3.574398	-5.699383	-0.460810	-0.059708	-0.860964	0.206954
43609	-10.338054	-3.753045	-5.858481	-0.462687	-0.060448	-0.859468	0.208763
43610	-9.829974	-3.650948	-6.237641	-0.465949	-0.060851	-0.857120	0.211031
43611	-9.686542	-3.544712	-5.735502	-0.470487	-0.060981	-0.854007	0.213531
43612	-9.725674	-3.315890	-5.371042	-0.476663	-0.060751	-0.850013	0.215825
43613	-9.422598	-3.185419	-4.880546	-0.484332	-0.060075	-0.845118	0.218148
43614	-8.949360	-3.266599	-4.754901	-0.493512	-0.059346	-0.839138	0.220842
43615	-8.493649	-3.073365	-4.399818	-0.503826	-0.058307	-0.832359	0.223468
43616	-8.292460	-2.959115	-4.146455	-0.514758	-0.057261	-0.824912	0.226422
43617	-8.081669	-2.682167	-3.689731	-0.525775	-0.055925	-0.817186	0.229433
43618	-8.064506	-2.772486	-3.695617	-0.536947	-0.054461	-0.809154	0.232362
43619	-8.116479	-2.910022	-3.227122	-0.548363	-0.052709	-0.800750	0.235198
43620	-8.170614	-2.643292	-2.968072	-0.560163	-0.051216	-0.791626	0.238582
43621	-8.269877	-2.315966	-2.571298	-0.572562	-0.049430	-0.781691	0.242257
43622	-7.935733	-2.439766	-2.359858	-0.585175	-0.046945	-0.771354	0.245722
43623	-7.652440	-2.742884	-2.283783	-0.596808	-0.042971	-0.762103	0.247331
43624	-7.765251	-2.806176	-2.079779	-0.608071	-0.039648	-0.752537	0.249730
43625	-7.595210	-2.474500	-1.577489	-0.618978	-0.036321	-0.743041	0.251869
43626	-7.553406	-2.455699	-1.085389	-0.629453	-0.032393	-0.734011	0.252917
43627	-7.958311	-2.882159	-0.782590	-0.639891	-0.027872	-0.725004	0.253242
43628	-7.895102	-3.142883	-0.408092	-0.650226	-0.023097	-0.715801	0.253575
43629	-8.057238	-3.024835	-0.171957	-0.660312	-0.018684	-0.706350	0.254378
43630	-8.130638	-2.715197	0.313892	-0.670281	-0.014138	-0.696704	0.255200
43631	-8.123288	-2.791368	0.521862	-0.680036	-0.008848	-0.687177	0.255461
43632	-8.020376	-2.891589	0.852352	-0.689523	-0.003258	-0.677635	0.255655
43633	-7.993257	-3.100451	0.748934	-0.698685	0.002676	-0.668185	0.255658
43634	-7.815991	-3.060094	0.877731	-0.707635	0.007931	-0.658323	0.256516
43635	-7.633271	-2.929431	1.073585	-0.716077	0.012937	-0.648639	0.257555
43636	-8.047009	-2.772456	1.424798	-0.723983	0.018009	-0.639402	0.258241
43637	-8.491655	-3.181682	1.593735	-0.731535	0.023513	-0.630521	0.258355
43638	-8.935656	-3.464694	1.650549	-0.738942	0.028932	-0.621580	0.258392
43639	-9.095962	-3.517019	2.014237	-0.746604	0.033734	-0.611872	0.258956
43640	-8.891209	-3.684163	2.277862	-0.754193	0.039048	-0.601998	0.259359
43641	-8.790645	-3.771703	2.685139	-0.761688	0.043979	-0.591838	0.260048
43642	-8.661466	-3.647316	3.365261	-0.768976	0.049060	-0.581706	0.260553
43643	-8.279946	-3.993327	3.790242	-0.775996	0.054221	-0.571630	0.261015
43644	-7.922613	-4.266705	4.200079	-0.782846	0.058939	-0.561541	0.261438
43645	-7.763797	-4.475229	4.855020	-0.789209	0.063289	-0.551905	0.261810
43646	-7.974130	-4.653878	5.326409	-0.794900	0.067387	-0.543066	0.262052
43647	-8.155649	-4.847938	5.580727	-0.799878	0.070901	-0.535079	0.262409
43648	-8.231952	-4.816823	5.430931	-0.803894	0.073857	-0.528480	0.262696
43649	-8.595693	-4.525275	5.337921	-0.806908	0.075244	-0.523179	0.263670
43650	-8.660788	-4.593521	5.251013	-0.808512	0.076828	-0.520074	0.264440
43651	-8.816730	-4.729898	5.081657	-0.809009	0.077152	-0.518461	0.265987
43652	-8.755475	-4.455073	5.376905	-0.808351	0.076904	-0.518506	0.267967
43653	-8.807346	-4.656606	5.390183	-0.806678	0.076522	-0.520219	0.269791
43654	-8.992296	-4.626205	5.547772	-0.804575	0.075237	-0.522783	0.271472
43655	-8.970065	-4.545193	5.646827	-0.802156	0.073003	-0.526060	0.272906
43656	-9.079858	-4.771787	5.453506	-0.799331	0.070222	-0.530091	0.274123
43657	-9.512297	-4.369441	5.040500	-0.796122	0.066282	-0.534465	0.275941
43658	-9.584201	-3.766829	4.649891	-0.792440	0.061821	-0.539294	0.278171
43659	-9.468092	-3.409871	4.126447	-0.788283	0.056918	-0.544766	0.280357
43660	-8.891664	-3.135039	3.675140	-0.783678	0.051359	-0.550846	0.282453
43661	-8.290137	-3.206475	3.181513	-0.778269	0.045600	-0.558081	0.284188
43662	-8.090659	-3.281313	2.500470	-0.771970	0.039771	-0.566558	0.285469
43663	-8.332669	-3.282210	2.152041	-0.764957	0.033665	-0.575891	0.286456
43664	-8.584896	-3.263137	1.938245	-0.757397	0.028051	-0.585891	0.286871
43665	-8.649841	-3.367389	1.636347	-0.749541	0.022722	-0.595964	0.287226
43666	-8.299468	-3.273315	1.508978	-0.741283	0.018111	-0.606125	0.287721
43667	-7.586591	-3.571570	1.020474	-0.732416	0.014577	-0.616722	0.288112
43668	-7.123560	-3.452780	0.791720	-0.723162	0.011093	-0.627197	0.289030
43669	-6.683503	-3.402163	0.534300	-0.713174	0.008877	-0.638233	0.289764
43670	-6.643779	-3.306800	0.373706	-0.702674	0.007801	-0.649544	0.290313
43671	-6.509213	-3.495330	0.123056	-0.691608	0.008046	-0.661142	0.290698
43672	-6.548304	-3.622442	-0.014228	-0.680197	0.008745	-0.672474	0.291606
43673	-6.580195	-3.440071	-0.079359	-0.668503	0.009881	-0.683481	0.293018
43674	-6.404659	-3.319769	-0.061856	-0.656270	0.011657	-0.694518	0.294650
43675	-6.411033	-3.474173	-0.098508	-0.643342	0.014099	-0.705934	0.295922
43676	-6.746005	-3.944383	-0.715308	-0.629954	0.017078	-0.717599	0.296509
43677	-7.070462	-4.240533	-0.994272	-0.616278	0.019382	-0.728888	0.297570
43678	-7.656108	-4.120780	-1.560330	-0.602003	0.021116	-0.740369	0.298331
43679	-8.563972	-3.954314	-2.002661	-0.587410	0.022403	-0.751888	0.298516
43680	-9.212222	-4.310043	-2.457343	-0.572440	0.023428	-0.763561	0.297889
43681	-9.739233	-4.446850	-3.058494	-0.556933	0.023649	-0.775388	0.296714
43682	-10.263444	-4.424732	-3.207860	-0.541260	0.023071	-0.787146	0.294797
43683	-10.774047	-4.452141	-3.376019	-0.525751	0.021754	-0.798632	0.292062
43684	-11.150558	-4.405204	-3.549639	-0.511386	0.019829	-0.809350	0.288172
43685	-11.585623	-4.372281	-3.407767	-0.498787	0.017204	-0.818951	0.283256
43686	-11.767727	-4.392283	-3.688974	-0.488367	0.014360	-0.827338	0.277133
43687	-11.431465	-4.226199	-3.999690	-0.479681	0.010311	-0.834487	0.270983
43688	-11.308185	-3.833102	-4.185467	-0.471840	0.005373	-0.841423	0.263336
43689	-11.217080	-4.418083	-4.403786	-0.464869	-0.000232	-0.848167	0.253988
43690	-11.086492	-4.820952	-4.570841	-0.458876	-0.007006	-0.854289	0.244080
43691	-11.135097	-4.541304	-4.557501	-0.454692	-0.014885	-0.859331	0.233630
43692	-10.866516	-3.888247	-4.085850	-0.452005	-0.023614	-0.863409	0.222843
43693	-10.703995	-3.380601	-4.005554	-0.450171	-0.032630	-0.867074	0.210864
43694	-10.764545	-3.223141	-4.455226	-0.449969	-0.042580	-0.869521	0.199118
43695	-10.628684	-3.231325	-4.448563	-0.451784	-0.053125	-0.870577	0.187523
43696	-9.917089	-3.499389	-4.686799	-0.455042	-0.063868	-0.870457	0.176526
43697	-9.310930	-3.226732	-5.129501	-0.459121	-0.074831	-0.869584	0.165629
43698	-9.211812	-3.235545	-5.593342	-0.464044	-0.086020	-0.867984	0.154492
43699	-9.655826	-3.394429	-6.262470	-0.469874	-0.097819	-0.865414	0.143902
43700	-10.025222	-2.800448	-6.094246	-0.476555	-0.110481	-0.861633	0.135199
43701	-9.950733	-2.114387	-5.938843	-0.484488	-0.122733	-0.856832	0.126676
43702	-9.740531	-1.744265	-5.897923	-0.493779	-0.133819	-0.851058	0.118216
43703	-9.320771	-1.315785	-5.888559	-0.504291	-0.143491	-0.844350	0.110335
43704	-8.731039	-1.220976	-5.408929	-0.516562	-0.151992	-0.836293	0.103332
43705	-7.958518	-1.346428	-4.817943	-0.530257	-0.159524	-0.826973	0.097438
43706	-7.610875	-1.081816	-4.402139	-0.545245	-0.166294	-0.816382	0.092598
43707	-7.426179	-0.653934	-4.001726	-0.561681	-0.171336	-0.804638	0.087840
43708	-7.324808	-0.275357	-3.998655	-0.579354	-0.174295	-0.791872	0.083123
43709	-7.250746	0.205481	-3.772059	-0.598090	-0.176177	-0.777714	0.080072
43710	-6.526878	1.172718	-2.840257	-0.617274	-0.176756	-0.762590	0.078649
43711	-6.080147	1.131938	-2.095803	-0.636279	-0.175008	-0.747344	0.077445
43712	-5.879758	1.046778	-1.337888	-0.654791	-0.171806	-0.731884	0.077953
43713	-5.570469	0.972030	-0.485613	-0.672600	-0.167527	-0.716280	0.080543
43714	-5.146725	0.797529	0.388695	-0.689436	-0.161102	-0.701156	0.084285
43715	-4.798002	0.327725	0.800851	-0.705046	-0.153765	-0.686376	0.090297
43716	-4.305170	0.611756	1.977672	-0.719137	-0.146394	-0.672075	0.098620
43717	-4.236462	0.404416	2.355334	-0.731779	-0.138094	-0.658662	0.107676
43718	-4.594640	-0.142643	2.410554	-0.742843	-0.129994	-0.646018	0.118091
43719	-5.696880	-0.257679	2.202017	-0.752071	-0.122567	-0.634380	0.130112
43720	-6.535181	-0.062091	2.536506	-0.759828	-0.115301	-0.623421	0.143920
43721	-6.753385	-0.621046	2.488918	-0.766383	-0.106734	-0.613375	0.158227
43722	-6.881316	-1.390990	2.468348	-0.771837	-0.097287	-0.604065	0.172939
43723	-7.103294	-2.179486	2.595321	-0.776525	-0.087148	-0.595196	0.187501
43724	-7.185643	-3.034556	2.712916	-0.780565	-0.076860	-0.586458	0.202182
43725	-7.434872	-3.039522	2.961076	-0.784087	-0.066576	-0.577624	0.217084
43726	-7.433282	-2.947587	3.177656	-0.787167	-0.055239	-0.568995	0.231434
43727	-7.506399	-2.999562	3.440365	-0.789654	-0.042964	-0.560768	0.245233
43728	-7.652500	-3.264293	3.613233	-0.791464	-0.030003	-0.553007	0.258588
43729	-7.626109	-3.497342	3.680710	-0.792392	-0.017382	-0.545777	0.271919
43730	-7.444984	-3.953488	3.707978	-0.792422	-0.005051	-0.539280	0.284989
43731	-7.283230	-4.464769	3.776569	-0.791401	0.006801	-0.533756	0.297896
43732	-7.203172	-4.795975	3.794315	-0.788993	0.018303	-0.529760	0.310659
43733	-7.499588	-5.215692	3.739002	-0.785300	0.029612	-0.527293	0.323093
43734	-8.100942	-5.576443	3.922679	-0.780726	0.040628	-0.525675	0.335384
43735	-8.277645	-6.034543	3.708492	-0.775084	0.051506	-0.525085	0.347674
43736	-8.279691	-6.442361	3.453507	-0.768389	0.061724	-0.525376	0.360205
43737	-8.541564	-6.649391	3.199284	-0.760608	0.071133	-0.526633	0.372925
43738	-8.502633	-6.549072	3.040344	-0.751902	0.080206	-0.528820	0.385434
43739	-8.192694	-6.681356	2.894658	-0.742521	0.089220	-0.531665	0.397535
43740	-7.752513	-6.720008	2.719640	-0.732674	0.098531	-0.534920	0.409072
43741	-7.284644	-7.008124	2.645692	-0.722283	0.108208	-0.538404	0.420380
43742	-6.515215	-7.181608	2.273930	-0.711176	0.117948	-0.542268	0.431582
43743	-6.214048	-7.074242	2.152707	-0.699295	0.126896	-0.546821	0.442572
43744	-6.439239	-6.763112	2.354699	-0.686905	0.135070	-0.552256	0.452693
43745	-6.957359	-6.995072	2.709395	-0.674258	0.142977	-0.558774	0.461199
43746	-7.508552	-7.865327	2.518301	-0.661706	0.150658	-0.566015	0.468054
43747	-7.995979	-8.751005	2.099861	-0.649760	0.157270	-0.572597	0.474563
43748	-8.370499	-8.754846	1.622802	-0.637890	0.162851	-0.579028	0.480940
43749	-9.026588	-8.501910	1.077450	-0.625944	0.167687	-0.585938	0.486570
43750	-9.316582	-8.406331	0.798211	-0.614448	0.172411	-0.593394	0.490521
43751	-9.574999	-8.478123	0.246720	-0.602118	0.175457	-0.602135	0.494068
43752	-9.703878	-9.080577	-0.163750	-0.589273	0.177655	-0.611926	0.496731
43753	-9.406987	-9.587879	-0.527238	-0.576198	0.179383	-0.622350	0.498495
43754	-8.959080	-9.534668	-0.484027	-0.563299	0.180758	-0.633296	0.498955
43755	-8.721375	-9.371054	-0.252310	-0.550705	0.181787	-0.644806	0.497899
43756	-8.534724	-9.131053	0.008247	-0.538853	0.182268	-0.656453	0.495464
43757	-8.001338	-9.022222	-0.127699	-0.527801	0.182146	-0.667961	0.492013
43758	-7.362457	-8.734495	-0.216214	-0.517185	0.181528	-0.679624	0.487523
43759	-7.036198	-8.430750	-0.101075	-0.506450	0.180938	-0.692043	0.481504
43760	-7.061957	-8.688033	-0.261864	-0.495729	0.180413	-0.704992	0.474016
43761	-7.370879	-8.788212	-0.703942	-0.485966	0.179432	-0.717501	0.465654
43762	-7.431018	-8.728304	-1.005955	-0.477608	0.177753	-0.729023	0.456968
43763	-7.234895	-8.372470	-1.390731	-0.469794	0.175463	-0.740453	0.447478
43764	-7.200259	-8.494847	-1.826579	-0.461996	0.172824	-0.752135	0.437018
43765	-7.097973	-8.480838	-2.382264	-0.454284	0.169521	-0.763856	0.425926
43766	-7.311795	-8.260756	-2.900802	-0.446488	0.165267	-0.775698	0.414280
43767	-7.906719	-8.236335	-3.151921	-0.438542	0.160105	-0.787555	0.402249
43768	-8.422519	-8.240832	-3.255816	-0.430950	0.154345	-0.799170	0.389597
43769	-8.544066	-8.060739	-2.814680	-0.424882	0.148185	-0.810014	0.376022
43770	-8.464719	-7.689069	-2.207448	-0.420532	0.141396	-0.820031	0.361537
43771	-8.551098	-7.359527	-1.813598	-0.417867	0.133657	-0.829250	0.346219
43772	-8.941787	-7.190177	-1.748290	-0.416906	0.124346	-0.837527	0.330569
43773	-9.402756	-7.121192	-1.813234	-0.417444	0.113456	-0.844676	0.315263
43774	-9.400919	-7.028388	-2.153595	-0.418462	0.101008	-0.851120	0.300468
43775	-9.462207	-6.751457	-2.558126	-0.419654	0.086768	-0.856890	0.286535
43776	-9.898562	-6.381257	-3.093160	-0.420585	0.071243	-0.862290	0.272925
43777	-10.060564	-6.222659	-3.494035	-0.421157	0.055036	-0.867296	0.259606
43778	-10.100306	-6.222859	-3.985419	-0.421438	0.038733	-0.871959	0.246125
43779	-10.332101	-5.933287	-4.609217	-0.422899	0.021750	-0.875443	0.232985
43780	-10.439017	-5.178908	-4.611174	-0.426479	0.004646	-0.877241	0.220324
43781	-9.606809	-4.591568	-4.282587	-0.430867	-0.012059	-0.877909	0.208528
43782	-8.466505	-4.577923	-4.139383	-0.436072	-0.027788	-0.877684	0.196822
43783	-7.507961	-4.495357	-3.964376	-0.442390	-0.043148	-0.876343	0.185613
43784	-7.519225	-4.154589	-4.423575	-0.449883	-0.058806	-0.873893	0.174521
43785	-7.634722	-3.842080	-4.576035	-0.459192	-0.075246	-0.869644	0.164925
43786	-7.309938	-3.216225	-4.491898	-0.469290	-0.091659	-0.864280	0.156158
43787	-7.181212	-3.021629	-4.647033	-0.479877	-0.107720	-0.858022	0.148027
43788	-7.409791	-2.142027	-4.342973	-0.490526	-0.123445	-0.851029	0.141052
43789	-7.439255	-1.721985	-4.496704	-0.501224	-0.138156	-0.843746	0.133344
43790	-7.248808	-1.533151	-4.732303	-0.511773	-0.153305	-0.835701	0.127240
43791	-6.918221	-1.289113	-4.739001	-0.521883	-0.167962	-0.827282	0.122600
43792	-6.404113	-0.855482	-4.780570	-0.532086	-0.181442	-0.818341	0.119509
43793	-6.231761	-0.284542	-4.694450	-0.543215	-0.192777	-0.808813	0.116518
43794	-6.569143	-0.367181	-4.609336	-0.555982	-0.202246	-0.798185	0.113497
43795	-6.359133	-0.191424	-4.274194	-0.570051	-0.210779	-0.786215	0.111714
43796	-6.113910	0.490267	-3.572339	-0.584328	-0.218565	-0.773640	0.110775
43797	-6.592501	0.297881	-3.243700	-0.599132	-0.224756	-0.760549	0.109961
43798	-6.741440	0.570255	-2.655254	-0.613887	-0.230004	-0.746955	0.110901
43799	-6.786786	0.954305	-2.322560	-0.628492	-0.233506	-0.733324	0.112732
43800	-6.688732	1.009851	-2.318046	-0.642657	-0.235264	-0.719973	0.115247
43801	-6.739201	1.228040	-1.938432	-0.656043	-0.235812	-0.707001	0.118952
43802	-6.700442	1.340767	-1.516459	-0.668747	-0.234551	-0.694667	0.123288
43803	-6.594393	0.982225	-1.158360	-0.681046	-0.231675	-0.682658	0.128383
43804	-6.596609	0.543360	-0.761691	-0.692883	-0.227488	-0.670950	0.134123
43805	-6.695909	0.443175	-0.368605	-0.704114	-0.222366	-0.659551	0.140599
43806	-6.904696	0.429844	0.087772	-0.714830	-0.216020	-0.648579	0.147306
43807	-7.148593	0.292086	0.553416	-0.725201	-0.208558	-0.637782	0.154339
43808	-7.467636	0.034521	1.024092	-0.735155	-0.199731	-0.627333	0.161577
43809	-7.814705	-0.252460	1.663362	-0.744505	-0.189928	-0.617211	0.169379
43810	-7.892180	-0.345628	2.358921	-0.752843	-0.179362	-0.607869	0.177629
43811	-8.141599	-0.677092	2.843345	-0.760239	-0.167800	-0.599529	0.185594
43812	-8.509211	-0.809839	3.142346	-0.766710	-0.156205	-0.591677	0.194100
43813	-8.440591	-0.889684	3.373086	-0.772325	-0.144196	-0.584361	0.203086
43814	-8.095117	-1.029640	3.337506	-0.776796	-0.132359	-0.577821	0.212584
43815	-7.694049	-1.364307	3.540725	-0.780028	-0.120908	-0.572246	0.222425
43816	-7.532807	-1.901930	3.569781	-0.781914	-0.109935	-0.567952	0.232281
43817	-7.670165	-2.133809	3.662821	-0.782675	-0.099598	-0.564704	0.242096
43818	-7.906074	-2.533620	3.756531	-0.782466	-0.089367	-0.562667	0.251331
43819	-8.238805	-3.142532	3.442010	-0.781464	-0.079330	-0.561668	0.259903
43820	-8.694283	-3.263035	3.388592	-0.779895	-0.070320	-0.560958	0.268599
43821	-9.114231	-3.071725	3.470224	-0.777962	-0.062023	-0.560403	0.277268
43822	-9.381343	-2.967775	3.680096	-0.775754	-0.053628	-0.560396	0.285106
43823	-9.606806	-3.356862	3.563107	-0.773238	-0.045464	-0.561029	0.292031
43824	-10.148345	-3.632065	3.503794	-0.770439	-0.038290	-0.562038	0.298450
43825	-10.796561	-3.527278	3.512267	-0.767468	-0.031727	-0.563278	0.304472
43826	-10.944680	-3.679808	3.557555	-0.764139	-0.025509	-0.564934	0.310307
43827	-11.130634	-3.635372	3.658640	-0.760365	-0.019929	-0.567137	0.315917
43828	-11.682730	-3.493299	3.745138	-0.756198	-0.014923	-0.569973	0.321050
43829	-11.838949	-3.441640	3.376700	-0.751583	-0.010711	-0.573317	0.326062
43830	-11.875736	-3.082268	3.001641	-0.746604	-0.006984	-0.577326	0.330498
43831	-12.151899	-3.085115	2.641338	-0.742002	-0.003605	-0.581148	0.334197
43832	-11.831243	-3.049210	2.545415	-0.738125	-0.001299	-0.583900	0.337981
43833	-11.110827	-2.485094	2.929309	-0.734484	0.000207	-0.586569	0.341278
43834	-11.097333	-2.388483	3.273524	-0.731383	0.001716	-0.589322	0.343184
43835	-10.769166	-2.765798	3.364268	-0.729421	0.003451	-0.591354	0.343852
43836	-9.951918	-2.132491	3.671426	-0.728419	0.003200	-0.592457	0.344080
43837	-9.752318	-2.173615	4.354042	-0.728605	0.002525	-0.593264	0.342296
43838	-10.146961	-2.294438	4.580428	-0.730566	-0.000539	-0.591879	0.340516
43839	-9.781364	-0.948365	5.636970	-0.734190	-0.006174	-0.588114	0.339189
43840	-8.787243	0.201537	6.036074	-0.738309	-0.012571	-0.584532	0.336251
43841	-8.766755	0.927412	6.439077	-0.743372	-0.019213	-0.580817	0.331181
43842	-8.048920	1.990796	7.367126	-0.749474	-0.024559	-0.577278	0.323166
43843	-8.206519	2.391043	8.034675	-0.757152	-0.026330	-0.574192	0.310373
43844	-8.205811	0.313655	8.153994	-0.766382	-0.025954	-0.570702	0.293741
43845	-8.179496	-1.210232	8.271805	-0.775981	-0.027800	-0.565367	0.278283
43846	-7.775599	-2.212896	8.958269	-0.785884	-0.031890	-0.557719	0.265178
43847	-7.281690	-2.398993	10.169728	-0.796067	-0.039411	-0.547042	0.255871
43848	-6.724255	-1.239148	11.262712	-0.805707	-0.046735	-0.535819	0.248092
43849	-6.125803	-0.813955	11.971387	-0.814360	-0.050941	-0.526262	0.239315
43850	-5.934137	-1.958973	10.972012	-0.822997	-0.053230	-0.516567	0.230220
43851	-5.397863	-3.000756	10.238801	-0.831973	-0.057175	-0.504613	0.223423
43852	-4.678594	-3.635508	10.235286	-0.840531	-0.062375	-0.491697	0.218746
43853	-4.217334	-4.659132	10.223449	-0.848311	-0.071315	-0.477610	0.217190
43854	-4.562831	-4.104361	10.766475	-0.855082	-0.083992	-0.462828	0.218106
43855	-5.704195	-3.196773	11.332627	-0.861354	-0.099186	-0.447144	0.219758
43856	-5.977489	-2.536974	11.224269	-0.866655	-0.115519	-0.432157	0.220918
43857	-6.223790	-1.187169	11.405814	-0.871289	-0.131054	-0.418775	0.219792
43858	-6.971677	-0.762878	10.793809	-0.875821	-0.141259	-0.409116	0.213561
43859	-8.998829	-2.196318	8.879346	-0.881123	-0.147433	-0.400924	0.202844
43860	-11.210495	-3.765837	7.643875	-0.886346	-0.156371	-0.391551	0.191381
43861	-13.380851	-3.142693	6.523215	-0.890893	-0.169925	-0.381097	0.179448
43862	-15.358058	-0.329207	6.015548	-0.895105	-0.186932	-0.368779	0.166872
43863	-15.995428	2.762935	5.246449	-0.899562	-0.200651	-0.356825	0.152329
43864	-16.380326	3.784192	3.981548	-0.904462	-0.207218	-0.346977	0.136440
43865	-15.778982	3.534729	3.096206	-0.910130	-0.206349	-0.338476	0.120487
43866	-14.535233	1.736798	2.497372	-0.916462	-0.201797	-0.328867	0.105929
43867	-13.361809	1.140911	1.974506	-0.922397	-0.199031	-0.317560	0.093414
43868	-13.181120	1.552175	1.672271	-0.927806	-0.198104	-0.304745	0.084031
43869	-11.460193	2.776791	2.547892	-0.932242	-0.200333	-0.290606	0.079624
43870	-8.948036	3.649931	3.040456	-0.936352	-0.200281	-0.277913	0.076789
43871	-7.489167	3.191256	3.972178	-0.940206	-0.198377	-0.266542	0.074935
43872	-7.382267	1.113492	4.361305	-0.943658	-0.196981	-0.255703	0.072963
43873	-6.798315	-0.099331	4.361815	-0.946084	-0.200844	-0.243870	0.071515
43874	-5.580777	0.374258	4.923630	-0.947551	-0.208664	-0.231955	0.069306
43875	-5.325342	2.092246	5.618895	-0.948607	-0.216605	-0.220677	0.067301
43876	-5.986608	3.072470	5.919551	-0.950499	-0.218308	-0.211083	0.065853
43877	-6.440288	2.123236	5.246802	-0.953570	-0.212886	-0.202675	0.065627
43878	-5.557460	-0.226445	5.122695	-0.956893	-0.204650	-0.194948	0.066847
43879	-5.822042	-1.692434	5.069295	-0.959425	-0.198227	-0.188148	0.069351
43880	-6.328946	-1.475915	5.742024	-0.961143	-0.194451	-0.181477	0.073886
43881	-6.160172	-0.429487	6.209436	-0.962573	-0.190799	-0.174777	0.080637
43882	-5.984289	-0.573710	6.309076	-0.964043	-0.184923	-0.168422	0.089767
43883	-5.953932	-1.569401	6.849531	-0.965133	-0.178391	-0.162643	0.101207
43884	-6.187913	-2.548363	6.746711	-0.965517	-0.173109	-0.157094	0.114591
43885	-6.413588	-2.003568	7.794770	-0.965025	-0.170102	-0.151778	0.129446
43886	-6.402384	-1.716359	8.184873	-0.964074	-0.166879	-0.146835	0.145439
43887	-6.600449	-2.293854	8.338809	-0.962464	-0.164659	-0.141685	0.162716
43888	-7.490763	-1.767536	8.216660	-0.959903	-0.164909	-0.135962	0.181401
43889	-7.676211	-0.489977	8.251739	-0.956695	-0.165572	-0.129827	0.201162
43890	-7.486003	0.526852	8.328899	-0.952943	-0.165251	-0.123583	0.222079
43891	-7.219610	0.715857	8.670373	-0.948847	-0.162815	-0.118075	0.243390
43892	-7.488337	-0.385512	8.251932	-0.944113	-0.160645	-0.111951	0.265163
43893	-7.371591	0.418865	8.029308	-0.938248	-0.160696	-0.104754	0.287914
43894	-7.049724	1.331910	7.767311	-0.931521	-0.160631	-0.097714	0.311316
43895	-7.375600	1.372383	7.797555	-0.923993	-0.160561	-0.090996	0.334927
43896	-7.442182	2.192427	7.630633	-0.915727	-0.160490	-0.084080	0.358632
43897	-6.619182	3.349266	7.959239	-0.906937	-0.159024	-0.077301	0.382363
43898	-5.484775	2.886113	7.287832	-0.897806	-0.155884	-0.070855	0.405738
43899	-5.018652	2.467469	7.039914	-0.888126	-0.153838	-0.063943	0.428342
43900	-4.728709	2.674502	7.326295	-0.878162	-0.153007	-0.057079	0.449624
43901	-4.754264	2.639592	7.756196	-0.868195	-0.152573	-0.051055	0.469418
43902	-4.667582	2.628814	8.041905	-0.858131	-0.152090	-0.046259	0.488202
43903	-4.422454	2.980323	8.633218	-0.847755	-0.151302	-0.042170	0.506598
43904	-3.876220	3.470508	8.838770	-0.837049	-0.149645	-0.039722	0.524764
43905	-3.622661	3.203728	8.595633	-0.826087	-0.147447	-0.038339	0.542559
43906	-3.733715	2.691996	9.016145	-0.815003	-0.146268	-0.036426	0.559507
43907	-3.659006	2.502892	9.018896	-0.803937	-0.146270	-0.033304	0.575484
43908	-3.550354	2.846202	9.119533	-0.792933	-0.146728	-0.028937	0.590669
43909	-3.102122	2.675336	8.897599	-0.782071	-0.146567	-0.024777	0.605201
43910	-2.860784	2.227525	8.886783	-0.771439	-0.146218	-0.020769	0.618927
43911	-2.852503	2.162086	9.138147	-0.760915	-0.146053	-0.016566	0.631983
43912	-3.053797	2.195530	9.019612	-0.750386	-0.145345	-0.012858	0.644694
43913	-3.138815	2.138958	8.732079	-0.739564	-0.144120	-0.009304	0.657410
43914	-2.783343	1.913200	8.499832	-0.728370	-0.142567	-0.005737	0.670163
43915	-2.715658	1.921915	8.157334	-0.716657	-0.141232	-0.001917	0.682973
43916	-2.974443	1.924613	7.986934	-0.704343	-0.139968	0.001911	0.695921
43917	-3.247495	1.959950	8.141461	-0.691461	-0.138969	0.006245	0.708894
43918	-3.325539	2.178352	8.447174	-0.678215	-0.137895	0.010516	0.721733
43919	-3.536855	2.554302	8.875454	-0.664667	-0.136375	0.014160	0.734451
43920	-3.624414	2.530473	9.448275	-0.650814	-0.134348	0.016653	0.747070
43921	-3.937900	2.343543	9.940234	-0.636809	-0.132012	0.018414	0.759413
43922	-4.428453	1.671583	10.026009	-0.622873	-0.130466	0.021185	0.771077
43923	-4.813433	2.643562	10.795558	-0.609039	-0.130355	0.025889	0.781927
43924	-5.318861	3.856374	11.050153	-0.595327	-0.129854	0.029306	0.792379
43925	-6.602369	3.774830	11.880147	-0.581777	-0.128012	0.030118	0.802647
43926	-7.508646	3.027574	11.969250	-0.568408	-0.124932	0.029368	0.812676
43927	-7.610791	2.096340	11.838692	-0.555525	-0.120608	0.028982	0.822196
43928	-6.738727	0.895434	10.709702	-0.542955	-0.116513	0.031717	0.831035
43929	-6.536347	1.036175	10.004924	-0.530413	-0.113858	0.037939	0.839201
43930	-6.447700	1.777601	10.385695	-0.517961	-0.111132	0.045448	0.846936
43931	-6.345081	2.001499	10.192300	-0.505299	-0.107129	0.051571	0.854714
43932	-6.385365	1.729343	9.795113	-0.491912	-0.101431	0.056200	0.862888
43933	-5.890600	1.056741	9.683078	-0.477646	-0.094435	0.060273	0.871380
43934	-5.573255	0.657185	9.019341	-0.462456	-0.087052	0.064053	0.880030
43935	-5.447983	0.510869	8.793993	-0.446505	-0.079329	0.067635	0.888688
43936	-4.932771	0.010489	8.618849	-0.429772	-0.071625	0.071097	0.897280
43937	-5.167799	0.104438	8.136252	-0.412148	-0.064317	0.074836	0.905758
43938	-4.881505	0.376603	8.086684	-0.393580	-0.057192	0.079252	0.914081
43939	-4.707130	1.056876	8.129609	-0.374107	-0.050327	0.084154	0.922187
43940	-4.715746	1.770586	8.676407	-0.353933	-0.043395	0.087570	0.930150
43941	-4.361930	1.270541	8.694751	-0.333695	-0.036151	0.088840	0.937789
43942	-4.321229	0.479202	8.603819	-0.313712	-0.029249	0.089741	0.944815
43943	-4.201724	0.403085	8.440812	-0.294116	-0.023015	0.090826	0.951166
43944	-3.985964	0.653990	8.748234	-0.274857	-0.017048	0.091469	0.956973
43945	-3.936266	0.406104	8.992647	-0.255691	-0.011814	0.091355	0.962360
43946	-4.430990	0.358692	9.294592	-0.236284	-0.006931	0.090633	0.967423
43947	-4.278181	-0.326651	9.112149	-0.216653	-0.002233	0.090010	0.972088
43948	-4.347384	0.134286	9.408574	-0.196485	0.002157	0.089953	0.976370
43949	-3.943654	0.162515	9.375889	-0.175857	0.006475	0.088126	0.980442
43950	-3.613938	-0.711675	9.587839	-0.155014	0.010529	0.085466	0.984152
43951	-4.203856	-1.235511	9.017295	-0.133954	0.013805	0.083125	0.987399
43952	-4.670714	-1.137323	9.222706	-0.112219	0.017241	0.082028	0.990142
43953	-4.905997	-0.728993	8.797859	-0.089623	0.020553	0.082300	0.992357
43954	-4.394409	-0.185428	9.331210	-0.065775	0.023801	0.082529	0.994131
43955	-4.322928	-0.248175	9.309104	-0.040714	0.026928	0.082405	0.995403
43956	-3.506988	0.442242	9.605931	-0.014349	0.030124	0.082054	0.996069
43957	-3.226595	0.603054	9.508559	0.013179	0.032793	0.080449	0.996132
43958	-3.525388	0.148623	9.297200	0.040967	0.035032	0.078942	0.995421
43959	-3.904253	0.381330	9.089241	0.068353	0.037102	0.079149	0.993824
43960	-3.514223	1.191186	9.048665	0.095346	0.038971	0.079682	0.991484
43961	-3.274269	1.435235	8.765820	0.121651	0.040458	0.080141	0.988505
43962	-2.936248	1.776297	8.926115	0.147334	0.041532	0.080130	0.984960
43963	-2.644481	1.700372	9.303846	0.172492	0.042251	0.079750	0.980868
43964	-2.342776	1.795196	9.912110	0.197383	0.042105	0.078837	0.976244
43965	-2.580983	1.609376	9.915185	0.222007	0.041346	0.077791	0.971057
43966	-2.535065	1.496227	10.295329	0.245963	0.040366	0.077586	0.965325
43967	-2.741105	1.878092	10.287364	0.269180	0.039475	0.078454	0.959077
43968	-3.093112	2.111841	10.328977	0.291764	0.038894	0.079283	0.952405
43969	-3.196219	1.640987	10.527667	0.313611	0.038823	0.080412	0.945344
43970	-3.401344	2.083252	10.257179	0.334888	0.039772	0.082528	0.937794
43971	-3.205327	2.537678	9.969578	0.355885	0.041140	0.083823	0.929853
43972	-3.043360	2.726136	9.396512	0.376777	0.043002	0.084686	0.921422
43973	-2.835116	3.215108	8.870660	0.397855	0.044473	0.083973	0.912514
43974	-2.411843	2.771611	8.144467	0.419069	0.044987	0.081644	0.903156
43975	-2.128670	1.603355	8.003830	0.439921	0.044921	0.079542	0.893378
43976	-2.788745	0.307666	7.138292	0.459747	0.045452	0.080636	0.883213
43977	-2.562652	1.840956	7.164368	0.478549	0.048037	0.085811	0.872536
43978	-1.871257	3.917582	7.609885	0.496638	0.049125	0.091441	0.861728
43979	-2.544612	4.573664	7.870683	0.514446	0.047301	0.093981	0.851043
43980	-2.406582	2.701768	7.824559	0.531320	0.043573	0.095311	0.840664
43981	-2.889576	1.958546	7.307298	0.546819	0.041641	0.099552	0.830268
43982	-2.269940	2.843298	7.779203	0.560930	0.041758	0.106737	0.819891
43983	-2.311946	4.341063	8.322313	0.574072	0.041275	0.114962	0.809643
43984	-3.075483	4.683928	8.246953	0.586162	0.038753	0.121212	0.800138
43985	-3.838357	4.388467	7.758769	0.597116	0.035626	0.126616	0.791297
43986	-4.233699	3.042026	7.905290	0.606966	0.032181	0.131880	0.783048
43987	-4.911684	2.469387	7.515102	0.616133	0.031397	0.139667	0.774524
43988	-3.700211	4.099124	8.589717	0.625343	0.032277	0.148728	0.765365
43989	-3.647464	6.113529	8.507366	0.635342	0.030720	0.155822	0.755722
43990	-4.545346	5.329626	8.028107	0.645431	0.026429	0.159563	0.746499
43991	-5.313759	4.730599	7.892898	0.654734	0.022698	0.164704	0.737347
43992	-6.071125	3.797721	8.529801	0.662995	0.020639	0.171699	0.728375
43993	-6.350810	4.439206	8.952005	0.670259	0.021220	0.180606	0.719503
43994	-6.364799	5.928027	9.912106	0.677482	0.022039	0.188371	0.710667
43995	-5.379074	5.704715	10.685541	0.685176	0.020834	0.193593	0.701870
43996	-5.418990	6.211024	10.589164	0.693066	0.018387	0.197536	0.693037
43997	-5.401236	5.307975	10.386778	0.700740	0.014577	0.198939	0.684963
43998	-5.632935	3.662126	9.888380	0.708158	0.012546	0.200266	0.676941
43999	-5.443507	3.279463	10.009338	0.715255	0.012751	0.202521	0.668755
44000	-5.777216	4.819213	9.868875	0.722613	0.014439	0.204394	0.660185
44001	-5.089975	5.082222	10.120347	0.730387	0.015222	0.204135	0.651637
44002	-4.838065	5.301937	9.733848	0.738043	0.015619	0.203414	0.643172
44003	-5.233459	5.445386	9.738939	0.745312	0.014750	0.201280	0.635436
44004	-5.151493	4.444768	9.287715	0.752184	0.013276	0.198021	0.628355
44005	-5.064867	4.031909	9.138470	0.758816	0.012466	0.194978	0.621310
44006	-4.904271	3.958723	9.265882	0.765129	0.012704	0.192247	0.614376
44007	-4.704389	4.076982	8.787024	0.770951	0.014554	0.190209	0.607654
44008	-4.301964	4.825990	8.585195	0.776281	0.017337	0.188445	0.601312
44009	-4.053510	5.366516	8.405265	0.781406	0.018222	0.185532	0.595525
44010	-3.923128	4.525737	7.629085	0.786282	0.016625	0.181631	0.590334
44011	-3.870780	3.802596	7.275740	0.790945	0.014812	0.177833	0.585288
44012	-3.346598	3.245370	7.359864	0.795247	0.012602	0.174447	0.580510
44013	-2.843297	2.784911	7.099695	0.799078	0.011008	0.172456	0.575858
44014	-2.804499	3.089791	7.822483	0.802380	0.010135	0.171667	0.571502
44015	-2.814217	3.413820	7.958396	0.805465	0.009093	0.170981	0.567370
44016	-2.788164	3.430173	8.134980	0.808653	0.007741	0.170073	0.563112
44017	-2.438324	3.598195	8.376141	0.811806	0.006159	0.169185	0.558847
44018	-2.258019	3.441301	8.096828	0.814801	0.003492	0.167581	0.554981
44019	-1.940744	2.503289	7.742217	0.817460	0.000750	0.165915	0.551571
44020	-1.943944	2.559270	8.001568	0.819667	0.000291	0.165907	0.548289
44021	-2.105883	3.684469	9.104652	0.821683	0.000713	0.166333	0.545133
44022	-1.967771	4.675343	10.173185	0.823737	-0.000143	0.165726	0.542211
44023	-1.543669	4.397028	10.633103	0.825832	-0.003627	0.163758	0.539603
44024	-1.656110	3.007266	10.479104	0.827866	-0.008668	0.160936	0.537273
44025	-1.825129	1.728322	9.945113	0.829604	-0.012115	0.158824	0.535150
44026	-1.964401	1.760108	9.097339	0.830706	-0.012853	0.158314	0.533572
44027	-1.922339	2.486002	9.308911	0.831296	-0.012165	0.158548	0.532598
44028	-1.828494	2.635174	9.436262	0.831261	-0.012317	0.158705	0.532604
44029	-1.940225	2.362086	9.606163	0.831057	-0.013335	0.158385	0.532992
44030	-1.878356	1.900732	9.832522	0.830822	-0.015717	0.157872	0.533445
44031	-1.665494	1.746779	9.691819	0.830576	-0.017965	0.157960	0.533731
44032	-1.592074	1.672485	9.508183	0.830542	-0.020298	0.158179	0.533636
44033	-1.662581	1.299426	8.826347	0.831080	-0.022780	0.158288	0.532666
44034	-1.902793	1.410070	8.139760	0.832573	-0.024022	0.159037	0.530050
44035	-2.699183	2.354586	6.984081	0.835486	-0.024702	0.159679	0.525219
44036	-3.171767	2.634492	5.931564	0.840220	-0.025416	0.158492	0.517942
44037	-3.615283	3.024351	5.200554	0.846705	-0.026180	0.155996	0.508006
44038	-4.422614	3.360216	5.559187	0.854753	-0.027223	0.151483	0.495691
44039	-5.187563	2.372115	7.207645	0.863799	-0.026281	0.146864	0.481240
44040	-7.068951	2.159049	7.454280	0.874613	-0.022443	0.142790	0.462774
44041	-8.412305	1.816399	7.231535	0.888042	-0.018160	0.136345	0.438703
44042	-9.018575	-0.866092	7.066977	0.903773	-0.013149	0.126574	0.408656
44043	-7.619524	-3.642096	5.391600	0.920167	-0.006701	0.118597	0.373072
44044	-7.496600	-4.874585	5.865035	0.936019	0.001957	0.112985	0.333315
44045	-5.587019	-3.448887	7.365151	0.950539	0.014609	0.108597	0.290634
44046	-1.934313	-0.424786	9.475388	0.963780	0.023830	0.102942	0.244873
44047	2.435738	1.589107	9.574338	0.975360	0.021164	0.095603	0.197698
44048	5.330302	1.981083	10.532143	0.984666	0.004259	0.089282	0.149813
44049	5.917232	-1.626632	11.428022	0.990747	-0.026807	0.088177	0.099631
44050	3.789458	-5.570716	12.406935	0.993145	-0.057070	0.090798	0.046488
44051	2.325512	-4.860096	14.896545	0.992549	-0.077111	0.093929	-0.008794
44052	1.809291	-1.023082	16.651205	0.989510	-0.090519	0.092757	-0.063814
44053	2.094429	-1.151741	17.239829	0.983598	-0.103630	0.089899	-0.117107
44054	-0.446856	-3.317475	16.993111	0.975576	-0.113168	0.085314	-0.167826
44055	-1.159361	-1.650346	17.126648	0.965961	-0.116043	0.078412	-0.217496
44056	-0.035306	0.235786	18.177202	0.953759	-0.118891	0.073505	-0.266094
44057	-3.512125	-2.302476	16.723113	0.939767	-0.123036	0.071309	-0.310831
44058	-6.229602	-3.396342	15.488906	0.925923	-0.121465	0.066035	-0.351499
44059	-6.015518	-2.160729	13.431450	0.913563	-0.113563	0.056929	-0.386349
44060	-4.841000	-0.873016	11.544280	0.902339	-0.103702	0.046911	-0.415728
44061	-4.173921	-0.447116	9.634374	0.891739	-0.093770	0.037411	-0.441145
44062	-3.329253	-1.388550	8.694082	0.882157	-0.084972	0.029448	-0.462290
44063	-4.645876	-2.354013	7.338330	0.874179	-0.075373	0.021628	-0.479230
44064	-4.116608	-0.636140	6.906953	0.867999	-0.065591	0.012830	-0.492047
44065	-3.250462	-0.218136	6.459728	0.863459	-0.057617	0.004791	-0.501094
44066	-2.097294	-0.721237	6.158709	0.860808	-0.050744	-0.002041	-0.506390
44067	-1.706333	-0.181466	6.457007	0.859491	-0.044864	-0.007993	-0.509116
44068	-1.187590	-0.484250	6.722274	0.859031	-0.040529	-0.012409	-0.510167
44069	-0.623393	-0.657113	6.940412	0.859155	-0.037149	-0.015820	-0.510120
44070	-0.112946	-0.457208	7.666616	0.859612	-0.034406	-0.018529	-0.509451
44071	0.440782	-0.196895	8.125051	0.860593	-0.032120	-0.020972	-0.507846
44072	1.090730	-0.003218	8.372901	0.861945	-0.030343	-0.022923	-0.505573
44073	1.476975	-0.063491	8.585035	0.863402	-0.028960	-0.023959	-0.503115
44074	1.370942	-0.276996	9.089276	0.864661	-0.027828	-0.024232	-0.500999
44075	1.349766	-0.185508	9.464061	0.865716	-0.026779	-0.023806	-0.499252
44076	1.092480	-0.278217	9.738361	0.866578	-0.025943	-0.022914	-0.497840
44077	0.943396	-0.241778	9.843380	0.867296	-0.025197	-0.022122	-0.496663
44078	0.954685	-0.265514	9.943722	0.867949	-0.024456	-0.021493	-0.495586
44079	0.855376	0.003503	10.063810	0.868603	-0.023372	-0.021097	-0.494507
44080	0.905108	0.272902	10.166292	0.869132	-0.022429	-0.020554	-0.493644
44081	0.808251	-0.042130	10.305229	0.869594	-0.021589	-0.020253	-0.492879
44082	0.879473	-0.020690	10.296304	0.870084	-0.020731	-0.020229	-0.492051
44083	0.647657	0.066598	10.141318	0.870580	-0.019629	-0.020433	-0.491210
44084	0.626503	0.240976	10.333136	0.871052	-0.018113	-0.020777	-0.490416
44085	0.479475	0.392731	10.338843	0.871489	-0.016374	-0.020860	-0.489698
44086	0.543747	0.175542	10.115528	0.871950	-0.014662	-0.020726	-0.488937
44087	0.657495	0.110748	9.847515	0.872357	-0.013062	-0.020394	-0.488268
44088	0.615591	-0.081273	9.699449	0.872683	-0.011789	-0.020070	-0.487733
44089	0.633080	0.302864	9.785652	0.873120	-0.009787	-0.020097	-0.486992
44090	0.444087	0.573268	9.817589	0.873507	-0.008085	-0.019164	-0.486367
44091	0.163635	0.246516	9.739057	0.873728	-0.006649	-0.018142	-0.486031
44092	0.279493	0.360926	9.426826	0.873901	-0.005297	-0.017474	-0.485761
44093	0.371567	0.350157	8.913659	0.874040	-0.004498	-0.016785	-0.485544
44094	0.332636	0.072934	8.479100	0.874097	-0.004357	-0.015934	-0.485470
44095	0.417578	0.255322	7.927900	0.874118	-0.004835	-0.014928	-0.485460
44096	0.514310	0.482452	7.304622	0.874076	-0.006548	-0.013394	-0.485560
44097	0.589070	0.405147	6.477372	0.874092	-0.009522	-0.011469	-0.485532
44098	0.667835	0.719515	5.576254	0.874171	-0.014169	-0.008456	-0.485337
44099	1.043447	0.543473	4.671507	0.874360	-0.021527	-0.003037	-0.484790
44100	1.234732	-0.293168	3.602438	0.874893	-0.030703	0.004969	-0.483317
44101	1.529252	-0.304534	2.805364	0.875764	-0.040351	0.015409	-0.480803
44102	1.930254	-0.068005	2.258632	0.876796	-0.051461	0.029251	-0.477205
44103	2.153235	-0.308068	1.561815	0.877919	-0.064123	0.046395	-0.472223
44104	2.206527	-0.572582	1.122327	0.879032	-0.078396	0.066844	-0.465499
44105	2.521654	-1.041309	0.962699	0.880007	-0.093831	0.090862	-0.456648
44106	2.050322	-2.046868	1.120708	0.881184	-0.110290	0.117748	-0.444395
44107	0.906673	-3.360580	1.610421	0.882898	-0.124818	0.145437	-0.428673
44108	0.529428	-4.389066	2.137198	0.884979	-0.137996	0.175181	-0.408756
44109	-0.417970	-5.746607	2.691718	0.886954	-0.149192	0.206809	-0.385077
44110	-1.946267	-6.764387	3.197041	0.888454	-0.157472	0.239092	-0.358729
44111	-3.317445	-7.289880	4.256425	0.889179	-0.162515	0.271081	-0.330854
44112	-4.121798	-8.065329	5.767947	0.888027	-0.165367	0.306333	-0.300371
44113	-7.124689	-9.140874	7.943350	0.884198	-0.166552	0.344159	-0.268346
44114	-9.729149	-7.945829	8.287243	0.878574	-0.159432	0.382236	-0.237874
44115	-12.849487	-4.050151	10.372814	0.868548	-0.147870	0.423702	-0.210322
44116	-13.345353	-0.476405	10.846088	0.850350	-0.140499	0.472804	-0.183359
44117	-14.709239	0.079419	7.546353	0.823117	-0.140675	0.528530	-0.152793
44118	-18.441075	-1.639193	3.603928	0.791903	-0.139474	0.582271	-0.119990
44119	-21.609058	-4.199555	0.396755	0.761038	-0.130243	0.629066	-0.090183
44120	-23.978363	-5.166165	-1.792873	0.734768	-0.107801	0.666024	-0.070047
44121	-21.127380	-4.678683	-3.409259	0.716586	-0.073284	0.690647	-0.064352
44122	-18.245550	-1.728665	-4.000950	0.703296	-0.029815	0.705998	-0.077797
44123	-17.452425	6.320509	-2.702090	0.689587	0.014581	0.716332	-0.105475
44124	-26.260610	14.363994	13.659284	0.688615	0.036513	0.712877	-0.127604
44125	-17.071556	14.118391	12.632218	0.699130	0.038981	0.700251	-0.139091
44126	-14.071526	10.292904	10.393520	0.696828	0.012899	0.704102	-0.136031
44127	-9.987200	1.752152	7.214589	0.691906	-0.025764	0.710696	-0.124557
44128	-9.857078	-6.135889	1.891744	0.688608	-0.062719	0.714601	-0.105976
44129	-8.898637	-15.067924	-1.754047	0.693652	-0.078312	0.709424	-0.097116
44130	-7.536145	-12.999237	0.555164	0.703264	-0.059235	0.699025	-0.115216
44131	-5.572555	-3.910716	1.878676	0.712065	-0.029370	0.687539	-0.139250
44132	-4.422701	-0.780860	2.115672	0.716708	-0.003800	0.679525	-0.156720
44133	-5.441701	-1.426214	2.450022	0.717794	0.014594	0.675573	-0.167810
44134	-6.456383	-3.461835	1.721306	0.716658	0.028440	0.674401	-0.175429
44135	-7.360585	-4.213570	1.289149	0.714030	0.041987	0.674638	-0.182380
44136	-7.837653	-4.239118	1.048040	0.711000	0.055782	0.675311	-0.187942
44137	-8.432687	-4.436436	0.519870	0.708093	0.070855	0.675891	-0.191717
44138	-8.955575	-4.255064	0.021559	0.705747	0.088114	0.675566	-0.194339
44139	-9.356166	-3.595475	-0.441090	0.703719	0.106749	0.674579	-0.195772
44140	-9.851294	-2.816391	-0.966620	0.701686	0.124982	0.673678	-0.195383
44141	-10.695618	-2.135329	-1.423134	0.700026	0.141061	0.672942	-0.192910
44142	-11.198883	-1.595537	-1.654018	0.699171	0.153879	0.672184	-0.188812
44143	-11.202542	-1.236955	-1.676466	0.699128	0.162920	0.671517	-0.183690
44144	-11.159066	-1.182676	-1.649129	0.699622	0.168292	0.671113	-0.178364
44145	-10.930878	-1.266044	-1.707119	0.700549	0.171046	0.670616	-0.173925
44146	-10.780446	-1.258197	-1.583008	0.701775	0.172313	0.669745	-0.171059
44147	-10.339272	-1.056039	-1.273560	0.703216	0.172458	0.668500	-0.169862
44148	-10.062139	-0.800476	-0.880978	0.704849	0.171206	0.667140	-0.169710
44149	-9.837468	-0.884734	-0.428518	0.706829	0.168337	0.665660	-0.170155
44150	-9.566535	-1.333306	-0.006147	0.708961	0.164068	0.664214	-0.171099
44151	-9.344011	-2.181751	0.136799	0.711038	0.158853	0.662882	-0.172563
44152	-9.332048	-3.054897	0.106997	0.712735	0.153973	0.661573	-0.174994
44153	-9.454153	-3.405286	0.095613	0.713948	0.150394	0.660087	-0.178731
44154	-9.469272	-3.385529	0.189251	0.714815	0.147907	0.658413	-0.183453
44155	-9.251137	-3.231818	0.334583	0.715213	0.145987	0.656933	-0.188674
44156	-9.260582	-2.908352	0.378454	0.714974	0.144132	0.656047	-0.194009
44157	-9.301199	-2.446040	0.431643	0.714283	0.141817	0.655722	-0.199289
44158	-9.214681	-2.013431	0.516082	0.713174	0.138843	0.655930	-0.204599
44159	-9.160189	-1.744945	0.670012	0.711664	0.135277	0.656575	-0.210102
44160	-9.228817	-1.564136	0.674992	0.709879	0.131241	0.657424	-0.215969
44161	-9.115370	-1.813502	0.886049	0.707854	0.127096	0.658215	-0.222583
44162	-9.239694	-2.118234	0.950983	0.705270	0.124143	0.658832	-0.230483
44163	-9.556508	-1.983726	0.921170	0.702244	0.122437	0.659120	-0.239630
44164	-9.902550	-1.915228	1.049255	0.698964	0.121554	0.658985	-0.249825
44165	-10.108605	-1.928934	1.046024	0.695355	0.121409	0.658581	-0.260790
44166	-10.249441	-1.876267	1.064544	0.691512	0.121960	0.657831	-0.272388
44167	-10.159848	-1.727131	0.971328	0.687538	0.123057	0.656694	-0.284433
44168	-9.988104	-1.529756	1.057261	0.683457	0.124512	0.655145	-0.296933
44169	-9.904488	-1.381806	1.093348	0.679269	0.126303	0.653240	-0.309706
44170	-9.862282	-1.302871	1.086087	0.675078	0.128227	0.651025	-0.322481
44171	-9.794964	-1.290065	1.101408	0.670921	0.130377	0.648451	-0.335229
44172	-9.804291	-1.257551	1.113653	0.666857	0.132704	0.645578	-0.347738
44173	-9.801806	-1.231050	1.132080	0.662936	0.135024	0.642503	-0.359826
44174	-9.753092	-1.365962	1.160692	0.659159	0.137359	0.639380	-0.371261
44175	-9.644040	-1.557233	1.167542	0.655566	0.139837	0.636237	-0.381943
44176	-9.470180	-1.668433	1.086192	0.652233	0.142529	0.633071	-0.391789
44177	-9.334710	-1.756881	1.112084	0.649119	0.145478	0.629987	-0.400745
44178	-9.288042	-1.864304	1.128702	0.646225	0.148721	0.627031	-0.408786
44179	-9.254664	-1.889784	1.062797	0.643563	0.152281	0.624285	-0.415818
44180	-9.266941	-1.866590	1.057113	0.641184	0.156059	0.621770	-0.421818
44181	-9.278578	-1.911436	1.020808	0.639105	0.160041	0.619499	-0.426794
44182	-9.379553	-1.990250	0.964021	0.637329	0.164319	0.617458	-0.430763
44183	-9.525553	-1.954286	0.844178	0.635977	0.168780	0.615521	-0.433797
44184	-9.630745	-1.850263	0.768286	0.635069	0.173303	0.613726	-0.435884
44185	-9.787248	-1.676521	0.667930	0.634527	0.177635	0.612241	-0.437015
44186	-9.897280	-1.512382	0.577962	0.634323	0.181441	0.611253	-0.437130
44187	-9.979198	-1.506489	0.527488	0.634452	0.184654	0.610693	-0.436380
44188	-9.971703	-1.534459	0.470630	0.634822	0.187333	0.610448	-0.435041
44189	-9.946563	-1.580712	0.454904	0.635342	0.189697	0.610326	-0.433426
44190	-9.925259	-1.524693	0.458077	0.635960	0.191707	0.610244	-0.431747
44191	-9.885011	-1.543774	0.475721	0.636628	0.193416	0.610198	-0.430062
44192	-9.829046	-1.576435	0.505174	0.637321	0.194847	0.610195	-0.428391
44193	-9.788331	-1.592709	0.535842	0.638046	0.196000	0.610290	-0.426647
44194	-9.815633	-1.716574	0.614781	0.638760	0.196815	0.610592	-0.424767
44195	-9.814584	-1.873809	0.680078	0.639464	0.197455	0.611071	-0.422717
44196	-9.756991	-2.041778	0.728520	0.640097	0.198092	0.611677	-0.420579
44197	-9.699965	-2.115434	0.822192	0.640642	0.198847	0.612382	-0.418360
44198	-9.585841	-2.125209	0.927571	0.641092	0.199747	0.613245	-0.415972
44199	-9.475796	-2.146176	0.976752	0.641443	0.200735	0.614282	-0.413418
44200	-9.382428	-2.156845	1.011285	0.641677	0.201843	0.615495	-0.410701
44201	-9.261138	-2.218720	1.050805	0.641777	0.203125	0.616863	-0.407851
44202	-9.156708	-2.228144	1.075771	0.641731	0.204672	0.618307	-0.404955
44203	-9.081464	-2.215643	1.140020	0.641538	0.206419	0.619816	-0.402055
44204	-9.068005	-2.223061	1.161848	0.641206	0.208326	0.621421	-0.399112
44205	-9.161029	-2.289259	1.141870	0.640780	0.210402	0.623061	-0.396141
44206	-9.283196	-2.300245	1.130075	0.640271	0.212693	0.624632	-0.393255
44207	-9.389047	-2.236245	1.126948	0.639721	0.215164	0.626135	-0.390405
44208	-9.536733	-2.116700	1.113359	0.639245	0.217513	0.627628	-0.387475
44209	-9.672554	-2.079985	1.098334	0.638862	0.219562	0.629236	-0.384330
44210	-9.792614	-2.034164	1.051348	0.638620	0.221234	0.630915	-0.381007
44211	-9.774463	-1.905086	1.017803	0.638507	0.222483	0.632632	-0.377607
44212	-9.767654	-1.761169	1.029919	0.638551	0.223080	0.634433	-0.374142
44213	-9.722292	-1.752751	1.023831	0.638704	0.222968	0.636358	-0.370662
44214	-9.702435	-1.927998	1.026053	0.638896	0.222433	0.638290	-0.367317
44215	-9.755386	-2.112863	0.997510	0.639108	0.221830	0.640009	-0.364308
44216	-9.797323	-2.137609	1.041726	0.639296	0.221353	0.641417	-0.361785
44217	-9.785436	-2.055578	1.088426	0.639502	0.220809	0.642579	-0.359686
44218	-9.707410	-1.919941	1.104379	0.639737	0.219968	0.643701	-0.357771
44219	-9.685237	-1.952784	1.134674	0.640027	0.218767	0.644860	-0.355895
44220	-9.720516	-2.012232	1.091389	0.640418	0.217309	0.645971	-0.354066
44221	-9.729805	-2.110430	1.101788	0.640887	0.215765	0.646926	-0.352414
44222	-9.711788	-2.083629	1.063149	0.641443	0.214172	0.647711	-0.350930
44223	-9.692225	-2.031175	1.082547	0.642044	0.212454	0.648420	-0.349564
44224	-9.675719	-2.031523	1.090568	0.642715	0.210605	0.649073	-0.348235
44225	-9.718594	-2.049456	1.097800	0.643433	0.208647	0.649661	-0.346989
44226	-9.727894	-2.027675	1.091825	0.644247	0.206678	0.650105	-0.345823
44227	-9.702611	-1.961926	1.032009	0.645120	0.204609	0.650471	-0.344737
44228	-9.695859	-1.941390	1.012171	0.646042	0.202406	0.650779	-0.343728
44229	-9.720990	-1.961412	0.989748	0.646973	0.200122	0.651047	-0.342806
44230	-9.747137	-1.989095	1.030855	0.647918	0.197853	0.651227	-0.341993
44231	-9.741464	-2.001050	1.003526	0.648883	0.195669	0.651289	-0.341303
44232	-9.732788	-1.967736	1.035373	0.649791	0.193554	0.651280	-0.340797
44233	-9.708938	-1.937902	0.995759	0.650687	0.191516	0.651182	-0.340427
44234	-9.671767	-1.923102	0.986733	0.651522	0.189551	0.651057	-0.340168
44235	-9.650106	-1.918814	0.986978	0.652311	0.187700	0.650870	-0.340040
44236	-9.661443	-1.964329	0.991317	0.653047	0.186033	0.650619	-0.340025
44237	-9.655707	-1.970860	1.021553	0.653724	0.184619	0.650289	-0.340125
44238	-9.648133	-1.937958	1.004676	0.654354	0.183408	0.649892	-0.340327
44239	-9.653708	-1.875582	1.022781	0.654969	0.182334	0.649475	-0.340516
44240	-9.615752	-1.817530	1.060756	0.655577	0.181306	0.649047	-0.340712
44241	-9.553810	-1.822269	1.016462	0.656190	0.180337	0.648614	-0.340871
44242	-9.489136	-1.795643	1.059316	0.656810	0.179459	0.648165	-0.340995
44243	-9.429626	-1.834751	1.060957	0.657420	0.178688	0.647699	-0.341110
44244	-9.413891	-1.857431	1.053704	0.658005	0.178088	0.647220	-0.341205
44245	-9.475877	-1.951854	1.087961	0.658553	0.177666	0.646759	-0.341241
44246	-9.534818	-1.963731	1.079774	0.659065	0.177584	0.646236	-0.341286
44247	-9.544729	-1.883338	1.092824	0.659584	0.177705	0.645696	-0.341243
44248	-9.511415	-1.802745	1.103179	0.660114	0.177842	0.645236	-0.341017
44249	-9.471385	-1.820535	1.075493	0.660624	0.178003	0.644911	-0.340560
44250	-9.443124	-1.800702	1.091819	0.661069	0.178233	0.644669	-0.340034
44251	-9.375920	-1.858913	1.125706	0.661471	0.178555	0.644450	-0.339498
44252	-9.387955	-1.963464	1.090776	0.661815	0.179119	0.644166	-0.339067
44253	-9.428146	-2.045810	1.080806	0.662076	0.180112	0.643706	-0.338908
44254	-9.455416	-1.937711	1.077730	0.662339	0.181425	0.643077	-0.338885
44255	-9.512228	-1.822208	1.055392	0.662627	0.182737	0.642465	-0.338778
44256	-9.539101	-1.728401	1.101092	0.662995	0.183785	0.642011	-0.338352
44257	-9.548606	-1.763767	1.074154	0.663434	0.184434	0.641796	-0.337545
44258	-9.551867	-1.909153	1.072362	0.663967	0.184875	0.641652	-0.336530
44259	-9.519066	-1.960812	1.051097	0.664500	0.185329	0.641497	-0.335523
44260	-9.584109	-1.951216	1.030106	0.665005	0.185863	0.641276	-0.334646
44261	-9.604807	-1.948705	1.029446	0.665463	0.186470	0.640991	-0.333945
44262	-9.620875	-1.909620	1.055597	0.665842	0.187097	0.640692	-0.333410
44263	-9.650795	-1.854038	1.032851	0.666183	0.187672	0.640374	-0.333017
