// Start Time: Unknown
// Update Rate: 60.0Hz
// Filter Profile: human (46.1)
// Option Flags: AHS Disabled ICC Disabled 
// Firmware Version: 4.3.5
PacketCounter	Acc_X	Acc_Y	Acc_Z	Quat_q0	Quat_q1	Quat_q2	Quat_q3
39183	-0.328006	1.026987	9.690552	-0.613842	-0.048055	0.038365	0.787031
39184	-0.340790	1.147970	9.748040	-0.613648	-0.048726	0.038741	0.787122
39185	-0.294856	1.438497	9.844506	-0.613478	-0.049215	0.038687	0.787227
39186	-0.270496	1.495298	9.724388	-0.613358	-0.049488	0.038339	0.787320
39187	-0.284033	1.197362	9.769483	-0.613261	-0.049768	0.037946	0.787397
39188	-0.279864	1.252336	9.737752	-0.613144	-0.050090	0.037713	0.787479
39189	-0.255077	1.210719	9.728090	-0.612985	-0.050451	0.037606	0.787585
39190	-0.331220	1.211309	9.887172	-0.612830	-0.050744	0.037450	0.787694
39191	-0.234444	1.292776	9.773804	-0.612753	-0.050932	0.037213	0.787753
39192	-0.326471	1.220247	9.829757	-0.612699	-0.051124	0.036976	0.787794
39193	-0.372690	1.317259	9.895399	-0.612663	-0.051217	0.036599	0.787833
39194	-0.323685	1.096373	9.760849	-0.612595	-0.051400	0.036458	0.787881
39195	-0.385587	1.155352	9.824509	-0.612468	-0.051612	0.036509	0.787963
39196	-0.352062	1.388745	9.826191	-0.612294	-0.051784	0.036485	0.788088
39197	-0.362481	1.392680	9.837096	-0.612240	-0.051649	0.035997	0.788162
39198	-0.357009	1.226238	9.733360	-0.612200	-0.051617	0.035794	0.788204
39199	-0.387132	1.255626	9.712070	-0.612094	-0.051532	0.035634	0.788300
39200	-0.388551	1.141912	9.771348	-0.611913	-0.051577	0.035602	0.788438
39201	-0.369386	1.068433	9.736982	-0.611653	-0.051799	0.035883	0.788613
39202	-0.348306	1.175317	9.760279	-0.611390	-0.051958	0.036092	0.788797
39203	-0.334010	1.258066	9.692441	-0.611213	-0.051991	0.035933	0.788939
39204	-0.398115	1.119672	9.627276	-0.611039	-0.052051	0.035910	0.789071
39205	-0.375915	1.313321	9.668493	-0.610875	-0.052114	0.035787	0.789199
39206	-0.321169	1.200075	9.602423	-0.610701	-0.052160	0.035590	0.789340
39207	-0.378319	1.212085	9.640511	-0.610499	-0.052427	0.035697	0.789473
39208	-0.385534	1.329702	9.782188	-0.610294	-0.052773	0.035847	0.789602
39209	-0.341926	1.340273	9.646123	-0.610152	-0.053089	0.035867	0.789690
39210	-0.434366	1.233524	9.686158	-0.610032	-0.053309	0.035893	0.789766
39211	-0.334667	1.149360	9.693975	-0.609896	-0.053583	0.035878	0.789853
39212	-0.465005	1.251361	9.887551	-0.609761	-0.053909	0.035749	0.789941
39213	-0.380984	1.324760	9.629615	-0.609716	-0.054153	0.035600	0.789966
39214	-0.365004	1.104519	9.660194	-0.609680	-0.054615	0.035767	0.789954
39215	-0.417165	1.263028	9.685184	-0.609625	-0.055207	0.036104	0.789941
39216	-0.361918	1.536563	9.739662	-0.609546	-0.055599	0.036244	0.789967
39217	-0.334655	1.517928	9.673928	-0.609535	-0.055838	0.035945	0.789973
39218	-0.465067	1.460235	9.774580	-0.609609	-0.056005	0.035374	0.789930
39219	-0.417356	1.281484	9.751383	-0.609746	-0.056075	0.034846	0.789842
39220	-0.419024	1.165111	9.672955	-0.609839	-0.056459	0.034758	0.789747
39221	-0.480935	1.126361	9.707865	-0.609858	-0.056957	0.034801	0.789695
39222	-0.431831	1.219723	9.621679	-0.609828	-0.057577	0.034973	0.789666
39223	-0.474931	1.439531	9.793107	-0.609771	-0.058031	0.034794	0.789684
39224	-0.431078	1.643161	9.679251	-0.609865	-0.058069	0.034085	0.789639
39225	-0.394479	1.353580	9.643528	-0.610020	-0.057942	0.033190	0.789567
39226	-0.490451	1.251055	9.692108	-0.610107	-0.058030	0.032589	0.789518
39227	-0.536601	1.191080	9.727187	-0.610104	-0.058325	0.032314	0.789511
39228	-0.534142	1.391979	9.673411	-0.609956	-0.058843	0.032322	0.789587
39229	-0.424347	1.923877	9.596287	-0.609711	-0.058829	0.031521	0.789809
39230	-0.367632	2.038604	9.422523	-0.609510	-0.057956	0.029129	0.790120
39231	-0.424099	1.586808	9.400907	-0.609372	-0.056762	0.025911	0.790426
39232	-0.488467	0.886218	9.462018	-0.609214	-0.056110	0.023165	0.790679
39233	-0.544660	0.753092	9.471126	-0.608898	-0.056683	0.021847	0.790919
39234	-0.615192	0.900314	9.455042	-0.608459	-0.057769	0.021005	0.791201
39235	-0.564909	1.147117	9.336637	-0.607890	-0.059047	0.020210	0.791564
39236	-0.444189	1.221367	9.264370	-0.607232	-0.060122	0.018635	0.792028
39237	-0.614995	1.121405	9.227537	-0.606584	-0.061010	0.016042	0.792512
39238	-0.742166	0.786994	9.318214	-0.605775	-0.062086	0.013050	0.793103
39239	-0.750473	0.532102	9.298828	-0.604804	-0.063835	0.010617	0.793741
39240	-0.846055	0.723677	9.272944	-0.603696	-0.066244	0.008675	0.794411
39241	-0.926290	0.883686	9.290226	-0.602611	-0.069208	0.006789	0.794999
39242	-1.253386	0.943725	9.338939	-0.601846	-0.072081	0.004594	0.795339
39243	-1.097933	0.725240	9.529256	-0.601229	-0.075230	0.002639	0.795523
39244	-1.089510	0.799853	9.600223	-0.600509	-0.078556	0.000755	0.795750
39245	-1.346122	0.853840	9.689585	-0.599768	-0.081797	-0.001499	0.795981
39246	-1.796088	0.732648	9.932992	-0.599151	-0.084847	-0.004066	0.796117
39247	-1.843462	0.529892	10.216035	-0.598713	-0.087890	-0.006049	0.796104
39248	-1.698351	0.469054	10.612674	-0.598276	-0.091204	-0.006781	0.796054
39249	-1.944414	0.972195	10.763128	-0.597814	-0.094329	-0.006694	0.796038
39250	-1.836041	1.395651	10.954594	-0.597400	-0.096459	-0.006826	0.796092
39251	-1.669630	1.585709	10.770931	-0.597010	-0.097556	-0.007482	0.796245
39252	-1.651741	1.540800	10.385576	-0.596714	-0.097558	-0.008888	0.796452
39253	-1.647641	1.119833	10.022059	-0.596553	-0.096904	-0.010985	0.796627
39254	-1.517777	0.722071	9.546275	-0.596316	-0.096533	-0.012829	0.796821
39255	-1.772967	0.867518	9.212411	-0.595767	-0.096745	-0.014856	0.797171
39256	-1.990387	0.983720	8.755471	-0.595135	-0.096456	-0.017354	0.797627
39257	-1.686756	1.158946	8.714125	-0.594745	-0.096001	-0.020438	0.797900
39258	-1.544176	1.188570	8.724956	-0.594503	-0.095800	-0.024091	0.798003
39259	-1.624570	0.736871	8.810671	-0.594296	-0.096150	-0.027561	0.798003
39260	-1.619687	0.677251	8.578369	-0.594093	-0.097450	-0.030598	0.797885
39261	-1.543419	1.117372	8.345917	-0.593883	-0.099237	-0.034190	0.797675
39262	-1.560795	0.746607	8.100749	-0.593726	-0.101482	-0.039026	0.797287
39263	-1.909089	0.191235	8.055170	-0.593630	-0.104549	-0.044499	0.796676
39264	-2.491064	-0.119024	8.119583	-0.593543	-0.108951	-0.049711	0.795843
39265	-2.412698	-0.193413	8.359583	-0.593246	-0.114423	-0.054520	0.794981
39266	-2.356857	0.408139	8.594729	-0.592426	-0.120538	-0.059360	0.794342
39267	-2.265566	0.887059	8.407933	-0.591429	-0.127085	-0.065268	0.793600
39268	-3.306872	0.350977	8.251853	-0.590619	-0.134004	-0.072498	0.792437
39269	-3.708917	-0.065745	8.343669	-0.589751	-0.140712	-0.079739	0.791224
39270	-3.516949	-0.693669	8.608338	-0.588342	-0.148101	-0.086657	0.790197
39271	-3.434964	-0.086710	8.698394	-0.586446	-0.156956	-0.092098	0.789281
39272	-3.333995	1.166039	8.482401	-0.584666	-0.166517	-0.098536	0.787863
39273	-5.012203	1.181839	7.993099	-0.582700	-0.176091	-0.105908	0.786280
39274	-5.207448	-0.164233	8.116323	-0.581335	-0.184316	-0.113474	0.784348
39275	-4.938670	-1.105214	8.693517	-0.579070	-0.194537	-0.119753	0.782619
39276	-4.735604	-1.253275	8.690108	-0.575375	-0.205988	-0.124152	0.781728
39277	-4.885709	-0.752612	7.879803	-0.570227	-0.218959	-0.128323	0.781301
39278	-6.212288	0.492951	6.761015	-0.564370	-0.231553	-0.133242	0.781099
39279	-5.973178	0.117316	6.469056	-0.560485	-0.240927	-0.141075	0.779685
39280	-5.859029	-1.029802	7.033907	-0.556589	-0.252048	-0.150166	0.777258
39281	-6.226532	-0.614168	8.049781	-0.551302	-0.264266	-0.158067	0.775399
39282	-6.290150	-0.672845	7.739944	-0.544525	-0.276834	-0.165860	0.774174
39283	-6.379076	0.181079	7.062835	-0.536588	-0.289260	-0.175378	0.773075
39284	-7.043646	1.347233	6.242872	-0.529257	-0.299930	-0.189256	0.770786
39285	-7.468454	1.088801	5.714558	-0.523160	-0.309233	-0.207350	0.766606
39286	-7.808028	0.269628	5.495247	-0.517991	-0.318317	-0.227793	0.760572
39287	-8.422003	-0.644060	5.792467	-0.512744	-0.328169	-0.247668	0.753697
39288	-8.675506	-0.728149	6.122463	-0.506489	-0.338638	-0.265571	0.747172
39289	-9.024195	0.198653	5.431320	-0.499421	-0.349284	-0.281913	0.741016
39290	-8.676045	1.287095	4.973096	-0.493343	-0.359446	-0.299358	0.733346
39291	-9.511923	1.295521	5.299470	-0.489438	-0.369359	-0.318483	0.722906
39292	-10.198672	0.988984	6.085482	-0.487838	-0.378348	-0.337749	0.710487
39293	-9.703617	0.119020	5.734253	-0.487464	-0.385662	-0.356372	0.697598
39294	-9.157387	-0.340725	4.764009	-0.487116	-0.391093	-0.375115	0.684874
39295	-9.413703	0.102404	4.769536	-0.486918	-0.395103	-0.394493	0.671699
39296	-10.119653	-0.581058	5.309683	-0.487713	-0.397470	-0.413535	0.658136
39297	-11.236271	-1.423982	5.258018	-0.489408	-0.398518	-0.430304	0.645369
39298	-11.079652	-2.249447	4.661772	-0.491887	-0.397588	-0.444966	0.634016
39299	-10.517310	-2.167113	4.207686	-0.494786	-0.394967	-0.458588	0.623607
39300	-10.132413	-2.407479	3.625174	-0.497619	-0.391497	-0.470983	0.614231
39301	-10.015279	-2.514283	3.326275	-0.500368	-0.387653	-0.481364	0.606338
39302	-10.099260	-2.945876	3.057555	-0.502867	-0.383305	-0.490167	0.599949
39303	-10.184665	-3.024924	2.958564	-0.504992	-0.378690	-0.497313	0.595196
39304	-10.260590	-2.773649	2.740652	-0.507104	-0.373808	-0.502836	0.591835
39305	-10.065858	-2.329798	2.352439	-0.509348	-0.368789	-0.506959	0.589535
39306	-9.888627	-2.559193	2.005968	-0.511920	-0.363504	-0.510890	0.587192
39307	-9.757801	-3.185659	1.741840	-0.514408	-0.358239	-0.514401	0.585185
39308	-9.642265	-3.772332	1.451907	-0.516337	-0.353595	-0.516876	0.584129
39309	-9.375726	-4.075680	1.313536	-0.517351	-0.349925	-0.518254	0.584220
39310	-9.031200	-4.336220	1.193057	-0.517101	-0.347527	-0.518651	0.585519
39311	-8.766989	-4.309494	1.455941	-0.515646	-0.346074	-0.518362	0.587914
39312	-8.756855	-4.223832	1.746342	-0.512937	-0.345200	-0.517585	0.591472
39313	-8.947911	-4.437148	1.878236	-0.509512	-0.344134	-0.516926	0.595615
39314	-9.248800	-5.049811	2.224249	-0.504860	-0.343165	-0.516145	0.600790
39315	-9.513385	-4.753985	2.650035	-0.498271	-0.343279	-0.514723	0.607409
39316	-9.698087	-4.069897	2.880708	-0.490024	-0.344081	-0.513080	0.615007
39317	-9.955664	-3.682047	3.186176	-0.481276	-0.344265	-0.512177	0.622518
39318	-10.108974	-3.772302	3.482973	-0.472117	-0.343499	-0.511685	0.630311
39319	-10.382825	-4.023002	3.585749	-0.462520	-0.341711	-0.511383	0.638589
39320	-10.453175	-4.150718	3.680397	-0.451860	-0.339537	-0.510424	0.648078
39321	-10.165695	-3.907435	3.600063	-0.440135	-0.336933	-0.508561	0.658880
39322	-9.706646	-3.340375	3.544293	-0.427402	-0.333921	-0.506367	0.670385
39323	-9.472605	-2.809143	3.708776	-0.414319	-0.329966	-0.504551	0.681829
39324	-9.246521	-2.542059	3.866625	-0.401421	-0.324867	-0.503150	0.692938
39325	-8.900201	-3.225432	3.745295	-0.388898	-0.318682	-0.502573	0.703292
39326	-8.473219	-3.148132	3.595069	-0.375691	-0.312360	-0.501253	0.714166
39327	-8.194424	-2.848260	3.550569	-0.361962	-0.305976	-0.500549	0.724440
39328	-7.999811	-3.043792	3.448649	-0.347939	-0.299562	-0.500072	0.734254
39329	-8.033680	-2.792603	3.610015	-0.334129	-0.293003	-0.499797	0.743445
39330	-7.815847	-2.727048	3.731621	-0.320632	-0.286606	-0.499965	0.751723
39331	-7.879271	-2.886487	3.725936	-0.307518	-0.280536	-0.500852	0.758867
39332	-7.922036	-3.530724	3.800856	-0.294616	-0.274987	-0.502069	0.765186
39333	-7.604131	-3.438477	3.841671	-0.281504	-0.270109	-0.502369	0.771636
39334	-7.191338	-3.042308	4.038502	-0.268343	-0.265522	-0.502198	0.778002
39335	-6.949116	-2.769320	4.209233	-0.255633	-0.260904	-0.502529	0.783610
39336	-7.118538	-2.729823	4.408360	-0.243917	-0.256447	-0.503164	0.788394
39337	-7.119572	-2.743725	4.546831	-0.233464	-0.252386	-0.503865	0.792411
39338	-7.091461	-2.590783	4.646469	-0.224428	-0.249027	-0.504808	0.795479
39339	-7.064295	-2.783625	4.689895	-0.216965	-0.246278	-0.506825	0.797121
39340	-6.801499	-2.903990	4.745252	-0.210843	-0.244098	-0.509322	0.797842
39341	-6.613096	-3.278635	4.969673	-0.206162	-0.242261	-0.512871	0.797352
39342	-6.725680	-4.218583	5.094035	-0.202832	-0.240379	-0.516365	0.796520
39343	-6.639429	-4.270017	4.880121	-0.200530	-0.238476	-0.518703	0.796156
39344	-6.452968	-3.965915	4.691139	-0.199191	-0.237114	-0.521163	0.795292
39345	-6.466730	-4.074490	4.640979	-0.199227	-0.236550	-0.524941	0.792963
39346	-6.573218	-4.513285	4.558164	-0.200706	-0.236876	-0.530005	0.789114
39347	-6.561393	-5.437228	4.348549	-0.203939	-0.237635	-0.535988	0.783999
39348	-6.364956	-6.281392	4.261024	-0.208534	-0.239034	-0.541202	0.778766
39349	-6.183413	-6.306617	4.157265	-0.214264	-0.241313	-0.545655	0.773381
39350	-6.348015	-5.950442	3.864852	-0.221464	-0.244838	-0.549857	0.767245
39351	-6.753872	-5.636300	3.390800	-0.230690	-0.249426	-0.554502	0.759669
39352	-7.293809	-5.388905	2.435500	-0.241683	-0.254915	-0.559413	0.750776
39353	-7.526519	-5.362170	1.739290	-0.254630	-0.260419	-0.564688	0.740590
39354	-7.457171	-5.938934	1.484876	-0.268789	-0.266100	-0.569154	0.730074
39355	-7.309740	-5.866536	1.413496	-0.283677	-0.272014	-0.571978	0.719984
39356	-7.613363	-5.294224	1.223655	-0.299542	-0.277784	-0.573925	0.709733
39357	-7.516601	-4.903449	1.322230	-0.317200	-0.282902	-0.575583	0.698609
39358	-8.799991	-4.772925	0.887361	-0.335709	-0.287794	-0.576635	0.686997
39359	-9.726843	-4.718485	0.377689	-0.355643	-0.291477	-0.577531	0.674549
39360	-9.084994	-5.091440	0.507935	-0.376190	-0.295394	-0.576713	0.662288
39361	-9.001950	-4.463905	0.784630	-0.396433	-0.300214	-0.574698	0.649950
39362	-10.055118	-3.266784	0.760073	-0.416613	-0.304505	-0.572029	0.637568
39363	-10.906047	-2.880122	0.200739	-0.438490	-0.305915	-0.570793	0.623167
39364	-10.489440	-4.264791	0.303263	-0.461402	-0.305767	-0.570294	0.606942
39365	-9.910164	-5.351259	0.675997	-0.483333	-0.306407	-0.566919	0.592542
39366	-9.964148	-4.578702	0.606923	-0.503649	-0.307518	-0.561310	0.580260
39367	-10.175766	-3.364763	0.440331	-0.523357	-0.307726	-0.554533	0.569118
39368	-11.801457	-2.485085	0.077098	-0.542468	-0.307021	-0.547847	0.557971
39369	-11.304033	-2.910758	-0.029880	-0.561955	-0.304231	-0.541946	0.545843
39370	-10.698191	-4.437717	0.469598	-0.579688	-0.302140	-0.536283	0.533924
39371	-10.197936	-4.641554	0.988806	-0.595277	-0.301794	-0.528578	0.524568
39372	-9.759133	-3.447599	0.853254	-0.608950	-0.302205	-0.520018	0.517140
39373	-9.707282	-2.480280	0.664900	-0.621537	-0.302485	-0.511586	0.510367
39374	-9.864353	-2.161429	0.858176	-0.633627	-0.302281	-0.503732	0.503385
39375	-9.838681	-2.361170	1.065398	-0.644618	-0.302221	-0.496035	0.497070
39376	-9.512466	-2.239001	1.306098	-0.654710	-0.301937	-0.488557	0.491428
39377	-9.239961	-2.132067	1.429269	-0.663124	-0.302917	-0.480840	0.487135
39378	-9.019618	-1.389551	1.618730	-0.670042	-0.304777	-0.473226	0.483954
39379	-8.894161	-1.041698	1.842724	-0.675735	-0.306988	-0.466172	0.481481
39380	-8.987768	-0.881503	1.979572	-0.680276	-0.309251	-0.460186	0.479392
39381	-9.253659	-0.596105	2.024159	-0.683886	-0.311409	-0.455430	0.477397
39382	-9.284291	-0.205462	1.954170	-0.687149	-0.313074	-0.451413	0.475434
39383	-9.015311	-0.527135	2.264456	-0.689507	-0.314858	-0.448169	0.473908
39384	-8.703491	-0.726615	2.538620	-0.690494	-0.317295	-0.445410	0.473447
39385	-8.651331	-0.543577	2.646279	-0.690203	-0.320304	-0.443104	0.474009
39386	-8.461093	0.118713	2.774503	-0.689004	-0.323408	-0.441304	0.475324
39387	-8.047537	0.640056	3.044241	-0.687156	-0.326105	-0.440357	0.477029
39388	-7.812133	0.808596	3.330115	-0.684681	-0.328384	-0.440240	0.479129
39389	-8.013568	0.936973	3.575660	-0.682026	-0.329812	-0.440830	0.481387
39390	-8.453697	1.019897	3.723933	-0.679720	-0.330246	-0.441580	0.483659
39391	-8.749223	0.754144	3.762117	-0.677985	-0.330159	-0.441924	0.485834
39392	-9.004380	0.137457	3.769382	-0.676508	-0.330546	-0.441488	0.488021
39393	-9.343430	0.117187	3.783470	-0.675264	-0.331238	-0.440304	0.490339
39394	-10.194171	0.496384	4.117571	-0.673771	-0.332440	-0.438849	0.492877
39395	-10.177864	0.832163	4.463363	-0.671935	-0.333631	-0.437338	0.495912
39396	-9.925793	1.151562	4.714054	-0.669655	-0.334148	-0.436548	0.499332
39397	-9.637997	1.444488	5.082558	-0.667237	-0.332908	-0.437399	0.502641
39398	-9.696618	1.194354	5.164809	-0.664902	-0.329929	-0.439609	0.505763
39399	-10.021727	0.486826	4.954619	-0.663121	-0.325399	-0.442653	0.508373
39400	-10.709694	-0.584218	4.682899	-0.662316	-0.319784	-0.445684	0.510335
39401	-11.407620	-1.659513	4.417210	-0.662356	-0.313888	-0.448082	0.511842
39402	-11.678697	-3.046559	4.154489	-0.662530	-0.308921	-0.449274	0.513589
39403	-11.693350	-4.210937	3.806039	-0.662005	-0.305384	-0.449500	0.516178
39404	-11.666818	-4.067295	3.738958	-0.659947	-0.302791	-0.449759	0.520100
39405	-11.820304	-3.357737	3.744514	-0.656357	-0.299703	-0.451107	0.525240
39406	-11.608093	-3.822114	3.846612	-0.651638	-0.294951	-0.454008	0.531270
39407	-11.024196	-4.444626	3.915395	-0.645429	-0.289866	-0.457820	0.538331
39408	-10.896477	-4.501395	3.982561	-0.637123	-0.286227	-0.461863	0.546655
39409	-10.867060	-3.897890	3.996266	-0.627810	-0.282592	-0.466764	0.555092
39410	-10.092247	-3.701657	3.896973	-0.618464	-0.278159	-0.472548	0.562874
39411	-9.249232	-4.019568	4.012252	-0.609120	-0.273376	-0.479088	0.569836
39412	-8.282684	-4.691396	3.823000	-0.599690	-0.268702	-0.484864	0.577129
39413	-7.774336	-5.004531	3.791897	-0.589765	-0.263875	-0.490192	0.585030
39414	-8.595638	-4.719787	3.882345	-0.578911	-0.259088	-0.494777	0.594081
39415	-9.028990	-4.132981	3.602750	-0.567562	-0.253882	-0.498974	0.603690
39416	-8.294570	-3.870577	3.164607	-0.555938	-0.248183	-0.504546	0.612186
39417	-7.836860	-4.815195	3.133483	-0.543981	-0.242404	-0.511299	0.619596
39418	-8.020473	-5.411186	3.292377	-0.531624	-0.236636	-0.517579	0.627289
39419	-7.716105	-6.003146	3.089800	-0.518833	-0.231361	-0.521669	0.636510
39420	-7.604101	-5.522984	2.946251	-0.505255	-0.226741	-0.524045	0.647056
39421	-7.513898	-5.034830	2.936524	-0.491018	-0.222479	-0.525826	0.657960
39422	-7.352211	-4.807591	3.225921	-0.476315	-0.218137	-0.527386	0.668882
39423	-7.113640	-4.736938	3.238959	-0.461057	-0.214193	-0.528190	0.680120
39424	-6.966922	-4.647642	3.173996	-0.445940	-0.209797	-0.529161	0.690732
39425	-6.803518	-4.646241	3.085708	-0.430841	-0.205515	-0.529815	0.701025
39426	-6.565384	-4.342477	2.978670	-0.415503	-0.201427	-0.530643	0.710776
39427	-6.636602	-4.523449	3.085198	-0.399906	-0.197443	-0.531799	0.719918
39428	-6.783533	-4.618788	3.340661	-0.384067	-0.193675	-0.532214	0.729199
39429	-6.746365	-4.264469	3.469691	-0.368273	-0.189997	-0.531758	0.738586
39430	-6.651519	-4.487761	3.433798	-0.352856	-0.186671	-0.531803	0.746882
39431	-6.720452	-4.617710	3.573753	-0.337828	-0.183971	-0.531311	0.754808
39432	-6.634649	-4.839337	3.665175	-0.323232	-0.181445	-0.530350	0.762448
39433	-6.439416	-4.722925	3.783971	-0.308512	-0.179189	-0.528076	0.770615
39434	-6.116940	-3.970965	3.967037	-0.293486	-0.177030	-0.525482	0.778713
39435	-6.140557	-3.381953	4.124461	-0.278584	-0.174961	-0.523440	0.785996
39436	-6.203429	-3.453584	4.340138	-0.264601	-0.172896	-0.522140	0.792126
39437	-6.086239	-3.444450	4.412988	-0.251511	-0.171410	-0.520578	0.797721
39438	-5.750137	-3.107702	4.498804	-0.239365	-0.170119	-0.519162	0.802642
39439	-5.480776	-3.239577	4.611520	-0.227894	-0.168966	-0.517777	0.807107
39440	-5.476071	-3.045031	4.621571	-0.216833	-0.167783	-0.515362	0.811933
39441	-5.247692	-2.174907	4.635295	-0.206119	-0.166294	-0.512358	0.816915
39442	-5.510676	-1.495280	4.930851	-0.196171	-0.164654	-0.510046	0.821133
39443	-5.939678	-1.743667	5.422577	-0.188069	-0.163288	-0.509943	0.823362
39444	-5.937433	-2.575688	5.865635	-0.182047	-0.162958	-0.511165	0.824023
39445	-6.288684	-3.523681	6.100753	-0.177672	-0.163546	-0.513141	0.823633
39446	-6.674978	-4.037872	6.282685	-0.174438	-0.164547	-0.514529	0.823259
39447	-7.117953	-3.966601	6.300673	-0.172438	-0.165776	-0.515586	0.822773
39448	-6.991812	-4.004160	6.603583	-0.172616	-0.167119	-0.518573	0.820584
39449	-6.618292	-5.349437	6.594522	-0.175100	-0.168271	-0.524878	0.815799
39450	-5.794138	-7.543911	6.239898	-0.179155	-0.168498	-0.533693	0.809125
39451	-5.703964	-9.341837	5.622975	-0.183759	-0.167804	-0.540501	0.803699
39452	-5.410159	-8.532897	4.846617	-0.188966	-0.166419	-0.542698	0.801296
39453	-4.851032	-6.495254	4.084481	-0.195437	-0.165586	-0.543447	0.799407
39454	-4.731517	-5.461529	3.339598	-0.203637	-0.166263	-0.546617	0.795046
39455	-4.789531	-6.379908	2.959165	-0.213633	-0.168711	-0.553157	0.787347
39456	-4.631246	-7.968796	3.247675	-0.225929	-0.172290	-0.559552	0.778572
39457	-4.773873	-8.653481	3.376284	-0.240434	-0.176874	-0.564109	0.769862
39458	-5.247570	-8.490703	2.940467	-0.257000	-0.182551	-0.566724	0.761216
39459	-6.670639	-8.007899	1.813105	-0.275067	-0.190010	-0.567827	0.752201
39460	-8.379950	-7.651637	0.890002	-0.294450	-0.198651	-0.568559	0.742009
39461	-8.866003	-7.539075	0.548561	-0.315660	-0.207280	-0.568422	0.730952
39462	-8.673498	-7.194704	1.057011	-0.337659	-0.217043	-0.566947	0.719340
39463	-9.118856	-6.424223	1.716776	-0.360326	-0.227038	-0.564566	0.707025
39464	-10.267573	-6.623685	1.578234	-0.383541	-0.235613	-0.563232	0.692930
39465	-10.922710	-6.456321	1.575747	-0.407618	-0.242203	-0.562146	0.677626
39466	-10.971762	-7.620119	1.526536	-0.432436	-0.247616	-0.559900	0.661965
39467	-11.267369	-7.380866	1.668430	-0.456333	-0.253513	-0.553834	0.648659
39468	-10.914775	-5.956320	1.822684	-0.479301	-0.259282	-0.545914	0.636413
39469	-11.325914	-4.892390	1.775351	-0.500899	-0.264948	-0.537870	0.624179
39470	-11.239029	-4.401963	1.963817	-0.521971	-0.268654	-0.530995	0.611077
39471	-10.790259	-4.465126	2.067524	-0.542230	-0.270597	-0.525072	0.597547
39472	-10.124760	-4.671078	2.052057	-0.562002	-0.271582	-0.518610	0.584329
39473	-10.050334	-4.034030	2.147757	-0.580835	-0.272572	-0.510472	0.572498
39474	-10.089073	-3.455957	1.890260	-0.599456	-0.272812	-0.501037	0.561416
39475	-9.790235	-2.945240	1.581258	-0.617190	-0.272883	-0.491035	0.550904
39476	-9.076647	-2.620522	1.343588	-0.633892	-0.272386	-0.481211	0.540761
39477	-8.347494	-2.832621	1.542612	-0.648743	-0.272067	-0.471727	0.531588
39478	-8.008598	-2.802540	1.626088	-0.661547	-0.272873	-0.461767	0.524088
39479	-7.969659	-2.041133	1.612265	-0.672575	-0.274790	-0.451383	0.518060
39480	-8.231527	-1.082685	1.460506	-0.682742	-0.277011	-0.441492	0.512067
39481	-8.544849	-0.793453	1.492183	-0.692132	-0.279608	-0.432769	0.505455
39482	-8.631280	-0.890978	1.630287	-0.700912	-0.282307	-0.425180	0.498244
39483	-8.396512	-1.012493	1.961355	-0.708549	-0.284969	-0.418802	0.491280
39484	-8.313006	-1.020503	2.308500	-0.714876	-0.287842	-0.413340	0.485026
39485	-8.022925	-1.290860	2.508384	-0.720075	-0.290646	-0.408809	0.479471
39486	-7.782809	-1.520637	2.750656	-0.724150	-0.293629	-0.404989	0.474734
39487	-7.471014	-1.212282	2.804981	-0.726876	-0.297477	-0.401384	0.471221
39488	-7.562791	-0.635391	2.869715	-0.728654	-0.301302	-0.398574	0.468421
39489	-7.858510	-0.321273	2.966177	-0.729860	-0.304537	-0.396552	0.466164
39490	-8.142538	-0.355575	3.240633	-0.730821	-0.306875	-0.395081	0.464370
39491	-8.239566	-0.315681	3.563185	-0.731323	-0.308854	-0.393896	0.463273
39492	-8.292872	-0.309648	3.937244	-0.731053	-0.310729	-0.393029	0.463182
39493	-8.396532	-0.285098	4.313991	-0.730078	-0.312255	-0.392616	0.464042
39494	-8.680916	-0.221470	4.567551	-0.728561	-0.313041	-0.392901	0.465653
39495	-9.115197	-0.227836	4.718866	-0.726725	-0.313398	-0.393747	0.467563
39496	-10.417607	-0.407465	5.082375	-0.724563	-0.313697	-0.394970	0.469681
39497	-11.052756	-0.606195	5.618548	-0.721926	-0.314457	-0.395981	0.472376
39498	-10.650798	-0.981201	6.031802	-0.718275	-0.316018	-0.397200	0.475863
39499	-10.197663	-0.935936	6.180280	-0.713802	-0.317195	-0.399535	0.479840
39500	-9.828753	-1.333046	6.046318	-0.709220	-0.316716	-0.403555	0.483572
39501	-9.695224	-2.104565	5.717020	-0.704549	-0.315424	-0.408276	0.487266
39502	-9.710958	-3.146331	5.166580	-0.699820	-0.314302	-0.412433	0.491290
39503	-10.659789	-3.562377	4.892300	-0.694955	-0.313690	-0.415701	0.495812
39504	-10.905084	-3.424830	4.451627	-0.690144	-0.313550	-0.418161	0.500529
39505	-9.603771	-4.104652	3.975946	-0.685599	-0.313903	-0.420027	0.504972
39506	-8.923062	-4.864691	3.550161	-0.681336	-0.315014	-0.420843	0.509351
39507	-9.076794	-5.045910	2.854238	-0.677511	-0.317234	-0.419705	0.513993
39508	-9.920730	-4.700366	2.453714	-0.673702	-0.320898	-0.417048	0.518865
39509	-10.731602	-3.897224	2.545271	-0.669437	-0.325714	-0.413496	0.524199
39510	-10.361577	-3.099009	2.594730	-0.664600	-0.331007	-0.409927	0.529812
39511	-9.456242	-2.632764	2.511235	-0.659055	-0.336837	-0.407181	0.535155
39512	-8.862552	-2.338848	2.552468	-0.653145	-0.343274	-0.404761	0.540123
39513	-8.386546	-2.038124	2.833985	-0.647173	-0.350077	-0.401935	0.545033
39514	-8.110861	-1.517203	3.046921	-0.641145	-0.357036	-0.398688	0.550005
39515	-8.001744	-1.037158	3.430071	-0.634769	-0.364156	-0.394616	0.555642
39516	-7.861703	-0.182508	3.642924	-0.627538	-0.371584	-0.389604	0.562432
39517	-7.872476	1.057237	3.926374	-0.619534	-0.378587	-0.384698	0.569962
39518	-8.191880	1.847637	4.399818	-0.611355	-0.384407	-0.380483	0.577675
39519	-8.439524	2.144388	4.603159	-0.603425	-0.389067	-0.376777	0.585272
39520	-8.524833	2.265678	4.525220	-0.596369	-0.392342	-0.373994	0.592064
39521	-8.643455	2.095681	4.520360	-0.590140	-0.394770	-0.371926	0.597965
39522	-8.818285	1.987086	4.563117	-0.584334	-0.396775	-0.370317	0.603315
39523	-8.825599	1.977464	4.592096	-0.578858	-0.398317	-0.369121	0.608290
39524	-8.751999	1.835194	4.525327	-0.573919	-0.399163	-0.368184	0.612964
39525	-8.305630	1.680533	4.378895	-0.569785	-0.399427	-0.367431	0.617089
39526	-8.067651	1.723273	4.222067	-0.566442	-0.399588	-0.367089	0.620256
39527	-8.134419	1.833299	4.224805	-0.563857	-0.399698	-0.367084	0.622540
39528	-8.143913	1.841439	4.271912	-0.561761	-0.399782	-0.367408	0.624188
39529	-8.113976	1.951421	4.158266	-0.560205	-0.399865	-0.368104	0.625122
39530	-8.288861	2.026447	4.075379	-0.559538	-0.399811	-0.369506	0.624927
39531	-8.557094	1.713103	4.105051	-0.559876	-0.399314	-0.371240	0.623914
39532	-8.760571	1.334972	4.242964	-0.560898	-0.398517	-0.372704	0.622631
39533	-9.052548	0.976004	4.324103	-0.562346	-0.397734	-0.374017	0.621036
39534	-9.448605	0.681933	4.527382	-0.564166	-0.396896	-0.375287	0.619152
39535	-9.805087	0.828731	4.561024	-0.566099	-0.396114	-0.376279	0.617285
39536	-9.803897	1.009525	4.477839	-0.568595	-0.394600	-0.377537	0.615188
39537	-9.794037	0.582586	4.431900	-0.571836	-0.391914	-0.379717	0.612554
39538	-9.829641	0.154275	4.374024	-0.575395	-0.388563	-0.382446	0.609651
39539	-9.848938	-0.304708	4.351460	-0.578828	-0.385255	-0.385106	0.606820
39540	-9.762529	-0.657137	4.281531	-0.582124	-0.382228	-0.387041	0.604345
39541	-9.534679	-0.631944	4.234468	-0.585484	-0.379450	-0.388433	0.601952
39542	-9.460739	-0.488043	4.264328	-0.589065	-0.376872	-0.389686	0.599262
39543	-9.435408	-0.477363	4.217419	-0.592868	-0.374304	-0.390947	0.596291
39544	-9.356840	-0.490293	4.208033	-0.596761	-0.371698	-0.392343	0.593113
39545	-9.170668	-0.528437	4.240107	-0.600585	-0.368912	-0.393937	0.589928
39546	-9.128947	-0.581450	4.209884	-0.604248	-0.365860	-0.395857	0.586794
39547	-8.974635	-0.708889	4.170500	-0.607894	-0.362526	-0.397860	0.583735
39548	-8.628667	-0.775996	4.099746	-0.611577	-0.358969	-0.399805	0.580749
39549	-8.266139	-0.613922	3.982713	-0.615142	-0.355547	-0.401382	0.577996
39550	-8.162657	-0.491276	3.771565	-0.618457	-0.352393	-0.402674	0.575486
39551	-8.164132	-0.279757	3.708796	-0.621558	-0.349294	-0.404018	0.573088
39552	-8.212727	-0.251925	3.775742	-0.624319	-0.346401	-0.405307	0.570928
39553	-8.235340	-0.191467	3.881127	-0.626739	-0.343738	-0.406506	0.569030
39554	-8.454021	-0.209884	3.921169	-0.628913	-0.341203	-0.407837	0.567202
39555	-8.705482	-0.173663	3.975290	-0.631123	-0.338499	-0.409418	0.565225
39556	-8.867151	-0.379723	4.016365	-0.633233	-0.335905	-0.411154	0.563148
39557	-8.949243	-0.563105	4.041795	-0.635178	-0.333605	-0.412919	0.561030
39558	-8.997649	-0.558763	4.099283	-0.636859	-0.331628	-0.414662	0.559007
39559	-9.303896	-0.454752	4.118268	-0.638228	-0.329739	-0.416414	0.557258
39560	-9.699689	-0.323007	4.108382	-0.639418	-0.327710	-0.418349	0.555639
39561	-9.694287	-0.502375	4.194428	-0.640734	-0.325253	-0.420609	0.553858
39562	-9.274332	-0.815934	4.311324	-0.642018	-0.322816	-0.422903	0.552047
39563	-9.092700	-0.868431	4.424532	-0.642871	-0.320858	-0.424895	0.550666
39564	-9.066898	-0.621918	4.376891	-0.643417	-0.318996	-0.426874	0.549576
39565	-8.975597	-0.522679	4.413762	-0.643826	-0.316905	-0.428948	0.548693
39566	-8.940271	-0.500753	4.380953	-0.644302	-0.314341	-0.430969	0.548024
39567	-8.744710	-0.638703	4.309851	-0.645179	-0.311289	-0.432642	0.547415
39568	-8.655131	-0.689592	4.218769	-0.646370	-0.308072	-0.433870	0.546859
39569	-8.790236	-0.602835	4.065998	-0.647897	-0.304401	-0.434960	0.546241
39570	-8.993778	-0.713822	4.080974	-0.649552	-0.300618	-0.435846	0.545664
39571	-8.725440	-1.100517	4.070864	-0.651338	-0.296932	-0.436372	0.545133
39572	-8.584497	-1.198008	3.971029	-0.653155	-0.293562	-0.436604	0.544598
39573	-8.655615	-1.012629	3.901766	-0.655057	-0.290388	-0.436805	0.543853
39574	-8.912171	-1.240078	3.902926	-0.656962	-0.287441	-0.437172	0.542825
39575	-8.793087	-1.581155	3.948492	-0.658746	-0.284968	-0.437468	0.541728
39576	-8.700281	-1.832911	4.045692	-0.660181	-0.283353	-0.437629	0.540696
39577	-8.795705	-1.895096	4.082308	-0.661348	-0.282284	-0.437573	0.539875
39578	-8.557542	-2.051907	4.079423	-0.662457	-0.281315	-0.437501	0.539078
39579	-8.143065	-2.406620	4.200029	-0.663368	-0.280649	-0.437352	0.538426
39580	-8.128221	-2.579345	4.332215	-0.663957	-0.280555	-0.436751	0.538237
39581	-8.238206	-2.418021	4.186943	-0.664163	-0.281184	-0.435833	0.538399
39582	-8.901201	-2.146694	4.043074	-0.664144	-0.281954	-0.434868	0.538799
39583	-9.136502	-2.163377	4.033563	-0.663959	-0.282649	-0.433901	0.539441
39584	-9.041907	-2.438906	4.127280	-0.663431	-0.283676	-0.432802	0.540435
39585	-8.786826	-2.530010	4.199960	-0.662430	-0.285170	-0.431399	0.541995
39586	-8.540356	-2.401379	4.264500	-0.660889	-0.287176	-0.429472	0.544343
39587	-8.274300	-2.157051	4.261179	-0.658891	-0.289282	-0.427573	0.547138
39588	-8.283100	-2.014231	4.238361	-0.656417	-0.291408	-0.425907	0.550274
39589	-8.499007	-1.774173	4.260103	-0.653434	-0.293890	-0.423991	0.553972
39590	-8.622188	-1.422161	4.236512	-0.649934	-0.296758	-0.421701	0.558290
39591	-8.455684	-1.108577	4.279906	-0.646092	-0.299687	-0.419515	0.562814
39592	-8.471637	-1.041411	4.408245	-0.641786	-0.302849	-0.417560	0.567482
39593	-8.685543	-0.823471	4.500580	-0.637205	-0.306162	-0.415657	0.572245
39594	-8.865991	-0.614978	4.630064	-0.632531	-0.309632	-0.413645	0.577001
39595	-8.935750	-0.251958	4.808401	-0.628044	-0.313007	-0.411552	0.581561
39596	-8.581479	-0.212979	5.087337	-0.623938	-0.316196	-0.409351	0.585792
39597	-8.099205	-0.204544	5.170577	-0.620224	-0.319161	-0.407163	0.589641
39598	-7.846488	-0.086611	5.169167	-0.617018	-0.322097	-0.404758	0.593055
39599	-8.093334	0.206275	4.953219	-0.614348	-0.325178	-0.401890	0.596087
39600	-8.556199	0.744581	4.650468	-0.612237	-0.328322	-0.398961	0.598499
39601	-9.274633	0.926366	4.515204	-0.610691	-0.331092	-0.396478	0.600200
39602	-9.251821	0.852796	4.503600	-0.609611	-0.333082	-0.394661	0.601393
39603	-9.113232	0.168884	4.340527	-0.608682	-0.334741	-0.393841	0.601950
39604	-9.159484	-0.601553	4.170961	-0.607865	-0.336471	-0.393642	0.601941
39605	-9.238505	-1.445665	3.952115	-0.607344	-0.338003	-0.393859	0.601466
39606	-9.214330	-2.130903	3.737139	-0.606692	-0.339945	-0.393599	0.601201
39607	-9.244828	-2.552538	3.559266	-0.605328	-0.342775	-0.392745	0.601527
39608	-9.279473	-2.603882	3.287133	-0.603000	-0.346311	-0.391717	0.602510
39609	-9.523265	-2.550420	3.106072	-0.599616	-0.350376	-0.390786	0.604139
39610	-9.641137	-2.556339	2.900628	-0.595413	-0.354954	-0.390145	0.606035
39611	-9.682253	-2.636479	2.604612	-0.590584	-0.360085	-0.389828	0.607933
39612	-9.665206	-2.454202	2.413882	-0.585354	-0.365651	-0.389909	0.609615
39613	-9.730700	-2.246068	2.273013	-0.579905	-0.371553	-0.390432	0.610919
39614	-9.754059	-1.955777	2.112437	-0.574164	-0.378030	-0.390943	0.612039
39615	-9.689305	-1.714876	2.065373	-0.568289	-0.384880	-0.391124	0.613137
39616	-9.190425	-1.302877	1.819627	-0.562277	-0.392510	-0.390614	0.614167
39617	-8.751712	-0.955145	1.717103	-0.556807	-0.400254	-0.390821	0.614021
39618	-8.645865	-1.297592	2.186273	-0.551596	-0.407456	-0.390005	0.614506
39619	-8.860503	-0.633826	2.094858	-0.545613	-0.415074	-0.387961	0.616041
39620	-9.178965	0.261018	1.981646	-0.539507	-0.422117	-0.384923	0.618533
39621	-9.187735	1.410055	1.938659	-0.533789	-0.428655	-0.381766	0.620950
39622	-8.988427	2.041300	1.880095	-0.529406	-0.434358	-0.379660	0.622030
39623	-8.692450	2.261159	1.714447	-0.526680	-0.439878	-0.378156	0.621381
39624	-8.468564	2.440480	1.323082	-0.524719	-0.446072	-0.376846	0.619416
39625	-8.401591	2.518671	0.773765	-0.523606	-0.452622	-0.376748	0.615655
39626	-8.126890	2.250894	0.595467	-0.522930	-0.459618	-0.378904	0.609694
39627	-8.338749	0.705968	1.200509	-0.522328	-0.466924	-0.383764	0.601566
39628	-9.033781	-2.343327	2.435004	-0.519546	-0.475625	-0.387075	0.595001
39629	-10.339457	-5.003576	3.598819	-0.510870	-0.488099	-0.383863	0.594491
39630	-11.915848	-5.969693	4.483355	-0.496399	-0.502658	-0.373019	0.601481
39631	-12.419961	-4.967973	4.272060	-0.477817	-0.516055	-0.358251	0.614031
39632	-12.564059	-3.134597	3.888559	-0.459351	-0.524047	-0.346101	0.628160
39633	-12.121932	-0.686191	3.397513	-0.441484	-0.528055	-0.335944	0.642955
39634	-11.425390	0.743340	2.671018	-0.425259	-0.529112	-0.326958	0.657490
39635	-10.478727	1.735411	1.855501	-0.409333	-0.529316	-0.317554	0.671886
39636	-9.628100	2.193721	1.228622	-0.395878	-0.527990	-0.310112	0.684352
39637	-8.954762	1.779311	0.786703	-0.383818	-0.526878	-0.302847	0.695246
39638	-8.492694	1.255963	0.436639	-0.372110	-0.526983	-0.294428	0.705078
39639	-8.446240	0.865701	0.288747	-0.359561	-0.528725	-0.282959	0.714912
39640	-8.416810	1.131653	0.312752	-0.346375	-0.531593	-0.268805	0.724691
39641	-8.655695	1.122821	0.396087	-0.332877	-0.535199	-0.253071	0.733969
39642	-9.027685	1.095580	0.699776	-0.318405	-0.539874	-0.235617	0.742724
39643	-9.569600	1.336036	1.136143	-0.302832	-0.545433	-0.216833	0.750852
39644	-9.970010	1.632089	1.580798	-0.286698	-0.551297	-0.197802	0.758123
39645	-10.112438	2.070963	2.024688	-0.270257	-0.557161	-0.179318	0.764446
39646	-9.894353	2.740855	2.343385	-0.254438	-0.562809	-0.162575	0.769465
39647	-9.536906	3.009873	2.546252	-0.240439	-0.567910	-0.148912	0.772976
39648	-9.248834	2.947158	2.746240	-0.228560	-0.572428	-0.138262	0.775223
39649	-9.212609	2.433989	2.982060	-0.218368	-0.576333	-0.130019	0.776692
39650	-9.305960	2.208054	3.326165	-0.208415	-0.579612	-0.122095	0.778271
39651	-9.199627	2.488924	3.737865	-0.197682	-0.582368	-0.113354	0.780333
39652	-8.900378	3.167182	3.971652	-0.186879	-0.584640	-0.104639	0.782511
39653	-8.575418	3.717388	4.149242	-0.177128	-0.586610	-0.097040	0.784282
39654	-8.550096	4.143237	4.288515	-0.169217	-0.588049	-0.091165	0.785654
39655	-8.894509	4.239626	4.312164	-0.163497	-0.589144	-0.087095	0.786506
39656	-9.425800	4.341454	4.320063	-0.160108	-0.589877	-0.084722	0.786913
39657	-9.741641	3.797300	4.186926	-0.159108	-0.590347	-0.084005	0.786841
39658	-9.713740	2.872405	4.013128	-0.159919	-0.590621	-0.084367	0.786432
39659	-9.435257	2.003350	3.802304	-0.161486	-0.590627	-0.085105	0.786027
39660	-9.154477	1.491608	3.598728	-0.163145	-0.590322	-0.085617	0.785858
39661	-9.101518	1.187355	3.379112	-0.164731	-0.589862	-0.085906	0.785842
39662	-9.227094	0.787243	3.237541	-0.166655	-0.589148	-0.086700	0.785884
39663	-9.403836	0.372939	3.062971	-0.168384	-0.588366	-0.087765	0.785983
39664	-9.506823	0.281086	2.920667	-0.169587	-0.587483	-0.088793	0.786269
39665	-9.538495	0.146003	2.927628	-0.170336	-0.586751	-0.089822	0.786537
39666	-9.578000	-0.044194	2.919216	-0.170672	-0.586085	-0.090547	0.786878
39667	-9.523394	0.022687	2.780396	-0.170606	-0.585485	-0.090796	0.787310
39668	-9.524047	0.178225	2.649816	-0.170648	-0.584771	-0.091140	0.787792
39669	-9.470810	0.173075	2.528488	-0.170868	-0.584088	-0.091674	0.788188
39670	-9.413521	-0.188184	2.583576	-0.170999	-0.583573	-0.092295	0.788469
39671	-9.320125	-0.205717	2.509028	-0.170632	-0.583506	-0.092509	0.788574
39672	-9.341611	0.157123	2.281130	-0.169995	-0.583754	-0.092424	0.788537
39673	-9.374791	0.562296	2.367696	-0.169582	-0.584195	-0.092269	0.788318
39674	-9.304190	0.492692	2.469593	-0.169563	-0.584676	-0.092257	0.787966
39675	-9.070251	0.294133	2.319617	-0.169034	-0.585443	-0.091310	0.787620
39676	-8.930622	0.386018	2.326884	-0.167676	-0.586561	-0.089113	0.787331
39677	-9.005773	0.786793	2.432331	-0.166302	-0.587657	-0.086515	0.787094
39678	-8.958919	1.050697	2.527336	-0.165474	-0.588892	-0.084376	0.786579
39679	-9.076623	0.847847	2.510964	-0.165304	-0.590368	-0.083308	0.785621
39680	-9.150844	0.389420	2.664067	-0.165235	-0.591848	-0.082834	0.784571
39681	-9.307946	0.373195	2.863148	-0.164502	-0.593302	-0.082005	0.783713
39682	-9.419216	0.650064	3.008116	-0.163522	-0.594769	-0.081008	0.782910
39683	-9.617035	0.816638	3.061187	-0.162666	-0.596525	-0.080220	0.781833
39684	-9.634744	0.791779	3.123893	-0.162058	-0.598181	-0.079807	0.780735
39685	-9.445034	0.480889	3.155583	-0.161138	-0.599679	-0.079738	0.779783
39686	-9.485363	1.011214	3.368808	-0.159252	-0.600989	-0.079376	0.779199
39687	-9.372689	1.570843	3.386321	-0.157794	-0.602026	-0.080047	0.778626
39688	-9.162073	1.246277	3.223678	-0.157262	-0.602772	-0.081941	0.777959
39689	-9.050355	0.815286	3.140023	-0.157134	-0.603370	-0.084317	0.777267
39690	-9.209860	0.610380	3.139733	-0.156443	-0.603709	-0.086004	0.776959
39691	-9.410784	0.912218	3.071196	-0.155152	-0.603783	-0.086791	0.777072
39692	-9.438237	1.141594	2.878311	-0.154238	-0.603664	-0.087703	0.777244
39693	-9.295624	0.938225	2.872833	-0.154198	-0.603532	-0.089473	0.777153
39694	-9.270438	0.940508	2.834832	-0.154572	-0.603353	-0.091433	0.776990
39695	-9.215912	0.918060	2.738383	-0.155412	-0.603035	-0.093252	0.776852
39696	-9.343762	0.708667	2.897158	-0.156608	-0.602754	-0.094997	0.776619
39697	-9.578941	0.537399	3.076055	-0.157997	-0.602439	-0.096615	0.776382
39698	-9.786320	0.552027	2.855009	-0.158632	-0.601991	-0.096620	0.776600
39699	-9.456641	0.773378	2.687847	-0.159633	-0.601506	-0.096785	0.776750
39700	-9.170445	0.416452	2.625384	-0.161724	-0.601018	-0.098558	0.776472
39701	-9.232795	-0.237741	2.945632	-0.164349	-0.600344	-0.101685	0.776039
39702	-9.184315	-0.588363	3.010631	-0.165942	-0.599509	-0.104261	0.776004
39703	-9.051706	-0.155716	2.390875	-0.166126	-0.598981	-0.104885	0.776288
39704	-9.260496	0.048503	2.555196	-0.166145	-0.598910	-0.104955	0.776329
39705	-9.405231	-0.215337	2.765221	-0.165778	-0.598993	-0.104128	0.776455
39706	-9.299635	-0.155670	3.156019	-0.165078	-0.599052	-0.103267	0.776674
39707	-9.204164	-0.026612	3.216478	-0.163854	-0.598985	-0.102357	0.777105
39708	-9.003925	-0.374720	3.243961	-0.162705	-0.598402	-0.102065	0.777833
39709	-9.126448	0.078667	3.166647	-0.160759	-0.597822	-0.101414	0.778768
39710	-9.209456	0.290322	3.038816	-0.159673	-0.596862	-0.102293	0.779613
39711	-9.239392	-0.233368	2.983426	-0.159203	-0.595640	-0.104180	0.780393
39712	-9.251295	-0.775831	2.820841	-0.158568	-0.594189	-0.105878	0.781400
39713	-9.305822	-0.961189	2.972832	-0.156813	-0.592769	-0.106049	0.782808
39714	-9.225187	-0.225302	3.206353	-0.154638	-0.591212	-0.105185	0.784533
39715	-8.879299	0.127579	2.990286	-0.152772	-0.589471	-0.103958	0.786370
39716	-8.970870	-0.059066	3.240653	-0.151421	-0.587489	-0.102969	0.788242
39717	-9.461804	0.365361	3.376924	-0.150158	-0.585653	-0.101764	0.790005
39718	-9.958033	0.622784	3.534890	-0.149689	-0.583762	-0.101405	0.791538
39719	-10.071008	0.388289	3.490161	-0.149534	-0.581895	-0.101424	0.792938
39720	-9.780076	0.112361	3.426587	-0.149373	-0.579923	-0.101366	0.794419
39721	-9.386982	0.319112	3.223976	-0.148943	-0.578027	-0.100870	0.795944
39722	-9.168822	0.469340	2.905462	-0.149050	-0.576060	-0.100795	0.797358
39723	-9.099188	-0.139369	3.004001	-0.149759	-0.573604	-0.101130	0.798951
39724	-8.848924	-0.478138	3.178045	-0.149708	-0.571300	-0.100203	0.800727
39725	-8.585065	0.052251	3.196819	-0.149014	-0.569161	-0.098244	0.802620
39726	-8.736416	0.622159	3.084736	-0.148700	-0.567233	-0.096740	0.804224
39727	-9.008701	0.110705	3.018869	-0.148965	-0.565217	-0.095621	0.805727
39728	-9.128534	-0.817684	3.277794	-0.148786	-0.563023	-0.093166	0.807582
39729	-9.097964	-0.369110	3.137862	-0.147028	-0.561625	-0.087991	0.809455
39730	-9.118741	-0.008010	3.613345	-0.145403	-0.559978	-0.082860	0.811429
39731	-8.840579	0.502277	3.808562	-0.143642	-0.558604	-0.077744	0.813194
39732	-8.806189	1.001083	3.767023	-0.142819	-0.557342	-0.074405	0.814516
39733	-8.760485	0.751006	3.759469	-0.142961	-0.556047	-0.072864	0.815515
39734	-8.918055	0.594353	3.595095	-0.143408	-0.554891	-0.072093	0.816292
39735	-8.977222	0.241697	3.643048	-0.143968	-0.553752	-0.071654	0.817005
39736	-8.899674	0.404562	3.409888	-0.143863	-0.552839	-0.070221	0.817766
39737	-9.189898	0.736063	3.329037	-0.144077	-0.552087	-0.069168	0.818326
39738	-9.302812	0.350646	3.460098	-0.144622	-0.551283	-0.068536	0.818825
39739	-9.337108	0.205076	3.648213	-0.144892	-0.550632	-0.067666	0.819288
39740	-9.097527	0.703104	3.490646	-0.144949	-0.550261	-0.066773	0.819600
39741	-8.982747	0.735427	3.589405	-0.145741	-0.549808	-0.067408	0.819711
39742	-8.868836	0.524096	3.548468	-0.146733	-0.549374	-0.068540	0.819732
39743	-8.855021	0.228274	3.398457	-0.147557	-0.548901	-0.069231	0.819843
39744	-8.964877	0.100139	3.368872	-0.148022	-0.548503	-0.068974	0.820047
39745	-9.039227	-0.083025	3.471061	-0.148026	-0.548192	-0.067499	0.820376
39746	-9.168867	0.201635	3.598840	-0.147695	-0.548190	-0.065273	0.820617
39747	-9.400902	0.765656	3.771679	-0.147443	-0.548301	-0.063183	0.820752
39748	-9.907024	1.088093	3.974171	-0.148025	-0.548624	-0.062503	0.820484
39749	-10.168575	0.398179	4.080495	-0.149056	-0.549007	-0.062524	0.820039
39750	-9.971487	0.037233	3.849469	-0.149590	-0.549540	-0.061685	0.819649
39751	-9.668623	0.085756	3.700906	-0.149355	-0.550317	-0.059609	0.819323
39752	-9.509173	0.561558	3.593493	-0.149013	-0.551259	-0.057376	0.818912
39753	-9.537465	0.764168	3.548998	-0.148850	-0.552230	-0.055469	0.818418
39754	-9.853516	0.708207	3.654385	-0.148800	-0.553161	-0.053712	0.817916
39755	-9.922089	0.734734	3.362850	-0.148356	-0.554128	-0.051277	0.817498
39756	-10.032751	0.593509	3.531720	-0.147631	-0.555068	-0.048748	0.817146
39757	-9.994872	0.803236	3.590122	-0.146726	-0.555983	-0.045918	0.816851
39758	-9.552667	0.961606	3.403217	-0.145638	-0.556909	-0.042790	0.816585
39759	-9.355251	1.045502	3.247839	-0.144724	-0.557832	-0.040130	0.816253
39760	-9.179151	0.782495	3.178495	-0.143981	-0.558567	-0.038044	0.815981
39761	-9.060847	0.808510	3.118574	-0.142868	-0.559170	-0.035450	0.815880
39762	-9.072706	1.131121	2.878666	-0.141364	-0.559830	-0.032085	0.815829
39763	-9.142460	1.130720	2.920839	-0.139827	-0.560288	-0.028773	0.815903
39764	-9.074709	1.193346	3.059325	-0.138145	-0.560659	-0.025516	0.816043
39765	-9.012433	1.080730	3.109478	-0.136547	-0.560947	-0.022490	0.816203
39766	-8.955355	1.213741	2.861112	-0.134978	-0.561088	-0.019179	0.816452
39767	-8.868990	1.014028	2.749930	-0.133630	-0.561033	-0.015784	0.816784
39768	-8.754191	0.762034	2.618357	-0.132143	-0.560764	-0.011897	0.817276
39769	-8.762366	0.708821	2.488466	-0.130560	-0.560285	-0.007544	0.817910
