// Start Time: Unknown
// Update Rate: 60.0Hz
// Filter Profile: human (46.1)
// Option Flags: AHS Disabled ICC Disabled 
// Firmware Version: 4.3.5
PacketCounter	Acc_X	Acc_Y	Acc_Z	Quat_q0	Quat_q1	Quat_q2	Quat_q3
43442	-4.975469	-2.971929	7.950016	0.950465	-0.166871	0.259943	0.034651
43443	-4.964735	-2.961813	7.935414	0.950462	-0.166888	0.259940	0.034669
43444	-4.982960	-2.952863	7.941817	0.950461	-0.166910	0.259926	0.034692
43445	-4.983575	-2.952551	7.941548	0.950465	-0.166907	0.259912	0.034698
43446	-4.967017	-2.992554	7.943121	0.950462	-0.166914	0.259922	0.034677
43447	-4.973653	-2.973942	7.935285	0.950469	-0.166911	0.259899	0.034657
43448	-4.961057	-2.961934	7.953440	0.950472	-0.166929	0.259878	0.034669
43449	-4.980125	-2.969870	7.947870	0.950466	-0.166946	0.259885	0.034694
43450	-4.975494	-2.973182	7.934415	0.950473	-0.166940	0.259864	0.034688
43451	-4.981309	-2.968922	7.947482	0.950480	-0.166922	0.259847	0.034693
43452	-4.971151	-2.975455	7.921170	0.950490	-0.166898	0.259828	0.034691
43453	-4.982452	-2.967353	7.947352	0.950493	-0.166882	0.259825	0.034696
43454	-4.970272	-2.955014	7.965374	0.950491	-0.166887	0.259828	0.034708
43455	-4.978549	-2.970339	7.933564	0.950493	-0.166918	0.259800	0.034711
43456	-4.965987	-2.958271	7.951727	0.950500	-0.166900	0.259785	0.034717
43457	-4.960713	-2.976247	7.958967	0.950495	-0.166925	0.259788	0.034718
43458	-4.974480	-2.987582	7.940322	0.950502	-0.166895	0.259781	0.034709
43459	-4.969102	-2.973507	7.938961	0.950504	-0.166875	0.259788	0.034708
43460	-4.975972	-2.954083	7.931256	0.950513	-0.166824	0.259789	0.034706
43461	-4.982289	-2.980540	7.953182	0.950526	-0.166759	0.259783	0.034699
43462	-4.958322	-2.957837	7.957357	0.950542	-0.166705	0.259767	0.034662
43463	-4.965848	-2.986764	7.946720	0.950554	-0.166660	0.259750	0.034660
43464	-4.977746	-2.963468	7.952410	0.950567	-0.166605	0.259739	0.034656
43465	-4.978357	-2.962300	7.952463	0.950576	-0.166571	0.259729	0.034640
43466	-4.973061	-2.979450	7.960051	0.950587	-0.166520	0.259720	0.034655
43467	-4.961669	-2.983266	7.966442	0.950595	-0.166478	0.259718	0.034657
43468	-4.974296	-2.945210	7.951382	0.950609	-0.166416	0.259706	0.034661
43469	-4.969011	-2.962134	7.959055	0.950619	-0.166368	0.259702	0.034657
43470	-4.969600	-2.960728	7.959211	0.950636	-0.166300	0.259682	0.034648
43471	-4.953220	-2.953264	7.932046	0.950654	-0.166223	0.259671	0.034626
43472	-4.959949	-2.964883	7.933502	0.950670	-0.166157	0.259655	0.034611
43473	-4.959142	-2.961139	7.966292	0.950681	-0.166097	0.259654	0.034598
43474	-4.966597	-2.958017	7.947000	0.950702	-0.166005	0.259639	0.034577
43475	-4.979111	-2.951117	7.941044	0.950724	-0.165930	0.259608	0.034553
43476	-4.972622	-2.950692	7.961050	0.950748	-0.165831	0.259587	0.034533
43477	-4.967187	-2.967153	7.969021	0.950765	-0.165754	0.259579	0.034503
43478	-4.966994	-2.948500	7.981172	0.950781	-0.165674	0.259574	0.034486
43479	-4.967735	-2.946812	7.981334	0.950795	-0.165593	0.259582	0.034425
43480	-4.981187	-2.925361	7.954395	0.950814	-0.165503	0.259574	0.034394
43481	-4.987555	-2.951766	7.976389	0.950820	-0.165463	0.259583	0.034354
43482	-4.977402	-2.926511	7.941237	0.950831	-0.165407	0.259583	0.034331
43483	-4.972244	-2.943553	7.948839	0.950840	-0.165349	0.259592	0.034288
43484	-4.967499	-2.945986	7.935817	0.950858	-0.165279	0.259577	0.034226
43485	-4.960170	-2.928965	7.967594	0.950880	-0.165203	0.259547	0.034201
43486	-4.956512	-2.933458	7.922251	0.950901	-0.165126	0.259528	0.034158
43487	-4.973701	-2.937617	7.950123	0.950924	-0.165043	0.259500	0.034116
43488	-4.949578	-2.946111	7.963481	0.950950	-0.164955	0.259465	0.034076
43489	-4.943544	-2.930962	7.962863	0.950979	-0.164847	0.259437	0.034028
43490	-4.955993	-2.924072	7.956915	0.950997	-0.164777	0.259418	0.033991
43491	-4.966689	-2.929744	8.004071	0.951009	-0.164713	0.259419	0.033950
43492	-4.963417	-2.934677	7.958347	0.951019	-0.164672	0.259413	0.033922
43493	-4.964106	-2.933725	7.958269	0.951026	-0.164634	0.259417	0.033875
43494	-4.951356	-2.935603	7.997132	0.951030	-0.164610	0.259420	0.033853
43495	-4.971187	-2.928387	7.970890	0.951031	-0.164587	0.259433	0.033841
43496	-4.972672	-2.913057	7.949832	0.951035	-0.164562	0.259437	0.033818
43497	-4.967198	-2.945284	7.977862	0.951030	-0.164557	0.259460	0.033815
43498	-4.962889	-2.948356	7.964349	0.951033	-0.164537	0.259462	0.033822
43499	-4.963029	-2.930527	7.975926	0.951033	-0.164514	0.259475	0.033826
43500	-4.972416	-2.962100	7.932444	0.951039	-0.164478	0.259473	0.033832
43501	-4.952429	-2.902102	7.973053	0.951043	-0.164450	0.259479	0.033823
43502	-4.972318	-2.926362	7.955852	0.951051	-0.164430	0.259462	0.033822
43503	-4.967541	-2.929420	7.942637	0.951056	-0.164417	0.259454	0.033825
43504	-4.955267	-2.947852	7.970047	0.951080	-0.164340	0.259413	0.033830
43505	-4.953771	-2.912465	7.994181	0.951097	-0.164297	0.259378	0.033824
43506	-4.954136	-2.926514	8.014580	0.951077	-0.164335	0.259424	0.033836
43507	-4.963019	-2.910913	7.973174	0.951057	-0.164384	0.259470	0.033827
43508	-4.965345	-2.928370	7.960209	0.951038	-0.164436	0.259508	0.033814
43509	-4.960386	-2.915766	7.957967	0.951023	-0.164497	0.259524	0.033811
43510	-4.948871	-2.936019	7.984260	0.951008	-0.164547	0.259551	0.033797
43511	-4.962668	-2.916764	7.956178	0.950996	-0.164589	0.259566	0.033808
43512	-4.951547	-2.922147	7.961898	0.950987	-0.164628	0.259572	0.033806
43513	-4.987474	-2.936011	7.983703	0.950994	-0.164636	0.259544	0.033788
43514	-4.953670	-2.939328	7.949150	0.950981	-0.164688	0.259560	0.033793
43515	-4.965384	-2.932247	7.974595	0.950973	-0.164733	0.259559	0.033791
43516	-4.966297	-2.932736	7.973846	0.950961	-0.164789	0.259571	0.033781
43517	-4.968292	-2.950333	7.961015	0.950942	-0.164852	0.259600	0.033780
43518	-4.969883	-2.936341	7.939359	0.950933	-0.164900	0.259604	0.033780
43519	-4.964785	-2.954839	7.946466	0.950931	-0.164919	0.259599	0.033781
43520	-4.952982	-2.928404	7.943634	0.950932	-0.164937	0.259587	0.033758
43521	-4.959251	-2.955962	7.965359	0.950936	-0.164934	0.259572	0.033761
43522	-4.959704	-2.955220	7.965352	0.950951	-0.164895	0.259543	0.033748
43523	-4.972247	-2.949207	7.958963	0.950961	-0.164867	0.259529	0.033730
43524	-4.947622	-2.941461	7.983850	0.950976	-0.164822	0.259499	0.033729
43525	-4.966659	-2.933810	7.958154	0.950995	-0.164780	0.259455	0.033741
43526	-4.954365	-2.952415	7.985583	0.951005	-0.164751	0.259437	0.033749
43527	-4.961269	-2.918385	7.957225	0.951018	-0.164705	0.259413	0.033779
43528	-4.944365	-2.926161	7.950623	0.951025	-0.164683	0.259405	0.033775
43529	-4.962095	-2.931022	7.977885	0.951030	-0.164661	0.259399	0.033773
43530	-4.951179	-2.920991	7.963347	0.951031	-0.164664	0.259392	0.033776
43531	-4.975620	-2.924748	7.970967	0.951037	-0.164648	0.259382	0.033786
43532	-4.940658	-2.924801	7.969302	0.951036	-0.164631	0.259397	0.033780
43533	-4.971901	-2.927126	7.957342	0.951043	-0.164614	0.259385	0.033760
43534	-4.936138	-2.941901	7.976602	0.951048	-0.164604	0.259374	0.033747
43535	-4.966488	-2.927429	7.976471	0.951047	-0.164600	0.259379	0.033740
43536	-4.949995	-2.936142	7.969287	0.951037	-0.164632	0.259397	0.033746
43537	-4.970011	-2.929810	7.942461	0.951024	-0.164664	0.259425	0.033734
43538	-4.952467	-2.936550	7.967600	0.951008	-0.164710	0.259453	0.033731
43539	-4.943576	-2.961073	7.928887	0.951006	-0.164713	0.259459	0.033729
43540	-4.954493	-2.936314	7.966428	0.951003	-0.164727	0.259465	0.033723
43541	-4.955476	-2.936207	7.965855	0.950995	-0.164747	0.259479	0.033717
43542	-4.955834	-2.919231	7.976983	0.950982	-0.164775	0.259509	0.033719
43543	-4.986878	-2.937052	7.985252	0.950973	-0.164826	0.259511	0.033707
43544	-4.953184	-2.940845	7.950511	0.950961	-0.164882	0.259520	0.033707
43545	-4.966068	-2.950542	7.963942	0.950946	-0.164906	0.259561	0.033704
43546	-4.949932	-2.959711	7.956383	0.950929	-0.164960	0.259589	0.033692
43547	-4.962463	-2.938131	7.960795	0.950913	-0.165010	0.259615	0.033695
43548	-4.969934	-2.951618	7.961132	0.950901	-0.165049	0.259635	0.033708
43549	-4.958055	-2.940000	7.978761	0.950893	-0.165090	0.259635	0.033716
43550	-4.977268	-2.948699	7.972704	0.950878	-0.165170	0.259638	0.033727
43551	-4.942715	-2.935923	7.949723	0.950864	-0.165254	0.259635	0.033750
43552	-4.967635	-2.940945	7.956529	0.950844	-0.165311	0.259670	0.033764
43553	-4.951905	-2.967150	7.937326	0.950844	-0.165349	0.259647	0.033760
43554	-4.952710	-2.952139	7.916482	0.950858	-0.165310	0.259616	0.033777
43555	-4.951239	-2.962892	7.970313	0.950883	-0.165237	0.259571	0.033782
43556	-4.939870	-2.951813	7.956455	0.950899	-0.165174	0.259552	0.033792
43557	-4.970740	-2.953025	7.945037	0.950921	-0.165097	0.259520	0.033795
43558	-4.954137	-2.976708	7.927348	0.950957	-0.164985	0.259456	0.033820
43559	-4.952661	-2.971385	7.961228	0.951003	-0.164826	0.259384	0.033848
43560	-4.946237	-2.954882	7.961351	0.951044	-0.164672	0.259329	0.033871
43561	-4.935114	-2.958809	7.936732	0.951100	-0.164475	0.259245	0.033897
43562	-4.901098	-3.006072	7.902016	0.951171	-0.164224	0.259135	0.033955
43563	-4.930353	-3.003173	7.893210	0.951270	-0.163885	0.258979	0.034025
43564	-4.844386	-3.033044	7.910913	0.951442	-0.163321	0.258694	0.034079
43565	-4.986653	-2.949019	7.950853	0.951648	-0.162671	0.258340	0.034126
43566	-4.970389	-2.853676	8.036737	0.951853	-0.162051	0.257977	0.034117
43567	-4.953532	-2.774298	8.142631	0.952026	-0.161571	0.257638	0.034104
43568	-4.963773	-2.764946	8.107825	0.952104	-0.161309	0.257513	0.034109
43569	-4.956533	-2.868494	8.045594	0.952135	-0.161194	0.257468	0.034139
43570	-4.954859	-2.832059	8.069790	0.952159	-0.161122	0.257416	0.034209
43571	-4.948826	-2.832368	8.089235	0.952143	-0.161179	0.257429	0.034284
43572	-4.944294	-2.820244	8.086467	0.952096	-0.161330	0.257499	0.034359
43573	-5.001841	-2.847477	8.068419	0.952019	-0.161626	0.257585	0.034459
43574	-4.986550	-2.816304	8.028463	0.951929	-0.162062	0.257633	0.034536
43575	-4.949286	-2.894321	7.995806	0.951831	-0.162574	0.257659	0.034637
43576	-4.921191	-2.885129	7.982483	0.951720	-0.163071	0.257744	0.034708
43577	-4.947467	-2.897275	7.985913	0.951609	-0.163548	0.257849	0.034740
43578	-4.972946	-2.924184	8.010273	0.951507	-0.164057	0.257896	0.034777
43579	-4.967741	-2.935449	8.025281	0.951382	-0.164727	0.257918	0.034865
43580	-4.936511	-2.878834	8.046637	0.951245	-0.165442	0.257955	0.034948
43581	-4.936105	-2.930868	7.971619	0.951101	-0.166131	0.258042	0.034959
43582	-4.935434	-2.996937	7.917230	0.950966	-0.166778	0.258121	0.034952
43583	-4.860781	-3.060760	7.893920	0.950887	-0.167274	0.258092	0.034955
43584	-4.952244	-2.896698	8.066001	0.950801	-0.167764	0.258093	0.034957
43585	-4.966162	-2.933712	8.063593	0.950653	-0.168482	0.258171	0.034931
43586	-4.915789	-3.018200	7.902159	0.950474	-0.169345	0.258268	0.034922
43587	-4.962066	-3.020477	7.988117	0.950307	-0.170180	0.258331	0.034942
43588	-5.136487	-2.914158	8.103501	0.950065	-0.171360	0.258440	0.034931
43589	-5.041415	-3.126646	7.924029	0.949787	-0.172743	0.258554	0.034851
43590	-5.046182	-3.114962	7.950803	0.949536	-0.174171	0.258531	0.034750
43591	-5.128782	-2.985874	7.994585	0.949298	-0.175818	0.258300	0.034668
43592	-5.114072	-3.169554	7.980095	0.949070	-0.177747	0.257830	0.034588
43593	-4.992181	-3.120093	7.865215	0.948884	-0.179792	0.257113	0.034463
43594	-4.849561	-3.402484	7.746329	0.948733	-0.181718	0.256335	0.034302
43595	-4.700960	-3.386551	7.687238	0.948632	-0.183114	0.255743	0.034094
43596	-4.781213	-3.263135	7.805643	0.948568	-0.184041	0.255341	0.033898
43597	-4.941540	-2.936840	7.973834	0.948514	-0.185096	0.254818	0.033601
43598	-4.390244	-3.434024	7.644078	0.948409	-0.186047	0.254557	0.033273
43599	-4.867598	-3.382879	7.767402	0.948282	-0.186554	0.254698	0.032972
43600	-4.984806	-3.120074	7.942045	0.948200	-0.186975	0.254726	0.032737
43601	-4.762987	-3.204260	7.820433	0.948105	-0.187479	0.254735	0.032532
43602	-4.299859	-3.419774	7.555073	0.947967	-0.187633	0.255141	0.032484
43603	-4.419472	-3.691552	7.458971	0.947857	-0.186940	0.256045	0.032588
43604	-4.878272	-3.207244	7.877559	0.947839	-0.185669	0.257010	0.032782
43605	-4.826624	-3.311029	7.840691	0.947881	-0.184258	0.257853	0.032910
43606	-5.054262	-3.492415	7.838344	0.947957	-0.182819	0.258577	0.033040
43607	-5.191952	-3.367321	7.992795	0.948064	-0.181589	0.259034	0.033179
43608	-5.263976	-3.119648	8.105476	0.948101	-0.181129	0.259214	0.033253
43609	-5.095063	-3.252419	7.935696	0.948091	-0.181059	0.259302	0.033224
43610	-5.043773	-3.214612	7.898279	0.948052	-0.181164	0.259373	0.033187
43611	-4.992956	-3.290930	7.872048	0.948026	-0.181326	0.259363	0.033134
43612	-4.905358	-3.257561	7.800775	0.947998	-0.181464	0.259372	0.033101
43613	-4.976741	-3.087767	7.970970	0.947958	-0.181596	0.259427	0.033110
43614	-5.216515	-3.142699	7.978326	0.947912	-0.182048	0.259288	0.033041
43615	-5.125904	-3.277842	7.913958	0.947901	-0.182746	0.258841	0.033014
43616	-5.125963	-3.189427	7.917849	0.947975	-0.183510	0.258005	0.033168
43617	-4.745578	-2.984838	7.875586	0.948108	-0.184080	0.257025	0.033837
43618	-4.596949	-3.569336	7.608712	0.948204	-0.184366	0.256346	0.034705
43619	-4.632522	-3.681056	7.558772	0.948283	-0.184225	0.256059	0.035407
43620	-4.719404	-3.612671	7.641537	0.948348	-0.183800	0.256063	0.035839
43621	-4.718977	-3.390269	7.675763	0.948416	-0.183071	0.256288	0.036171
43622	-4.770332	-3.315703	7.744218	0.948512	-0.182075	0.256592	0.036527
43623	-4.661800	-3.183223	7.785962	0.948637	-0.180724	0.257029	0.036907
43624	-4.891360	-3.175679	7.884789	0.948755	-0.179240	0.257576	0.037293
43625	-4.869238	-3.165352	7.843047	0.948866	-0.177796	0.258120	0.037621
43626	-4.932597	-3.006086	8.018070	0.948886	-0.176640	0.258800	0.037903
43627	-4.995844	-3.013260	7.987223	0.948823	-0.175922	0.259494	0.038080
43628	-5.019919	-3.112823	7.911979	0.948753	-0.175391	0.260084	0.038239
43629	-5.149072	-3.108466	7.927119	0.948724	-0.174964	0.260454	0.038398
43630	-5.186874	-3.015638	7.988335	0.948717	-0.174689	0.260641	0.038550
43631	-5.176535	-2.967818	7.998438	0.948718	-0.174598	0.260679	0.038673
43632	-5.040439	-3.055447	7.900229	0.948705	-0.174566	0.260741	0.038736
43633	-5.025667	-3.079414	7.880891	0.948706	-0.174497	0.260780	0.038759
43634	-5.072283	-3.051708	7.952351	0.948688	-0.174532	0.260815	0.038803
43635	-5.014214	-2.931729	8.008201	0.948638	-0.174792	0.260812	0.038874
43636	-4.915975	-3.059376	7.883538	0.948514	-0.175215	0.260983	0.038838
43637	-4.901960	-3.162691	7.765416	0.948412	-0.175477	0.261187	0.038778
43638	-4.923452	-3.202130	7.797954	0.948389	-0.175437	0.261309	0.038700
43639	-4.958010	-3.115207	7.859128	0.948387	-0.175235	0.261467	0.038591
43640	-4.977416	-3.100034	7.898427	0.948417	-0.174935	0.261576	0.038473
43641	-5.044876	-3.019045	7.818418	0.948467	-0.174602	0.261632	0.038385
43642	-5.027339	-3.007403	7.793584	0.948565	-0.174290	0.261500	0.038287
43643	-4.953262	-3.231630	7.808285	0.948712	-0.173977	0.261184	0.038204
43644	-5.005641	-3.224015	7.919858	0.948857	-0.173649	0.260881	0.038166
43645	-4.990258	-3.224235	7.899267	0.949024	-0.173189	0.260576	0.038196
43646	-5.089059	-2.947981	7.984945	0.949190	-0.172724	0.260268	0.038279
43647	-5.030550	-3.051085	7.961555	0.949286	-0.172428	0.260095	0.038394
43648	-5.022237	-3.119313	7.889803	0.949353	-0.172152	0.260011	0.038554
43649	-4.960239	-3.089380	7.960866	0.949404	-0.171863	0.259989	0.038732
43650	-4.975711	-3.142696	7.940612	0.949464	-0.171571	0.259938	0.038903
43651	-4.977790	-3.137571	7.910052	0.949518	-0.171222	0.259942	0.039092
43652	-4.967347	-3.132851	7.950881	0.949549	-0.170852	0.260038	0.039332
43653	-4.997802	-3.147404	7.914035	0.949529	-0.170556	0.260248	0.039708
43654	-5.012914	-3.068122	7.922753	0.949511	-0.170219	0.260466	0.040161
43655	-5.032818	-2.863942	8.041422	0.949455	-0.169975	0.260757	0.040606
43656	-4.997964	-2.976432	8.057145	0.949302	-0.169979	0.261224	0.041171
43657	-5.092097	-2.874837	7.954976	0.949074	-0.170192	0.261814	0.041787
43658	-5.260995	-2.795224	7.743516	0.948878	-0.170458	0.262278	0.042257
43659	-5.257070	-2.671764	7.723982	0.948788	-0.170655	0.262448	0.042410
43660	-5.112200	-2.807199	7.804921	0.948790	-0.170879	0.262307	0.042337
43661	-5.057267	-2.896916	7.900226	0.948801	-0.171151	0.262109	0.042222
43662	-5.051171	-2.851712	7.968152	0.948754	-0.171614	0.261987	0.042159
43663	-4.946917	-3.066566	7.869638	0.948689	-0.172147	0.261897	0.042013
43664	-4.963393	-3.067657	7.841350	0.948680	-0.172463	0.261755	0.041803
43665	-4.970357	-3.032694	7.890882	0.948681	-0.172690	0.261639	0.041573
43666	-5.046802	-2.900019	7.885055	0.948709	-0.172787	0.261521	0.041273
43667	-5.026778	-3.089100	7.928119	0.948741	-0.172887	0.261385	0.040958
43668	-5.073146	-3.016798	8.015651	0.948680	-0.173452	0.261248	0.040861
43669	-4.995046	-3.157118	7.898551	0.948559	-0.174338	0.261095	0.040872
43670	-4.910397	-3.286008	7.779319	0.948451	-0.175151	0.260952	0.040826
43671	-4.853683	-3.392466	7.726724	0.948408	-0.175547	0.260849	0.040776
43672	-4.928325	-3.341940	7.712881	0.948479	-0.175399	0.260708	0.040677
43673	-5.020633	-3.186119	7.784281	0.948664	-0.174711	0.260518	0.040539
43674	-5.002539	-3.127018	7.866844	0.948861	-0.173916	0.260350	0.040434
43675	-5.008800	-3.071952	7.924874	0.949085	-0.173073	0.260100	0.040385
43676	-5.038106	-3.035864	8.011198	0.949299	-0.172315	0.259829	0.040351
43677	-5.034686	-3.008358	7.997557	0.949475	-0.171679	0.259610	0.040332
43678	-5.033119	-2.880377	8.035362	0.949607	-0.171145	0.259482	0.040302
43679	-5.017989	-2.931613	7.995916	0.949681	-0.170785	0.259456	0.040253
43680	-5.071600	-2.913626	8.037298	0.949698	-0.170553	0.259563	0.040161
43681	-5.060769	-2.854571	8.025275	0.949631	-0.170669	0.259752	0.040034
43682	-5.035177	-2.961593	7.947294	0.949487	-0.171079	0.260043	0.039792
43683	-4.969112	-3.196833	7.756831	0.949387	-0.171369	0.260262	0.039507
43684	-5.049907	-3.122102	7.862273	0.949342	-0.171500	0.260376	0.039263
43685	-4.976765	-2.869334	8.065797	0.949305	-0.171714	0.260405	0.039036
43686	-4.952321	-2.928068	7.972966	0.949198	-0.172180	0.260521	0.038816
43687	-4.915384	-3.006297	7.970626	0.949054	-0.172763	0.260694	0.038585
43688	-5.000253	-2.945162	7.974688	0.948863	-0.173457	0.260957	0.038375
43689	-5.049579	-2.752670	8.085771	0.948573	-0.174586	0.261294	0.038136
43690	-5.142426	-2.869240	8.059738	0.948162	-0.176402	0.261610	0.037841
43691	-5.043164	-2.796666	8.072290	0.947568	-0.178947	0.262093	0.037423
43692	-5.097966	-3.109101	7.948888	0.946832	-0.181965	0.262747	0.036904
43693	-5.351406	-3.095189	8.072083	0.946060	-0.185606	0.263075	0.036220
43694	-5.084349	-3.190660	7.901018	0.945286	-0.189833	0.262968	0.035301
43695	-4.845844	-3.205192	7.794137	0.944503	-0.193992	0.262868	0.034365
43696	-5.531221	-3.379385	8.101623	0.943620	-0.198517	0.262820	0.033145
43697	-5.262016	-3.277915	8.021875	0.942672	-0.203904	0.262303	0.031463
43698	-5.133804	-3.329025	7.892291	0.941635	-0.209557	0.261798	0.029513
43699	-5.133675	-3.183236	7.909925	0.940544	-0.215579	0.261071	0.027292
43700	-5.077490	-3.936986	7.444601	0.939463	-0.221792	0.259998	0.024861
43701	-4.525296	-4.626535	6.930877	0.938443	-0.227406	0.259050	0.022456
43702	-4.281053	-4.792084	6.880962	0.937461	-0.231772	0.258913	0.020308
43703	-4.097080	-4.740011	6.852916	0.936614	-0.234986	0.259214	0.018533
43704	-4.187955	-4.720702	6.884588	0.935858	-0.236991	0.260211	0.017200
43705	-4.557086	-4.486745	6.985516	0.935158	-0.238260	0.261621	0.016298
43706	-4.675616	-4.406965	7.066409	0.934598	-0.238969	0.263009	0.015739
43707	-4.580772	-4.612282	6.930603	0.934115	-0.239248	0.264487	0.015406
43708	-4.662955	-4.453365	7.048412	0.933696	-0.238831	0.266338	0.015344
43709	-4.584225	-4.514184	6.999138	0.933352	-0.238071	0.268210	0.015507
43710	-5.005478	-4.366814	7.214512	0.933085	-0.236735	0.270284	0.015983
43711	-5.083798	-4.334099	7.186976	0.932951	-0.235229	0.272022	0.016556
43712	-4.762030	-4.673610	6.853747	0.933111	-0.232933	0.273387	0.017500
43713	-4.646366	-4.817627	6.789889	0.933541	-0.229224	0.274951	0.018951
43714	-5.148427	-4.031655	7.318004	0.934191	-0.224939	0.276154	0.020681
43715	-5.353116	-4.065097	7.461087	0.934953	-0.220431	0.277065	0.022522
43716	-5.462880	-3.585890	7.824240	0.935618	-0.216527	0.277744	0.024360
43717	-5.367862	-3.588630	7.734368	0.936074	-0.213315	0.278527	0.026159
43718	-5.385733	-3.711511	7.557145	0.936438	-0.210424	0.279337	0.027876
43719	-5.237231	-3.977584	7.358423	0.936867	-0.207326	0.280033	0.029621
43720	-5.268976	-4.067276	7.424025	0.937375	-0.203891	0.280658	0.031437
43721	-5.393299	-3.800616	7.438767	0.937970	-0.200375	0.280996	0.033226
43722	-5.666102	-3.428678	7.586466	0.938610	-0.197047	0.281025	0.034759
43723	-5.735581	-3.300059	7.615753	0.939252	-0.194094	0.280786	0.035952
43724	-5.352639	-3.443415	7.855498	0.939846	-0.191447	0.280495	0.036867
43725	-5.455962	-3.248813	7.609118	0.940352	-0.189104	0.280302	0.037528
43726	-5.397091	-3.267632	7.571646	0.940832	-0.186937	0.280086	0.037982
43727	-5.357113	-3.101323	7.624058	0.941221	-0.185101	0.279939	0.038399
43728	-5.446447	-2.944971	7.578605	0.941543	-0.183676	0.279735	0.038831
43729	-5.351012	-3.181090	7.503271	0.941853	-0.182562	0.279346	0.039375
43730	-5.469080	-2.721212	7.524149	0.942267	-0.181605	0.278510	0.039803
43731	-5.305857	-3.136645	7.626225	0.942776	-0.180801	0.277271	0.040079
43732	-5.414444	-2.894112	7.673608	0.943296	-0.180052	0.275952	0.040307
43733	-5.392517	-3.029211	7.667860	0.943892	-0.179139	0.274506	0.040278
43734	-5.171347	-3.381819	7.898566	0.944523	-0.177946	0.273125	0.040171
43735	-5.079243	-3.468552	7.832570	0.944989	-0.176781	0.272263	0.040204
43736	-5.143333	-3.136495	7.760821	0.945375	-0.175739	0.271572	0.040378
43737	-5.152688	-2.875106	7.847270	0.945734	-0.174789	0.270901	0.040597
43738	-5.073908	-2.918568	8.006881	0.946048	-0.174019	0.270268	0.040818
43739	-5.145596	-2.902335	7.962931	0.946201	-0.173484	0.270038	0.041058
43740	-5.198036	-3.002002	7.874985	0.946273	-0.173076	0.270008	0.041331
43741	-5.186118	-3.222555	7.700879	0.946361	-0.172631	0.269924	0.041727
43742	-5.165800	-3.284951	7.736240	0.946515	-0.171977	0.269754	0.042017
43743	-5.173881	-2.972127	7.686775	0.946729	-0.171096	0.269520	0.042297
43744	-5.173206	-2.763860	7.853816	0.946940	-0.170313	0.269245	0.042501
43745	-5.110602	-2.637962	8.068545	0.947042	-0.169932	0.269117	0.042560
43746	-5.084669	-2.910225	8.111188	0.946938	-0.170070	0.269406	0.042487
43747	-5.188528	-3.014827	7.809723	0.946721	-0.170339	0.270002	0.042463
43748	-5.302646	-2.940489	7.666074	0.946532	-0.170546	0.270550	0.042352
43749	-5.355710	-3.048817	7.405671	0.946519	-0.170467	0.270689	0.042082
43750	-5.302119	-2.589739	7.811062	0.946615	-0.170382	0.270485	0.041570
43751	-5.269073	-2.621672	7.866786	0.946687	-0.170529	0.270271	0.040707
43752	-5.150041	-2.867059	7.920013	0.946690	-0.170919	0.270167	0.039677
43753	-5.169027	-3.106482	7.806146	0.946619	-0.171510	0.270170	0.038797
43754	-5.162262	-3.157824	7.764968	0.946558	-0.172059	0.270128	0.038137
43755	-5.149902	-3.243973	7.688204	0.946555	-0.172465	0.269958	0.037588
43756	-5.098051	-3.102978	7.848874	0.946570	-0.172760	0.269785	0.037096
43757	-5.149633	-2.966385	7.897973	0.946539	-0.173082	0.269762	0.036547
43758	-5.134962	-3.066073	7.892737	0.946416	-0.173668	0.269887	0.036009
43759	-5.168763	-3.147590	7.857403	0.946248	-0.174434	0.270033	0.035627
43760	-5.173307	-3.304180	7.654917	0.946092	-0.175449	0.269945	0.035471
43761	-5.152897	-3.110694	7.813522	0.945928	-0.176478	0.269862	0.035350
43762	-5.163200	-3.312627	7.651965	0.945744	-0.177609	0.269796	0.035117
43763	-5.073222	-3.337611	7.736674	0.945575	-0.178490	0.269840	0.034858
43764	-5.099097	-3.372111	7.724371	0.945433	-0.179053	0.269999	0.034595
43765	-5.279147	-3.286036	7.910126	0.945309	-0.179454	0.270200	0.034340
43766	-5.461941	-3.139497	7.994717	0.945179	-0.180133	0.270237	0.034064
43767	-5.538271	-3.026402	7.917000	0.945048	-0.181377	0.269927	0.033572
43768	-5.332179	-2.611024	8.017000	0.944901	-0.183071	0.269382	0.032877
43769	-5.479496	-2.394505	8.151648	0.944713	-0.185618	0.268411	0.031921
43770	-5.380731	-2.544975	8.104923	0.944500	-0.189084	0.266861	0.030874
43771	-5.488969	-3.014897	7.853330	0.944439	-0.192940	0.264410	0.029949
43772	-4.389348	-3.799764	7.457092	0.944391	-0.196734	0.261854	0.029215
43773	-4.909022	-4.191492	7.431552	0.944256	-0.200371	0.259678	0.028285
43774	-5.073712	-3.855912	7.813766	0.944149	-0.203868	0.257444	0.027279
43775	-5.925599	-4.472475	7.852239	0.944181	-0.207243	0.254756	0.025930
43776	-6.106523	-3.451543	8.344277	0.944431	-0.210920	0.250960	0.024129
43777	-5.031408	-2.783420	8.302340	0.944665	-0.215433	0.246394	0.022070
43778	-4.478136	-3.629369	7.897302	0.944612	-0.220674	0.242117	0.019770
43779	-4.020737	-3.796629	7.525540	0.944315	-0.226204	0.238336	0.017217
43780	-3.491498	-3.833826	7.541225	0.943779	-0.231620	0.235399	0.014869
43781	-3.279861	-4.417676	7.041053	0.943143	-0.236474	0.233221	0.013016
43782	-3.826197	-5.900982	6.616571	0.942551	-0.240185	0.231903	0.011413
43783	-3.555266	-5.574052	6.739325	0.942372	-0.242044	0.230744	0.010364
43784	-3.916759	-5.117130	7.251494	0.942175	-0.243061	0.230530	0.009157
43785	-5.130602	-3.193148	8.584803	0.941901	-0.244526	0.230154	0.007641
43786	-5.175655	-2.419796	8.986137	0.941315	-0.247998	0.228888	0.005709
43787	-4.429293	-4.000995	7.844227	0.940296	-0.253215	0.227410	0.003214
43788	-3.506510	-5.369263	6.774966	0.938892	-0.258451	0.227344	0.000090
43789	-3.628949	-5.908278	6.663172	0.937630	-0.262505	0.227888	-0.002690
43790	-3.148890	-5.471372	6.571034	0.936520	-0.265164	0.229327	-0.005218
43791	-3.150798	-5.013473	6.892943	0.935548	-0.266773	0.231374	-0.006878
43792	-2.609079	-5.592372	6.322887	0.934630	-0.267452	0.234253	-0.007905
43793	-2.979442	-5.893218	6.164417	0.933702	-0.266719	0.238710	-0.008863
43794	-3.842936	-4.970407	7.061813	0.932717	-0.264889	0.244500	-0.009627
43795	-4.959772	-4.645152	7.389257	0.931844	-0.262743	0.250068	-0.009951
43796	-5.298734	-4.683863	7.437007	0.931025	-0.260758	0.255141	-0.010055
43797	-4.911689	-5.068775	7.105315	0.930334	-0.258814	0.259603	-0.009994
43798	-4.929998	-4.695238	7.313517	0.929784	-0.256619	0.263736	-0.009617
43799	-4.892254	-4.876938	7.153694	0.929398	-0.254451	0.267191	-0.009087
43800	-5.369577	-4.808575	7.310109	0.929278	-0.252004	0.269945	-0.008114
43801	-5.018121	-4.920130	7.033484	0.929381	-0.249506	0.271941	-0.006852
43802	-5.018584	-4.862748	7.030276	0.929719	-0.246576	0.273488	-0.005273
43803	-4.844882	-4.748871	7.018024	0.930200	-0.243223	0.274879	-0.003396
43804	-4.949486	-4.439441	7.108836	0.930812	-0.239586	0.276018	-0.001194
43805	-4.673999	-4.563529	7.004667	0.931542	-0.235490	0.277077	0.001318
43806	-5.133685	-4.205965	7.309575	0.932336	-0.231005	0.278156	0.004014
43807	-5.380403	-4.093660	7.375602	0.933132	-0.226608	0.279051	0.006629
43808	-5.441242	-3.975697	7.415990	0.933868	-0.222611	0.279739	0.008956
43809	-5.299932	-4.099212	7.346747	0.934579	-0.218806	0.280291	0.011104
43810	-5.331591	-3.971469	7.426470	0.935271	-0.215202	0.280685	0.013141
43811	-5.312540	-4.067349	7.321802	0.935960	-0.211611	0.281014	0.015229
43812	-5.307832	-3.997730	7.247351	0.936751	-0.207805	0.281093	0.017364
43813	-5.379424	-3.860623	7.357030	0.937633	-0.203701	0.281017	0.019497
43814	-5.382106	-3.620727	7.495914	0.938530	-0.199620	0.280807	0.021444
43815	-5.569022	-3.267818	7.759160	0.939311	-0.196119	0.280542	0.023004
43816	-5.614819	-3.230180	7.686601	0.939984	-0.193301	0.280138	0.024230
43817	-5.474701	-3.255650	7.698696	0.940649	-0.190831	0.279513	0.025206
43818	-5.327556	-3.324883	7.587396	0.941311	-0.188593	0.278730	0.026000
43819	-5.296679	-3.306888	7.679665	0.941988	-0.186398	0.277856	0.026668
43820	-5.366638	-3.311381	7.593428	0.942673	-0.184273	0.276898	0.027182
43821	-5.282630	-3.352743	7.626147	0.943428	-0.182061	0.275741	0.027653
43822	-5.307810	-3.275245	7.691679	0.944182	-0.179943	0.274500	0.028126
43823	-5.241184	-3.161180	7.788649	0.944895	-0.178080	0.273214	0.028534
43824	-5.132560	-2.936461	8.019766	0.945466	-0.176623	0.272149	0.028867
43825	-5.208437	-2.904136	8.008813	0.945834	-0.175654	0.271458	0.029219
43826	-5.201512	-3.024248	7.890757	0.946094	-0.175057	0.270892	0.029631
43827	-5.159939	-3.307728	7.898098	0.946304	-0.174806	0.270269	0.030093
43828	-5.222652	-3.415007	7.936467	0.946395	-0.174933	0.269790	0.030789
43829	-5.299803	-3.088358	7.841551	0.946488	-0.175504	0.268992	0.031649
43830	-4.975657	-3.181490	7.865569	0.946574	-0.176047	0.268257	0.032316
43831	-4.872318	-3.304211	7.762750	0.946562	-0.176241	0.268106	0.032838
43832	-5.136304	-2.867510	7.735133	0.946459	-0.176313	0.268379	0.033200
43833	-5.125071	-3.075538	7.631922	0.946372	-0.176323	0.268656	0.033381
43834	-5.286720	-3.202788	7.823504	0.946208	-0.176697	0.268970	0.033506
43835	-5.021017	-3.657624	7.718171	0.946015	-0.177144	0.269350	0.033559
43836	-4.974949	-3.693887	7.960625	0.945751	-0.177447	0.270066	0.033655
43837	-4.768334	-3.283852	8.256582	0.945349	-0.177450	0.271467	0.033646
43838	-4.894172	-3.744120	8.061561	0.944832	-0.176578	0.273925	0.032829
43839	-4.904010	-2.972407	8.477129	0.944458	-0.173306	0.277600	0.030046
43840	-4.205230	-1.187677	9.563905	0.943979	-0.168930	0.282529	0.023330
43841	-2.749753	-0.540825	10.880812	0.943096	-0.164852	0.288582	0.010671
43842	-0.629166	-1.609918	11.372171	0.941925	-0.160240	0.295013	-0.008239
43843	-0.816672	0.273832	12.133839	0.940804	-0.154100	0.300243	-0.031557
43844	-2.573571	1.061239	11.194863	0.940263	-0.146081	0.302517	-0.055226
43845	-4.569275	0.773170	9.174134	0.940139	-0.135941	0.302788	-0.077317
43846	-5.701036	-1.082112	6.109292	0.939609	-0.124657	0.303285	-0.098053
43847	-6.912761	-2.348497	2.892278	0.937154	-0.114875	0.307509	-0.118255
43848	-11.706303	-1.640135	1.205273	0.930871	-0.108990	0.319883	-0.138835
43849	-13.793377	-14.498144	0.190418	0.923099	-0.109634	0.328598	-0.167010
43850	-6.467169	-5.119654	7.770322	0.917467	-0.105269	0.333565	-0.189492
43851	-3.809911	-8.674911	5.546950	0.914499	-0.103457	0.334119	-0.203354
43852	-2.751012	-7.711734	6.456158	0.915184	-0.103077	0.329542	-0.207885
43853	-4.871350	-7.393460	5.133322	0.919725	-0.101216	0.319463	-0.204463
43854	-4.191978	0.881631	11.184124	0.923842	-0.096435	0.309258	-0.203902
43855	-4.981841	-4.123937	7.846562	0.926123	-0.093433	0.302202	-0.205525
43856	-4.723316	-1.739217	9.411111	0.927905	-0.090270	0.296299	-0.207485
43857	-4.718368	-2.435046	9.016941	0.928663	-0.088706	0.293211	-0.209151
43858	-4.933697	-2.624045	8.439041	0.928911	-0.088493	0.291617	-0.210366
43859	-4.891051	-2.923931	7.995336	0.928957	-0.089187	0.290627	-0.211237
43860	-4.761728	-3.558003	7.922253	0.928899	-0.090447	0.289976	-0.211848
43861	-4.795708	-3.446495	8.049473	0.928802	-0.091800	0.289693	-0.212079
43862	-4.717232	-2.837273	8.550412	0.928466	-0.093700	0.290210	-0.212013
43863	-4.323163	-3.386980	8.679531	0.927620	-0.096212	0.292790	-0.211042
43864	-5.144693	-3.428645	7.781737	0.926730	-0.098762	0.296282	-0.208891
43865	-5.124361	-2.874718	7.965496	0.926143	-0.100865	0.298678	-0.207069
43866	-5.201870	-2.541662	7.986317	0.925413	-0.102798	0.301050	-0.205945
43867	-5.165615	-2.939711	7.815372	0.924615	-0.104500	0.303307	-0.205356
43868	-5.175286	-2.767864	7.933266	0.923851	-0.106005	0.305301	-0.205068
43869	-5.103245	-2.659099	8.084055	0.923048	-0.107904	0.307230	-0.204815
43870	-5.063539	-3.014387	7.929476	0.922007	-0.110339	0.309555	-0.204705
43871	-5.110804	-3.614247	7.564163	0.920885	-0.112815	0.312019	-0.204663
43872	-5.166373	-3.789586	7.416547	0.919874	-0.114844	0.314325	-0.204554
43873	-5.161565	-4.002173	7.280096	0.919054	-0.116287	0.316305	-0.204375
43874	-5.135581	-3.863790	7.308575	0.918542	-0.116954	0.317740	-0.204066
43875	-5.159264	-3.448066	7.501615	0.918134	-0.117275	0.318994	-0.203764
43876	-5.147784	-3.465981	7.579291	0.917677	-0.117496	0.320468	-0.203383
43877	-5.179786	-3.386830	7.794977	0.917184	-0.117599	0.322201	-0.202806
43878	-5.231820	-3.439742	7.685379	0.916511	-0.117773	0.324405	-0.202236
43879	-5.381254	-3.272917	7.579728	0.915699	-0.117924	0.326884	-0.201834
43880	-5.383243	-3.498954	7.464651	0.914817	-0.118086	0.329434	-0.201588
43881	-5.530167	-3.411618	7.340531	0.913981	-0.118238	0.331888	-0.201268
43882	-5.514994	-3.314211	7.473518	0.913092	-0.118405	0.334352	-0.201129
43883	-5.438779	-3.505737	7.484829	0.912098	-0.118455	0.337038	-0.201123
43884	-5.439309	-3.475677	7.502688	0.910970	-0.118169	0.340040	-0.201352
43885	-5.692543	-3.335789	7.257873	0.909751	-0.117413	0.343169	-0.201996
43886	-5.779943	-3.415082	7.164920	0.908557	-0.116056	0.346067	-0.203206
43887	-5.794940	-3.375380	7.285206	0.907318	-0.114158	0.348843	-0.205062
43888	-5.635301	-3.593625	7.527514	0.905901	-0.111984	0.352012	-0.207100
43889	-5.426871	-3.769780	7.824479	0.904187	-0.109437	0.356023	-0.209086
43890	-5.354260	-4.006907	7.749123	0.902140	-0.106189	0.360923	-0.211193
43891	-5.686593	-3.962349	7.157065	0.899904	-0.102098	0.366414	-0.213284
43892	-5.899286	-3.534817	7.132535	0.897656	-0.097499	0.372009	-0.215213
43893	-6.053663	-3.787642	6.962609	0.895350	-0.092229	0.377881	-0.216905
43894	-6.112232	-4.522858	6.714508	0.893437	-0.085120	0.383268	-0.218246
43895	-5.664545	-5.117553	7.152019	0.891902	-0.075341	0.388288	-0.219244
43896	-5.239374	-5.193214	8.326758	0.890047	-0.063020	0.394682	-0.219251
43897	-4.876469	-5.925181	9.268263	0.887005	-0.046813	0.404090	-0.218501
43898	-4.187398	-5.544601	11.129004	0.881414	-0.024299	0.418863	-0.216963
43899	-6.035332	-5.966359	9.862096	0.873708	0.004472	0.436898	-0.213856
43900	-9.770873	-6.415949	10.009513	0.864528	0.047453	0.451995	-0.214570
43901	-9.575240	-6.932681	7.313747	0.851477	0.099457	0.463434	-0.224330
43902	-8.361970	-4.354323	3.493527	0.831727	0.160306	0.470702	-0.246923
43903	-10.850487	-6.765290	5.821303	0.803438	0.211204	0.476497	-0.287803
43904	-7.040223	-19.811344	3.983484	0.760073	0.244140	0.485071	-0.356920
43905	-4.740267	-5.774619	9.363931	0.709859	0.270928	0.479919	-0.438607
43906	6.675391	14.011959	14.910214	0.670288	0.282769	0.468966	-0.500826
43907	5.861236	2.752141	13.550273	0.650572	0.283081	0.455134	-0.538028
43908	0.630994	-4.756555	12.804866	0.644082	0.285781	0.426603	-0.567008
43909	-1.601266	-5.700356	11.554688	0.640656	0.282641	0.393349	-0.595777
43910	-2.252421	-12.547827	6.872601	0.631038	0.274932	0.362245	-0.628476
43911	-4.549874	-14.393781	4.577063	0.609317	0.269785	0.332785	-0.667235
43912	-8.166013	-13.065642	4.893559	0.576398	0.264997	0.306734	-0.709547
43913	-11.930075	-14.037076	3.913427	0.533253	0.259379	0.281685	-0.754333
43914	-13.061717	-12.115193	2.059626	0.477838	0.255194	0.255772	-0.800704
43915	-12.750629	-9.792234	0.533447	0.410125	0.256489	0.230877	-0.844219
43916	-13.795760	-7.987469	1.653221	0.335960	0.264136	0.205597	-0.880394
43917	-17.865906	-5.578086	3.872387	0.264773	0.271951	0.180329	-0.907425
43918	-12.076668	-7.975519	-0.648802	0.200232	0.274817	0.161484	-0.926448
43919	-15.887467	-6.323364	-1.792343	0.139803	0.278502	0.155931	-0.937324
43920	-26.419415	-2.844295	-3.953581	0.092097	0.280491	0.162932	-0.941433
43921	-15.463954	-8.437298	-0.824400	0.068587	0.278079	0.178989	-0.941239
43922	-1.172511	-18.779663	4.605915	0.061838	0.269679	0.185191	-0.942950
43923	-3.877527	-8.564088	8.194052	0.059750	0.262822	0.183965	-0.945257
43924	-4.180118	-3.627769	9.663915	0.059882	0.258252	0.181188	-0.947043
43925	-4.845103	-1.129461	9.768199	0.060505	0.256755	0.181330	-0.947383
43926	-4.910645	-1.626539	8.971484	0.060201	0.257481	0.184610	-0.946572
43927	-4.841202	-3.293297	8.119462	0.060052	0.258587	0.189083	-0.945396
43928	-4.990170	-4.084418	7.512067	0.060075	0.259839	0.193245	-0.944209
43929	-5.129929	-3.864112	7.471344	0.060196	0.261026	0.196693	-0.943162
43930	-5.150902	-3.826608	7.451593	0.060419	0.261771	0.199295	-0.942394
43931	-5.149301	-3.420238	7.578193	0.060553	0.262249	0.201268	-0.941833
43932	-5.017608	-3.472713	7.606524	0.060399	0.262708	0.202768	-0.941393
43933	-5.128839	-3.110624	7.680404	0.060073	0.263027	0.203985	-0.941062
43934	-5.012430	-3.318170	7.854860	0.059744	0.263403	0.205294	-0.940693
43935	-4.948415	-3.499202	7.647685	0.059414	0.263883	0.206862	-0.940236
43936	-5.011986	-3.529501	7.591751	0.059160	0.264445	0.208254	-0.939787
43937	-4.897095	-3.932514	7.433568	0.059011	0.265124	0.209279	-0.939377
43938	-5.092285	-3.687897	7.573312	0.059071	0.265821	0.209816	-0.939057
43939	-5.093147	-3.559062	7.589349	0.059197	0.266605	0.210239	-0.938732
43940	-4.986286	-3.674395	7.572179	0.059371	0.267481	0.210478	-0.938418
43941	-5.084967	-3.472415	7.690368	0.059561	0.268575	0.210626	-0.938060
43942	-5.219287	-3.350359	7.711722	0.059680	0.269803	0.210841	-0.937652
43943	-5.120563	-3.391926	7.767660	0.059574	0.271379	0.211184	-0.937126
43944	-5.128946	-3.363641	7.764668	0.059364	0.273405	0.211656	-0.936444
43945	-5.268895	-3.503749	7.628415	0.059119	0.275854	0.212118	-0.935636
43946	-5.332482	-3.434965	7.641452	0.058718	0.278442	0.212225	-0.934871
43947	-5.424407	-3.172117	7.713688	0.058168	0.281169	0.212243	-0.934084
43948	-5.314084	-3.291679	7.827456	0.057299	0.284288	0.212049	-0.933238
43949	-5.391576	-3.424881	7.733090	0.055878	0.288042	0.211389	-0.932322
43950	-5.362002	-3.808468	7.668569	0.053555	0.292389	0.209755	-0.931474
43951	-5.418038	-4.111196	7.428183	0.050623	0.297176	0.206390	-0.930874
43952	-5.456972	-4.422129	7.437876	0.047257	0.302244	0.200943	-0.930611
43953	-5.176218	-5.277320	7.283008	0.044256	0.308056	0.193739	-0.930381
43954	-5.125934	-4.655747	7.556729	0.042955	0.314258	0.186191	-0.929909
43955	-5.025529	-5.082045	7.878706	0.043742	0.321459	0.178843	-0.928852
43956	-4.962569	-4.598042	8.468348	0.046443	0.330812	0.171124	-0.926889
43957	-5.040762	-3.603816	9.177542	0.050381	0.343081	0.163313	-0.923627
43958	-5.011398	-3.607777	9.709664	0.054592	0.359297	0.154570	-0.918713
43959	-4.828386	-4.908501	10.143795	0.059420	0.380979	0.143953	-0.911374
43960	-6.463999	-5.377404	8.288334	0.065007	0.404850	0.128383	-0.902989
43961	-9.317990	-6.066081	8.314349	0.068486	0.428817	0.101477	-0.895057
43962	-9.282421	-5.546824	7.024307	0.066046	0.452353	0.069270	-0.886689
43963	-8.260564	-5.460321	3.781098	0.055678	0.474603	0.030137	-0.877920
43964	-9.610051	-5.537549	5.087257	0.032181	0.493713	-0.007196	-0.869000
43965	-7.276236	-21.040689	0.691082	-0.022561	0.511706	-0.026298	-0.858462
43966	-7.980464	-12.588320	3.722284	-0.098193	0.522357	-0.046192	-0.845794
43967	-0.198234	3.811779	7.976953	-0.170466	0.522878	-0.062285	-0.832863
43968	1.141287	5.887385	10.000358	-0.221979	0.517707	-0.066069	-0.823614
43969	-0.986791	-1.885427	8.839057	-0.257378	0.503715	-0.069444	-0.821709
43970	-3.291323	-3.555683	8.780876	-0.286109	0.481667	-0.074818	-0.824949
43971	-4.016559	-6.910313	7.050160	-0.314949	0.456478	-0.077183	-0.828539
43972	-5.310246	-11.317635	4.475632	-0.348237	0.431022	-0.079988	-0.828585
43973	-8.434268	-13.725738	3.357656	-0.389049	0.406837	-0.084224	-0.822211
43974	-10.301014	-15.534500	1.580480	-0.439896	0.384897	-0.088571	-0.806536
43975	-11.445389	-15.675348	-0.375165	-0.501666	0.366315	-0.095705	-0.777808
43976	-12.632117	-13.418192	-0.753514	-0.571894	0.350699	-0.107781	-0.733711
43977	-14.462951	-10.270974	0.670480	-0.643717	0.336650	-0.122855	-0.676167
43978	-14.025616	-9.224537	0.980609	-0.710582	0.321298	-0.139384	-0.610257
43979	-13.442660	-8.298488	1.260027	-0.768044	0.303863	-0.157453	-0.541280
43980	-12.010440	-8.749692	1.482373	-0.815022	0.285523	-0.175520	-0.472660
43981	-9.472165	-7.858294	2.409132	-0.850812	0.268719	-0.191740	-0.408832
43982	-6.924711	-6.024375	4.061056	-0.875749	0.257182	-0.203521	-0.354261
43983	-10.410493	-6.482991	3.882446	-0.890459	0.255270	-0.210517	-0.312414
43984	-18.767687	1.225437	0.759834	-0.897153	0.251078	-0.217891	-0.290859
43985	-20.903921	-0.717803	-2.227253	-0.898971	0.251109	-0.220141	-0.283430
43986	-20.912437	-6.274706	-5.154004	-0.899321	0.252016	-0.220399	-0.281307
43987	-5.329838	-6.340497	4.867541	-0.901431	0.247516	-0.216147	-0.281848
43988	-6.083951	-2.265184	7.629124	-0.904078	0.241026	-0.211122	-0.282804
43989	-3.590212	-1.790414	10.624877	-0.905862	0.236541	-0.207541	-0.283528
43990	-4.518532	-0.945168	10.145586	-0.906249	0.235843	-0.207073	-0.283217
43991	-4.566883	-2.740680	8.241111	-0.906015	0.237135	-0.207810	-0.282347
43992	-5.417432	-5.488077	6.930914	-0.905901	0.238185	-0.207798	-0.281834
43993	-5.366584	-4.504700	7.310865	-0.906013	0.238333	-0.207115	-0.281852
43994	-5.241081	-3.803271	7.686723	-0.906147	0.238132	-0.206633	-0.281945
43995	-5.068448	-3.229528	7.832535	-0.906275	0.237855	-0.206251	-0.282049
43996	-5.011334	-2.635763	8.283704	-0.906298	0.237912	-0.205973	-0.282130
43997	-4.969261	-2.654240	8.096157	-0.906167	0.238532	-0.205853	-0.282116
43998	-5.058138	-3.306327	7.642717	-0.906065	0.239184	-0.205686	-0.282010
43999	-5.043999	-3.087209	7.750173	-0.906066	0.239555	-0.205372	-0.281922
44000	-5.044154	-3.029512	7.861537	-0.906101	0.239675	-0.205216	-0.281822
44001	-4.915724	-3.252278	7.862557	-0.906162	0.239510	-0.205216	-0.281767
44002	-5.107362	-3.391348	7.671276	-0.906245	0.239118	-0.205340	-0.281742
44003	-4.951758	-2.994937	7.969631	-0.906442	0.238579	-0.205238	-0.281638
44004	-4.963980	-2.779457	8.171180	-0.906540	0.238330	-0.205244	-0.281530
44005	-5.035986	-3.053092	8.071445	-0.906496	0.238554	-0.205296	-0.281445
44006	-5.097355	-3.307651	7.789535	-0.906437	0.238811	-0.205253	-0.281448
44007	-5.060317	-3.322966	7.691918	-0.906451	0.238817	-0.205045	-0.281547
44008	-4.997042	-3.132143	7.876774	-0.906542	0.238567	-0.204826	-0.281627
44009	-4.979266	-3.115099	7.807462	-0.906674	0.238192	-0.204607	-0.281678
44010	-4.925098	-3.039913	7.932026	-0.906820	0.237775	-0.204390	-0.281720
44011	-4.900874	-3.194557	7.913909	-0.906921	0.237372	-0.204337	-0.281772
44012	-4.949570	-3.148938	7.920890	-0.907020	0.236861	-0.204398	-0.281839
44013	-4.965647	-3.096129	7.917233	-0.907106	0.236365	-0.204521	-0.281889
44014	-4.935808	-3.109572	8.032129	-0.907157	0.235921	-0.204798	-0.281897
44015	-4.955237	-2.909067	8.156003	-0.907113	0.235748	-0.205272	-0.281838
44016	-4.983464	-3.016180	8.071944	-0.906967	0.235933	-0.205967	-0.281644
44017	-4.940047	-2.948413	8.064108	-0.906837	0.236188	-0.206989	-0.281100
44018	-4.866981	-3.189655	8.009141	-0.907060	0.235887	-0.208424	-0.279570
44019	-4.955123	-2.758079	8.119064	-0.908116	0.234379	-0.210658	-0.275709
44020	-4.950737	-2.370366	8.341990	-0.910561	0.231103	-0.214086	-0.267650
44021	-4.882254	-1.489362	8.683435	-0.914712	0.225827	-0.219130	-0.253546
44022	-4.225853	-0.692696	9.273533	-0.920266	0.218865	-0.225786	-0.232873
44023	-4.754208	-1.427953	8.612594	-0.925699	0.211766	-0.233325	-0.209277
44024	-4.959891	-2.003888	8.329949	-0.930308	0.205266	-0.240648	-0.185693
44025	-5.313359	-3.289586	7.404769	-0.934059	0.199168	-0.247172	-0.163620
44026	-5.566481	-3.949283	6.804184	-0.936977	0.193783	-0.252109	-0.144789
44027	-5.387080	-4.753467	6.576783	-0.939202	0.189439	-0.255062	-0.130213
44028	-5.360292	-5.054075	6.580807	-0.940775	0.186482	-0.255971	-0.121022
44029	-5.199115	-5.297683	6.750099	-0.941673	0.185293	-0.254860	-0.118173
44030	-4.807424	-3.682210	8.029799	-0.942587	0.183573	-0.252711	-0.118186
44031	-5.030157	-2.978224	8.169252	-0.943352	0.181969	-0.251077	-0.118043
44032	-4.937453	-2.027948	8.582142	-0.943853	0.180909	-0.250010	-0.117932
44033	-4.984060	-2.097580	8.382817	-0.943848	0.181089	-0.250027	-0.117659
44034	-5.125620	-2.655946	7.841972	-0.943676	0.181910	-0.250244	-0.117316
44035	-5.154080	-2.977513	7.718500	-0.943585	0.182719	-0.250172	-0.116944
44036	-5.018135	-3.239653	7.734445	-0.943652	0.183139	-0.249745	-0.116652
44037	-4.971542	-3.158515	7.918907	-0.943808	0.183158	-0.249227	-0.116472
44038	-4.965043	-2.940492	8.055194	-0.943944	0.183065	-0.248848	-0.116328
44039	-4.994116	-2.847595	8.021138	-0.944019	0.183059	-0.248631	-0.116193
44040	-5.078164	-2.808806	7.981653	-0.944051	0.183128	-0.248521	-0.116056
44041	-5.045366	-2.868284	7.960464	-0.944085	0.183255	-0.248370	-0.115904
44042	-5.076898	-2.778705	7.923855	-0.944120	0.183439	-0.248156	-0.115786
44043	-5.021644	-2.800217	7.915417	-0.944187	0.183638	-0.247817	-0.115648
44044	-4.979610	-2.970896	7.895857	-0.944304	0.183742	-0.247353	-0.115522
44045	-4.939901	-3.027142	7.989325	-0.944425	0.183767	-0.246927	-0.115405
44046	-4.904715	-2.905610	8.017094	-0.944502	0.183781	-0.246664	-0.115311
44047	-4.957094	-2.923749	7.956860	-0.944560	0.183777	-0.246487	-0.115223
44048	-4.977156	-2.908688	7.946775	-0.944613	0.183745	-0.246337	-0.115158
44049	-4.984203	-2.935275	7.969246	-0.944700	0.183625	-0.246122	-0.115101
44050	-4.964249	-2.874133	7.977246	-0.944759	0.183569	-0.245950	-0.115070
44051	-4.931069	-2.875404	7.990457	-0.944822	0.183498	-0.245771	-0.115048
44052	-4.971709	-2.844617	8.001648	-0.944873	0.183445	-0.245637	-0.115000
44053	-4.935958	-2.830675	8.026877	-0.944904	0.183442	-0.245549	-0.114937
44054	-4.974628	-2.840352	8.016313	-0.944898	0.183516	-0.245545	-0.114877
44055	-4.966889	-2.884312	7.981920	-0.944877	0.183655	-0.245569	-0.114778
44056	-4.978407	-2.932718	7.942410	-0.944887	0.183684	-0.245555	-0.114685
44057	-4.938162	-2.903773	8.012228	-0.944914	0.183685	-0.245497	-0.114582
44058	-4.944673	-2.915965	8.045174	-0.944902	0.183733	-0.245549	-0.114487
44059	-4.952167	-2.897315	8.004352	-0.944845	0.183872	-0.245706	-0.114400
44060	-4.965476	-2.927140	8.021748	-0.944773	0.184059	-0.245879	-0.114324
44061	-4.972583	-2.894441	7.959744	-0.944690	0.184304	-0.246021	-0.114307
44062	-4.970291	-2.920290	7.916897	-0.944616	0.184518	-0.246146	-0.114308
44063	-4.982655	-2.860523	7.974172	-0.944562	0.184691	-0.246231	-0.114289
44064	-4.979695	-2.936730	7.977946	-0.944505	0.184864	-0.246334	-0.114262
44065	-4.953873	-2.940874	7.954132	-0.944446	0.185007	-0.246458	-0.114249
44066	-4.963229	-2.938009	7.932820	-0.944403	0.185102	-0.246554	-0.114244
44067	-5.001458	-2.877754	7.966167	-0.944357	0.185216	-0.246654	-0.114226
44068	-5.005583	-2.894782	7.983905	-0.944305	0.185365	-0.246747	-0.114214
44069	-4.997712	-2.922985	7.928608	-0.944252	0.185524	-0.246830	-0.114214
44070	-4.994490	-2.892959	7.920008	-0.944213	0.185672	-0.246872	-0.114205
44071	-5.001020	-2.925754	7.925500	-0.944190	0.185772	-0.246882	-0.114213
44072	-4.998127	-2.926917	7.989933	-0.944166	0.185885	-0.246887	-0.114211
44073	-4.970080	-2.895117	7.974096	-0.944138	0.185986	-0.246926	-0.114192
44074	-5.013623	-2.920971	7.949318	-0.944127	0.186056	-0.246928	-0.114167
44075	-5.006063	-2.909418	7.948265	-0.944114	0.186147	-0.246910	-0.114166
44076	-4.970183	-2.951456	7.971569	-0.944099	0.186206	-0.246919	-0.114170
44077	-4.985346	-2.924502	7.958820	-0.944089	0.186250	-0.246930	-0.114165
44078	-4.986495	-2.923950	7.958304	-0.944079	0.186256	-0.246966	-0.114158
44079	-4.986248	-2.907294	7.937990	-0.944065	0.186277	-0.247010	-0.114142
44080	-5.000659	-2.950089	7.944895	-0.944075	0.186251	-0.247001	-0.114119
44081	-5.020041	-2.918059	7.946337	-0.944087	0.186201	-0.247001	-0.114103
44082	-4.975478	-2.910637	7.976623	-0.944092	0.186158	-0.247027	-0.114075
44083	-5.005901	-2.925613	7.939001	-0.944103	0.186105	-0.247032	-0.114063
44084	-4.991774	-2.915523	7.958086	-0.944113	0.186064	-0.247028	-0.114050
44085	-4.994273	-2.913843	7.925587	-0.944124	0.186024	-0.247029	-0.114027
44086	-4.985498	-2.935505	7.951314	-0.944132	0.185979	-0.247047	-0.113990
44087	-4.998622	-2.907218	7.971819	-0.944138	0.185950	-0.247056	-0.113972
44088	-4.990277	-2.913110	7.944919	-0.944139	0.185922	-0.247085	-0.113945
44089	-5.004027	-2.920209	7.958716	-0.944148	0.185890	-0.247087	-0.113916
44090	-4.991669	-2.910189	7.945115	-0.944164	0.185838	-0.247073	-0.113899
44091	-4.996688	-2.904984	7.958856	-0.944178	0.185805	-0.247056	-0.113879
44092	-4.974824	-2.918412	7.970812	-0.944184	0.185779	-0.247060	-0.113857
44093	-4.996886	-2.921829	7.932638	-0.944189	0.185759	-0.247070	-0.113833
44094	-4.983092	-2.912004	7.951412	-0.944189	0.185724	-0.247092	-0.113841
44095	-4.964791	-2.905962	7.956649	-0.944185	0.185721	-0.247119	-0.113817
44096	-4.959500	-2.908344	7.975668	-0.944184	0.185681	-0.247158	-0.113811
44097	-4.981881	-2.892453	7.995816	-0.944153	0.185714	-0.247249	-0.113814
44098	-4.994583	-2.903852	7.962167	-0.944114	0.185751	-0.247365	-0.113819
44099	-4.988104	-2.926521	7.986162	-0.944068	0.185804	-0.247498	-0.113826
44100	-4.968759	-2.905901	8.002376	-0.944001	0.185900	-0.247682	-0.113833
44101	-4.999053	-2.907122	7.974759	-0.943920	0.186011	-0.247894	-0.113854
44102	-4.994701	-2.914893	7.944673	-0.943826	0.186145	-0.248149	-0.113866
44103	-5.013556	-2.869307	7.987802	-0.943729	0.186286	-0.248404	-0.113884
44104	-5.020663	-2.925053	7.918007	-0.943609	0.186481	-0.248712	-0.113884
44105	-5.032283	-2.887399	7.901127	-0.943512	0.186638	-0.248962	-0.113879
44106	-5.032455	-2.892365	7.884151	-0.943425	0.186808	-0.249170	-0.113869
44107	-5.025227	-2.900807	7.887224	-0.943366	0.186916	-0.249311	-0.113870
44108	-5.045226	-2.871059	7.918890	-0.943321	0.187025	-0.249407	-0.113852
44109	-5.055916	-2.903155	7.858669	-0.943298	0.187106	-0.249447	-0.113825
44110	-5.034024	-2.917652	7.870459	-0.943329	0.187066	-0.249372	-0.113799
44111	-5.015303	-2.946521	7.838315	-0.943402	0.186962	-0.249189	-0.113769
44112	-4.978572	-2.982040	7.911807	-0.943513	0.186773	-0.248911	-0.113761
44113	-4.976923	-2.940246	7.968154	-0.943607	0.186634	-0.248656	-0.113774
44114	-4.997665	-2.939235	7.978845	-0.943674	0.186566	-0.248444	-0.113787
44115	-5.031588	-2.877392	8.015146	-0.943691	0.186599	-0.248346	-0.113811
44116	-5.028347	-2.897699	8.021427	-0.943675	0.186737	-0.248297	-0.113823
44117	-5.021169	-2.907109	7.960858	-0.943640	0.186928	-0.248289	-0.113815
44118	-4.990423	-2.931897	7.944399	-0.943597	0.187133	-0.248290	-0.113831
44119	-5.018996	-2.951145	7.937757	-0.943566	0.187305	-0.248272	-0.113845
44120	-5.032051	-2.945231	7.898395	-0.943567	0.187398	-0.248196	-0.113852
44121	-5.035583	-2.926267	7.859808	-0.943597	0.187442	-0.248036	-0.113879
44122	-5.029577	-2.855545	7.907851	-0.943685	0.187380	-0.247755	-0.113865
44123	-4.981915	-2.971258	7.973618	-0.943768	0.187374	-0.247457	-0.113832
44124	-5.088312	-3.006723	7.850857	-0.943841	0.187376	-0.247191	-0.113798
44125	-4.932485	-3.048903	8.094228	-0.943920	0.187368	-0.246912	-0.113770
44126	-4.847931	-2.571923	8.280172	-0.943782	0.187828	-0.247096	-0.113754
44127	-4.946970	-2.881714	8.001697	-0.943553	0.188615	-0.247375	-0.113745
44128	-5.051201	-2.992032	7.872316	-0.943292	0.189487	-0.247724	-0.113700
44129	-5.039655	-3.050961	7.914226	-0.943079	0.190177	-0.248015	-0.113676
44130	-5.034517	-3.050798	7.860535	-0.942921	0.190638	-0.248267	-0.113667
44131	-5.051156	-2.870418	7.929169	-0.942781	0.191063	-0.248481	-0.113647
44132	-5.038422	-2.907440	7.889898	-0.942652	0.191535	-0.248636	-0.113584
44133	-5.012256	-2.988324	7.882718	-0.942539	0.192026	-0.248714	-0.113526
44134	-5.044802	-2.994048	7.866614	-0.942434	0.192559	-0.248728	-0.113462
44135	-5.064683	-3.096829	7.816659	-0.942361	0.193037	-0.248659	-0.113410
44136	-5.079067	-3.057820	7.828987	-0.942344	0.193376	-0.248482	-0.113355
44137	-5.069819	-3.066857	7.848169	-0.942377	0.193590	-0.248210	-0.113320
44138	-5.045893	-3.065187	7.855598	-0.942458	0.193668	-0.247851	-0.113291
44139	-4.998424	-3.095175	7.817223	-0.942585	0.193638	-0.247416	-0.113241
44140	-4.972938	-3.052107	7.913433	-0.942736	0.193494	-0.246973	-0.113197
44141	-4.967132	-3.030920	7.945238	-0.942889	0.193312	-0.246544	-0.113170
44142	-4.986823	-2.975175	7.959052	-0.943033	0.193161	-0.246125	-0.113134
44143	-4.940966	-3.034893	7.993540	-0.943159	0.193045	-0.245751	-0.113101
44144	-4.954961	-3.127205	7.951399	-0.943264	0.192904	-0.245456	-0.113108
44145	-4.954225	-3.103920	7.949027	-0.943365	0.192639	-0.245244	-0.113171
44146	-4.965365	-3.036046	7.947734	-0.943460	0.192324	-0.245087	-0.113257
44147	-4.985589	-3.014368	7.939973	-0.943570	0.191948	-0.244920	-0.113342
44148	-4.991362	-3.019123	7.944631	-0.943684	0.191569	-0.244733	-0.113435
44149	-4.930428	-2.997159	7.965850	-0.943811	0.191135	-0.244537	-0.113534
44150	-4.889598	-2.941582	8.066974	-0.943917	0.190745	-0.244397	-0.113611
44151	-4.901555	-2.997744	8.050237	-0.943954	0.190482	-0.244408	-0.113717
44152	-5.001277	-3.018002	7.912450	-0.943967	0.190240	-0.244493	-0.113832
44153	-5.003659	-2.991604	7.940783	-0.944043	0.189836	-0.244471	-0.113926
44154	-4.911793	-2.991153	7.978156	-0.944135	0.189388	-0.244417	-0.114024
44155	-4.916063	-2.959621	8.053697	-0.944194	0.188987	-0.244453	-0.114126
44156	-4.931028	-2.925231	8.075333	-0.944183	0.188723	-0.244647	-0.114240
44157	-4.984121	-2.959847	8.004692	-0.944126	0.188552	-0.244940	-0.114358
44158	-5.032795	-2.982178	7.868066	-0.944106	0.188301	-0.245155	-0.114478
44159	-4.988811	-2.972138	7.821043	-0.944193	0.187834	-0.245129	-0.114581
44160	-4.965028	-2.902530	7.929459	-0.944341	0.187216	-0.244992	-0.114667
44161	-4.947052	-2.863179	8.013052	-0.944498	0.186598	-0.244827	-0.114739
44162	-4.904097	-2.842825	8.061964	-0.944630	0.186043	-0.244712	-0.114795
44163	-4.921534	-2.857300	8.034263	-0.944722	0.185597	-0.244678	-0.114831
44164	-4.915759	-2.907226	8.023339	-0.944769	0.185200	-0.244767	-0.114894
44165	-4.976899	-2.877329	7.982803	-0.944832	0.184772	-0.244825	-0.114942
44166	-4.914897	-2.928711	8.008109	-0.944908	0.184316	-0.244858	-0.114986
44167	-4.941373	-2.955098	8.012306	-0.944977	0.183800	-0.244968	-0.115009
44168	-4.931969	-2.986335	8.047123	-0.945037	0.183208	-0.245134	-0.115101
44169	-4.965984	-2.865305	8.023912	-0.945071	0.182615	-0.245402	-0.115199
44170	-4.954694	-2.703620	8.036046	-0.945081	0.182088	-0.245692	-0.115328
44171	-4.911132	-2.781160	8.014641	-0.945084	0.181619	-0.245996	-0.115397
44172	-4.898061	-2.906630	8.060635	-0.945072	0.181133	-0.246363	-0.115480
44173	-5.040241	-2.806505	7.955271	-0.945058	0.180603	-0.246775	-0.115547
44174	-5.047637	-2.704508	7.960824	-0.945083	0.180023	-0.247112	-0.115522
44175	-5.065273	-2.706022	7.864755	-0.945168	0.179422	-0.247250	-0.115469
44176	-4.989917	-2.761719	7.931073	-0.945323	0.178753	-0.247165	-0.115417
44177	-5.002605	-2.718321	8.002441	-0.945490	0.178115	-0.247010	-0.115373
44178	-4.993528	-2.655820	8.058916	-0.945625	0.177575	-0.246875	-0.115380
44179	-5.011617	-2.561280	8.062738	-0.945736	0.177144	-0.246761	-0.115378
44180	-5.016892	-2.586597	8.040966	-0.945845	0.176835	-0.246597	-0.115308
44181	-5.001989	-2.609879	8.024270	-0.945944	0.176649	-0.246391	-0.115224
44182	-5.004803	-2.674360	8.029081	-0.946058	0.176503	-0.246113	-0.115106
44183	-4.956329	-2.772494	8.077656	-0.946154	0.176392	-0.245851	-0.115049
44184	-4.914917	-2.796522	8.085455	-0.946237	0.176229	-0.245651	-0.115038
44185	-4.916634	-2.754317	8.106660	-0.946281	0.176103	-0.245557	-0.115072
44186	-4.942633	-2.662710	8.087978	-0.946315	0.175990	-0.245489	-0.115111
44187	-4.991890	-2.592680	8.050999	-0.946342	0.175959	-0.245398	-0.115129
44188	-4.982534	-2.636116	8.019333	-0.946374	0.176005	-0.245262	-0.115092
44189	-4.998039	-2.696953	8.015944	-0.946425	0.176081	-0.245052	-0.114999
44190	-4.985797	-2.576824	8.079843	-0.946485	0.176218	-0.244782	-0.114867
44191	-4.947234	-2.608745	8.020638	-0.946546	0.176447	-0.244464	-0.114690
44192	-4.960553	-2.724181	8.064608	-0.946617	0.176707	-0.244092	-0.114497
44193	-4.934472	-2.746046	8.045352	-0.946682	0.176986	-0.243729	-0.114308
44194	-4.926041	-2.716503	8.085054	-0.946737	0.177265	-0.243382	-0.114154
44195	-4.909623	-2.730281	8.092134	-0.946793	0.177548	-0.243035	-0.113993
44196	-4.830610	-2.858907	8.090812	-0.946845	0.177762	-0.242741	-0.113854
44197	-4.911851	-2.787740	8.056555	-0.946906	0.177846	-0.242473	-0.113781
44198	-4.850872	-2.825892	8.120546	-0.946946	0.177919	-0.242289	-0.113730
44199	-4.849125	-2.757202	8.100270	-0.946971	0.177991	-0.242159	-0.113682
44200	-4.871405	-2.779305	8.082454	-0.946978	0.178077	-0.242081	-0.113655
44201	-4.875732	-2.776446	8.095564	-0.946983	0.178139	-0.242032	-0.113625
44202	-4.897372	-2.782664	8.057177	-0.946983	0.178212	-0.241999	-0.113581
44203	-4.891939	-2.752025	8.049438	-0.946995	0.178243	-0.241941	-0.113551
44204	-4.865297	-2.821019	8.095140	-0.947017	0.178241	-0.241867	-0.113534
44205	-4.866954	-2.765903	8.094608	-0.947034	0.178233	-0.241815	-0.113514
44206	-4.884820	-2.755028	8.069238	-0.947039	0.178262	-0.241782	-0.113494
44207	-4.880473	-2.758873	8.055798	-0.947049	0.178264	-0.241745	-0.113492
44208	-4.877780	-2.778002	8.062519	-0.947059	0.178278	-0.241701	-0.113480
44209	-4.879684	-2.793086	8.082598	-0.947070	0.178266	-0.241666	-0.113474
44210	-4.892001	-2.765276	8.102531	-0.947079	0.178255	-0.241641	-0.113470
44211	-4.881451	-2.757568	8.055652	-0.947085	0.178274	-0.241605	-0.113470
44212	-4.884408	-2.753222	8.101378	-0.947082	0.178320	-0.241585	-0.113464
44213	-4.878968	-2.742188	8.067300	-0.947071	0.178374	-0.241593	-0.113456
44214	-4.882781	-2.793574	8.080559	-0.947057	0.178430	-0.241614	-0.113441
44215	-4.894250	-2.751484	8.079498	-0.947037	0.178499	-0.241634	-0.113450
44216	-4.886382	-2.760205	8.051759	-0.947016	0.178585	-0.241657	-0.113445
44217	-4.902782	-2.749745	8.058398	-0.947021	0.178642	-0.241610	-0.113415
44218	-4.879547	-2.785234	8.044203	-0.947026	0.178714	-0.241540	-0.113406
44219	-4.885669	-2.797407	8.077487	-0.947034	0.178751	-0.241487	-0.113396
44220	-4.881689	-2.781970	8.090076	-0.947044	0.178791	-0.241424	-0.113384
44221	-4.878818	-2.746850	8.128398	-0.947041	0.178867	-0.241383	-0.113382
44222	-4.873779	-2.771794	8.088485	-0.947035	0.178950	-0.241352	-0.113365
44223	-4.874906	-2.808105	8.082096	-0.947038	0.179002	-0.241303	-0.113362
44224	-4.874159	-2.773494	8.087673	-0.947038	0.179060	-0.241269	-0.113338
44225	-4.879378	-2.770780	8.100211	-0.947018	0.179174	-0.241273	-0.113318
44226	-4.867466	-2.764141	8.085075	-0.946996	0.179272	-0.241284	-0.113320
44227	-4.861251	-2.788844	8.077236	-0.946970	0.179377	-0.241310	-0.113322
44228	-4.885726	-2.811003	8.057979	-0.946947	0.179482	-0.241326	-0.113311
44229	-4.863823	-2.791781	8.074673	-0.946918	0.179591	-0.241358	-0.113315
44230	-4.868786	-2.809001	8.060834	-0.946901	0.179682	-0.241364	-0.113298
44231	-4.865122	-2.814047	8.046540	-0.946887	0.179763	-0.241357	-0.113305
44232	-4.882532	-2.784011	8.079005	-0.946871	0.179863	-0.241345	-0.113304
44233	-4.870682	-2.777210	8.063889	-0.946850	0.179956	-0.241367	-0.113282
44234	-4.871219	-2.798383	8.036575	-0.946828	0.180055	-0.241381	-0.113278
44235	-4.881852	-2.791866	8.061932	-0.946805	0.180156	-0.241404	-0.113263
44236	-4.864632	-2.823806	8.060019	-0.946782	0.180253	-0.241422	-0.113262
44237	-4.862217	-2.808739	8.071605	-0.946769	0.180311	-0.241439	-0.113242
44238	-4.872919	-2.801551	8.097170	-0.946747	0.180377	-0.241475	-0.113245
44239	-4.898675	-2.787808	8.051328	-0.946726	0.180430	-0.241508	-0.113260
44240	-4.881531	-2.818834	8.049686	-0.946714	0.180469	-0.241528	-0.113257
44241	-4.879108	-2.803161	8.061498	-0.946705	0.180513	-0.241536	-0.113246
44242	-4.891415	-2.796068	8.054676	-0.946693	0.180547	-0.241557	-0.113247
44243	-4.857537	-2.802820	8.051866	-0.946680	0.180575	-0.241588	-0.113247
44244	-4.875855	-2.826773	8.052194	-0.946662	0.180589	-0.241649	-0.113247
44245	-4.908120	-2.823523	8.039972	-0.946653	0.180582	-0.241686	-0.113252
44246	-4.883641	-2.821663	8.064036	-0.946643	0.180586	-0.241719	-0.113259
44247	-4.872775	-2.793068	8.075593	-0.946643	0.180565	-0.241730	-0.113267
44248	-4.893649	-2.797029	8.069596	-0.946626	0.180562	-0.241789	-0.113288
44249	-4.905401	-2.808623	8.036908	-0.946626	0.180542	-0.241798	-0.113299
44250	-4.900148	-2.811331	8.055777	-0.946617	0.180547	-0.241830	-0.113304
44251	-4.897592	-2.794832	8.067964	-0.946614	0.180544	-0.241842	-0.113307
44252	-4.902222	-2.810341	8.054861	-0.946608	0.180566	-0.241847	-0.113307
44253	-4.891964	-2.817238	8.060538	-0.946612	0.180558	-0.241839	-0.113308
44254	-4.873477	-2.811614	8.065685	-0.946613	0.180513	-0.241859	-0.113325
44255	-4.893327	-2.779900	8.065857	-0.946605	0.180498	-0.241901	-0.113329
44256	-4.893595	-2.799043	8.039358	-0.946606	0.180488	-0.241906	-0.113324
44257	-4.876956	-2.809201	8.064423	-0.946606	0.180479	-0.241907	-0.113339
44258	-4.884466	-2.805054	8.044667	-0.946601	0.180480	-0.241917	-0.113360
44259	-4.911434	-2.805523	8.019510	-0.946600	0.180460	-0.241933	-0.113362
44260	-4.884716	-2.803151	8.076603	-0.946601	0.180448	-0.241939	-0.113362
44261	-4.891960	-2.798735	8.057096	-0.946613	0.180402	-0.241923	-0.113369
44262	-4.886169	-2.801159	8.076415	-0.946621	0.180375	-0.241915	-0.113363
44263	-4.888938	-2.800615	8.043498	-0.946622	0.180343	-0.241927	-0.113380
