// Start Time: Unknown
// Update Rate: 60.0Hz
// Filter Profile: human (46.1)
// Option Flags: AHS Disabled ICC Disabled 
// Firmware Version: 4.3.5
PacketCounter	Acc_X	Acc_Y	Acc_Z	Quat_q0	Quat_q1	Quat_q2	Quat_q3
43442	-9.674923	-1.265351	-0.198898	-0.698701	0.067801	-0.711726	0.025812
43443	-9.705899	-1.325950	-0.206012	-0.698724	0.067749	-0.711701	0.025997
43444	-9.684981	-1.302714	-0.199628	-0.698755	0.067621	-0.711673	0.026261
43445	-9.689001	-1.204514	-0.164540	-0.698764	0.067618	-0.711659	0.026420
43446	-9.713177	-1.283095	-0.231693	-0.698748	0.067773	-0.711659	0.026455
43447	-9.687814	-1.316115	-0.263434	-0.698757	0.067868	-0.711638	0.026534
43448	-9.704259	-1.282549	-0.243666	-0.698738	0.067864	-0.711651	0.026692
43449	-9.669575	-1.304930	-0.168571	-0.698748	0.067919	-0.711631	0.026820
43450	-9.691909	-1.317699	-0.189963	-0.698731	0.068020	-0.711636	0.026888
43451	-9.697190	-1.357616	-0.266616	-0.698733	0.068136	-0.711621	0.026934
43452	-9.701123	-1.339366	-0.262486	-0.698738	0.068141	-0.711610	0.027073
43453	-9.698581	-1.302924	-0.284279	-0.698772	0.068178	-0.711569	0.027169
43454	-9.684575	-1.305738	-0.216085	-0.698826	0.068194	-0.711509	0.027302
43455	-9.666048	-1.320336	-0.187425	-0.698851	0.068243	-0.711478	0.027374
43456	-9.699590	-1.382313	-0.139725	-0.698889	0.068328	-0.711432	0.027392
43457	-9.686825	-1.354928	-0.157493	-0.698895	0.068323	-0.711422	0.027506
43458	-9.678235	-1.307703	-0.171356	-0.698889	0.068365	-0.711422	0.027554
43459	-9.698823	-1.332998	-0.177813	-0.698872	0.068373	-0.711436	0.027608
43460	-9.676150	-1.322634	-0.157668	-0.698845	0.068371	-0.711459	0.027696
43461	-9.700890	-1.328219	-0.160315	-0.698802	0.068330	-0.711500	0.027821
43462	-9.677895	-1.353828	-0.173530	-0.698741	0.068343	-0.711557	0.027879
43463	-9.677445	-1.346229	-0.210558	-0.698675	0.068271	-0.711624	0.027999
43464	-9.676986	-1.338545	-0.247789	-0.698593	0.068225	-0.711705	0.028103
43465	-9.697997	-1.371067	-0.220844	-0.698517	0.068208	-0.711780	0.028124
43466	-9.691488	-1.352519	-0.249382	-0.698459	0.068138	-0.711841	0.028189
43467	-9.689568	-1.322004	-0.238290	-0.698403	0.068147	-0.711895	0.028198
43468	-9.677750	-1.308995	-0.188034	-0.698357	0.068191	-0.711936	0.028171
43469	-9.690013	-1.329070	-0.206723	-0.698316	0.068272	-0.711972	0.028092
43470	-9.675524	-1.358181	-0.208794	-0.698261	0.068271	-0.712025	0.028121
43471	-9.680091	-1.301966	-0.174029	-0.698172	0.068270	-0.712112	0.028125
43472	-9.685766	-1.303975	-0.220019	-0.698108	0.068332	-0.712170	0.028106
43473	-9.664751	-1.358965	-0.246558	-0.698051	0.068337	-0.712224	0.028124
43474	-9.679543	-1.249441	-0.218316	-0.697975	0.068447	-0.712291	0.028055
43475	-9.702648	-1.355645	-0.202320	-0.697893	0.068584	-0.712364	0.027930
43476	-9.696950	-1.308969	-0.164093	-0.697802	0.068716	-0.712445	0.027811
43477	-9.710605	-1.351126	-0.231987	-0.697717	0.068895	-0.712516	0.027646
43478	-9.695463	-1.284479	-0.274776	-0.697632	0.069120	-0.712586	0.027453
43479	-9.696821	-1.306419	-0.325339	-0.697570	0.069390	-0.712629	0.027227
43480	-9.722119	-1.319105	-0.294272	-0.697497	0.069629	-0.712685	0.027016
43481	-9.686162	-1.439197	-0.353741	-0.697472	0.069723	-0.712702	0.026968
43482	-9.674196	-1.295272	-0.309332	-0.697450	0.069683	-0.712723	0.027071
43483	-9.709115	-1.203274	-0.319839	-0.697464	0.069866	-0.712696	0.026974
43484	-9.696485	-1.263127	-0.333088	-0.697500	0.070290	-0.712631	0.026630
43485	-9.705999	-1.413445	-0.397609	-0.697567	0.070608	-0.712544	0.026391
43486	-9.741609	-1.417416	-0.366763	-0.697644	0.070741	-0.712457	0.026355
43487	-9.695097	-1.330810	-0.276087	-0.697770	0.070748	-0.712329	0.026429
43488	-9.676232	-1.293317	-0.282467	-0.697882	0.070867	-0.712206	0.026462
43489	-9.678528	-1.376755	-0.255635	-0.697998	0.070982	-0.712081	0.026479
43490	-9.684544	-1.388171	-0.261031	-0.698137	0.071020	-0.711938	0.026544
43491	-9.701688	-1.318329	-0.204851	-0.698250	0.071095	-0.711818	0.026600
43492	-9.662210	-1.344079	-0.201221	-0.698348	0.071226	-0.711709	0.026602
43493	-9.689183	-1.300835	-0.182456	-0.698464	0.071336	-0.711582	0.026647
43494	-9.704657	-1.374628	-0.258115	-0.698561	0.071481	-0.711473	0.026626
43495	-9.683121	-1.378916	-0.317334	-0.698673	0.071513	-0.711356	0.026712
43496	-9.738818	-1.400460	-0.325561	-0.698812	0.071524	-0.711214	0.026840
43497	-9.734578	-1.377577	-0.328224	-0.698982	0.071493	-0.711046	0.026957
43498	-9.693675	-1.380972	-0.274371	-0.699195	0.071473	-0.710835	0.027061
43499	-9.646978	-1.338202	-0.178692	-0.699399	0.071445	-0.710633	0.027162
43500	-9.703407	-1.375166	-0.114999	-0.699585	0.071487	-0.710444	0.027203
43501	-9.678764	-1.422962	-0.072298	-0.699730	0.071455	-0.710300	0.027331
43502	-9.636094	-1.272687	0.021090	-0.699825	0.071356	-0.710208	0.027538
43503	-9.621130	-1.251430	-0.015149	-0.699853	0.071420	-0.710170	0.027630
43504	-9.694159	-1.367716	-0.152151	-0.699866	0.071450	-0.710148	0.027772
43505	-9.743532	-1.423359	-0.152698	-0.699852	0.071317	-0.710164	0.028062
43506	-9.721126	-1.290775	-0.103759	-0.699832	0.071153	-0.710187	0.028417
43507	-9.666901	-1.302905	-0.106627	-0.699776	0.071121	-0.710235	0.028667
43508	-9.643571	-1.330540	-0.120219	-0.699688	0.071134	-0.710311	0.028898
43509	-9.680762	-1.235408	-0.113168	-0.699580	0.071278	-0.710397	0.029042
43510	-9.667623	-1.254555	-0.132035	-0.699465	0.071612	-0.710477	0.029048
43511	-9.670701	-1.318725	-0.161977	-0.699309	0.072045	-0.710589	0.028981
43512	-9.684459	-1.337954	-0.163928	-0.699153	0.072466	-0.710699	0.028981
43513	-9.631587	-1.382354	-0.183428	-0.698994	0.072880	-0.710815	0.028942
43514	-9.706693	-1.519822	-0.201258	-0.698829	0.073264	-0.710938	0.028945
43515	-9.685198	-1.543106	-0.198143	-0.698660	0.073584	-0.711070	0.028960
43516	-9.655853	-1.473566	-0.210568	-0.698484	0.073877	-0.711213	0.028955
43517	-9.652406	-1.422250	-0.307404	-0.698319	0.074267	-0.711339	0.028819
43518	-9.702209	-1.492367	-0.395725	-0.698190	0.074598	-0.711437	0.028690
43519	-9.713234	-1.550218	-0.448851	-0.698125	0.074776	-0.711483	0.028665
43520	-9.739725	-1.542853	-0.466558	-0.698133	0.074762	-0.711471	0.028826
43521	-9.696235	-1.500412	-0.473226	-0.698205	0.074640	-0.711403	0.029070
43522	-9.709682	-1.502755	-0.384706	-0.698349	0.074431	-0.711269	0.029405
43523	-9.672531	-1.428695	-0.246099	-0.698511	0.074237	-0.711119	0.029673
43524	-9.684331	-1.400019	-0.143376	-0.698654	0.074117	-0.710985	0.029844
43525	-9.638788	-1.414129	-0.130230	-0.698793	0.074189	-0.710842	0.029809
43526	-9.668400	-1.501226	-0.202592	-0.698920	0.074247	-0.710711	0.029800
43527	-9.663673	-1.419259	-0.125761	-0.699018	0.074215	-0.710616	0.029855
43528	-9.674716	-1.373798	-0.095143	-0.699077	0.074281	-0.710552	0.029822
43529	-9.663084	-1.455165	-0.155552	-0.699120	0.074309	-0.710505	0.029858
43530	-9.684094	-1.392673	-0.164951	-0.699155	0.074232	-0.710473	0.029999
43531	-9.673333	-1.394602	-0.195190	-0.699182	0.074195	-0.710446	0.030110
43532	-9.659164	-1.388532	-0.162322	-0.699211	0.074265	-0.710409	0.030117
43533	-9.684993	-1.460018	-0.209394	-0.699223	0.074453	-0.710383	0.030011
43534	-9.674240	-1.461816	-0.240243	-0.699252	0.074602	-0.710343	0.029911
43535	-9.669885	-1.429736	-0.281349	-0.699292	0.074716	-0.710294	0.029838
43536	-9.686349	-1.482488	-0.255756	-0.699364	0.074815	-0.710216	0.029779
43537	-9.696212	-1.508603	-0.290703	-0.699466	0.074758	-0.710119	0.029838
43538	-9.691195	-1.366364	-0.285877	-0.699586	0.074742	-0.710001	0.029861
43539	-9.684356	-1.435814	-0.304623	-0.699743	0.074921	-0.709832	0.029735
43540	-9.737566	-1.506078	-0.329171	-0.699946	0.075093	-0.709621	0.029589
43541	-9.698784	-1.494263	-0.290038	-0.700184	0.075137	-0.709382	0.029556
43542	-9.675540	-1.373458	-0.218909	-0.700434	0.075182	-0.709132	0.029520
43543	-9.669324	-1.406958	-0.201720	-0.700695	0.075296	-0.708867	0.029420
43544	-9.656834	-1.482449	-0.138955	-0.700945	0.075435	-0.708609	0.029314
43545	-9.682488	-1.467993	-0.031369	-0.701173	0.075459	-0.708381	0.029289
43546	-9.683382	-1.396430	0.039473	-0.701338	0.075384	-0.708221	0.029412
43547	-9.628099	-1.348846	0.122056	-0.701459	0.075458	-0.708092	0.029430
43548	-9.602795	-1.388634	0.127344	-0.701503	0.075560	-0.708037	0.029456
43549	-9.609344	-1.312460	0.114486	-0.701469	0.075670	-0.708058	0.029493
43550	-9.661921	-1.360384	-0.021523	-0.701354	0.076003	-0.708140	0.029398
43551	-9.678270	-1.492922	-0.184250	-0.701241	0.076162	-0.708230	0.029501
43552	-9.689853	-1.448291	-0.311233	-0.701143	0.076108	-0.708318	0.029856
43553	-9.681154	-1.395639	-0.361382	-0.701099	0.075966	-0.708358	0.030309
43554	-9.707622	-1.398884	-0.343446	-0.701107	0.076025	-0.708332	0.030564
43555	-9.741380	-1.546154	-0.271574	-0.701168	0.076097	-0.708255	0.030787
43556	-9.691051	-1.461835	-0.083640	-0.701246	0.076285	-0.708154	0.030862
43557	-9.618235	-1.503538	0.013220	-0.701291	0.076708	-0.708071	0.030683
43558	-9.623213	-1.544094	-0.062776	-0.701320	0.077134	-0.708006	0.030473
43559	-9.739485	-1.480031	-0.084440	-0.701348	0.077612	-0.707939	0.030167
43560	-9.727547	-1.554581	-0.181206	-0.701376	0.077952	-0.707881	0.029992
43561	-9.638174	-1.441010	-0.030902	-0.701400	0.078306	-0.707827	0.029785
43562	-9.638044	-1.587379	-0.108102	-0.701429	0.078727	-0.707765	0.029465
43563	-9.665752	-1.474767	-0.197487	-0.701503	0.079035	-0.707668	0.029214
43564	-9.768631	-1.486589	-0.333987	-0.701605	0.079401	-0.707540	0.028880
43565	-9.725963	-1.595037	-0.381655	-0.701778	0.079854	-0.707336	0.028404
43566	-9.642925	-1.806180	-0.458438	-0.702036	0.080061	-0.707068	0.028114
43567	-9.683790	-1.744536	-0.417906	-0.702389	0.079996	-0.706729	0.027995
43568	-9.598326	-1.680329	-0.491017	-0.702834	0.079747	-0.706315	0.027994
43569	-9.620319	-1.684576	-0.553200	-0.703391	0.079333	-0.705805	0.028057
43570	-9.738136	-1.692614	-0.587894	-0.704091	0.078737	-0.705168	0.028198
43571	-9.742112	-1.697422	-0.476890	-0.704925	0.077901	-0.704415	0.028476
43572	-9.667246	-1.543037	-0.130423	-0.705785	0.077193	-0.703630	0.028516
43573	-9.653017	-1.595431	0.033462	-0.706780	0.076816	-0.702689	0.028092
43574	-9.563281	-1.532960	0.109916	-0.707945	0.076864	-0.701546	0.027186
43575	-9.684979	-1.523012	0.128756	-0.709045	0.076967	-0.700460	0.026211
43576	-9.686108	-1.432026	0.187777	-0.710051	0.076960	-0.699473	0.025339
43577	-9.609962	-1.452020	0.142829	-0.710982	0.076684	-0.698581	0.024674
43578	-9.701547	-1.329006	0.128435	-0.711907	0.076066	-0.697717	0.024348
43579	-9.705992	-1.096530	0.273928	-0.712854	0.075395	-0.696831	0.024108
43580	-9.673590	-1.281745	0.153853	-0.713827	0.075160	-0.695880	0.023516
43581	-9.706824	-1.378998	0.285078	-0.714836	0.075021	-0.694881	0.022834
43582	-9.653061	-1.285679	0.195573	-0.715879	0.075018	-0.693832	0.022065
43583	-9.747353	-1.095998	0.079527	-0.716920	0.075369	-0.692751	0.021005
43584	-9.818513	-1.250586	-0.075225	-0.718049	0.075807	-0.691564	0.019950
43585	-9.839838	-1.357589	-0.246523	-0.719416	0.076115	-0.690134	0.019056
43586	-9.717999	-1.141599	-0.375528	-0.721003	0.076221	-0.688483	0.018346
43587	-9.953816	-1.233678	-0.870350	-0.722887	0.076797	-0.686472	0.017112
43588	-10.236687	-1.875991	-1.224143	-0.725082	0.077352	-0.684118	0.015960
43589	-10.198904	-2.081996	-1.713758	-0.727869	0.077169	-0.681183	0.015558
43590	-10.040362	-1.359750	-1.620437	-0.731333	0.076971	-0.677496	0.015056
43591	-9.914337	-0.771551	-1.183608	-0.735382	0.077997	-0.673016	0.013376
43592	-9.817079	-0.743372	-0.461419	-0.739818	0.080286	-0.667914	0.010717
43593	-9.536967	-1.159282	0.358335	-0.744409	0.083246	-0.662471	0.007660
43594	-9.453899	-2.198141	0.966695	-0.748980	0.085056	-0.657086	0.005673
43595	-9.164255	-2.327085	1.673950	-0.753535	0.084039	-0.651986	0.006148
43596	-9.209478	-0.886581	2.429053	-0.757722	0.081276	-0.647445	0.008161
43597	-9.556068	-0.045588	3.048735	-0.761263	0.080021	-0.643421	0.009200
43598	-9.011495	-0.813801	3.171698	-0.764277	0.080196	-0.639814	0.009342
43599	-8.623062	-1.158578	3.440700	-0.766879	0.080440	-0.636662	0.009393
43600	-8.998384	-0.939208	3.427514	-0.769062	0.080440	-0.634021	0.009489
43601	-9.442592	-0.997064	3.208862	-0.770785	0.080578	-0.631909	0.009392
43602	-9.310746	-0.813742	2.662150	-0.772082	0.081367	-0.630228	0.008972
43603	-9.287787	-1.292772	2.143394	-0.773193	0.082441	-0.628731	0.008589
43604	-9.452406	-1.702846	1.968414	-0.774332	0.082613	-0.627301	0.008824
43605	-9.477873	-1.689683	2.822006	-0.775391	0.081275	-0.626145	0.010292
43606	-9.190381	-0.863151	3.909857	-0.776070	0.080241	-0.625416	0.011495
43607	-9.167920	-1.084603	4.389007	-0.776076	0.080687	-0.625347	0.011682
43608	-9.064783	-1.190910	4.122835	-0.775401	0.081328	-0.626097	0.011917
43609	-9.289885	-1.226659	3.617895	-0.774179	0.081699	-0.627549	0.012436
43610	-9.365735	-1.244114	3.240643	-0.772653	0.081436	-0.629438	0.013541
43611	-9.439960	-1.516867	2.644858	-0.770881	0.081373	-0.631592	0.014575
43612	-9.442677	-1.862654	1.980701	-0.768942	0.081320	-0.633932	0.015673
43613	-9.414778	-1.776293	1.957844	-0.766927	0.080593	-0.636418	0.017324
43614	-9.367794	-1.308850	2.384840	-0.764751	0.079782	-0.639084	0.019012
43615	-9.343758	-1.321040	2.814010	-0.762311	0.078812	-0.642056	0.020847
43616	-9.112675	-1.132876	3.206947	-0.759486	0.077874	-0.645449	0.022638
43617	-9.125322	-1.333161	3.144831	-0.756141	0.077240	-0.649383	0.024215
43618	-9.207763	-1.518097	2.538809	-0.752373	0.076813	-0.653744	0.025581
43619	-9.221417	-1.473940	2.035504	-0.748282	0.076234	-0.658426	0.027156
43620	-9.268762	-1.175801	1.644188	-0.743952	0.075332	-0.663338	0.029039
43621	-9.288897	-0.944515	1.480525	-0.739370	0.074451	-0.668450	0.031043
43622	-9.343272	-0.923615	1.286002	-0.734549	0.073836	-0.673719	0.032985
43623	-9.411165	-1.368114	1.053125	-0.729479	0.073414	-0.679158	0.034867
43624	-9.350188	-1.635898	1.047689	-0.724190	0.072618	-0.684759	0.037145
43625	-9.374847	-1.556573	0.763881	-0.718709	0.072238	-0.690445	0.039045
43626	-9.424356	-1.797724	0.061368	-0.713081	0.072368	-0.696156	0.040563
43627	-9.630955	-1.969701	-0.703320	-0.707535	0.072551	-0.701690	0.041965
43628	-9.619999	-1.843837	-1.082215	-0.702255	0.072161	-0.706894	0.043941
43629	-9.678242	-1.409675	-1.145121	-0.697265	0.071795	-0.711735	0.045839
43630	-9.731233	-1.635160	-1.198192	-0.692465	0.071696	-0.716314	0.047398
43631	-9.640405	-1.766236	-0.825259	-0.687837	0.071436	-0.720665	0.049185
43632	-9.587838	-1.194001	-0.469988	-0.683357	0.071710	-0.724793	0.050560
43633	-9.511810	-0.953922	-0.549826	-0.678846	0.073758	-0.728846	0.050105
43634	-9.553146	-1.619200	-0.812139	-0.674295	0.076410	-0.732866	0.048947
43635	-9.725152	-1.575222	-1.088614	-0.669862	0.079458	-0.736696	0.047433
43636	-9.679218	-1.740700	-1.762654	-0.665533	0.083068	-0.740347	0.045289
43637	-9.691180	-2.251398	-2.178882	-0.661382	0.086114	-0.743809	0.043660
43638	-9.699848	-2.320571	-2.200422	-0.657561	0.087389	-0.747028	0.043885
43639	-9.670763	-1.872324	-2.052684	-0.654026	0.087645	-0.750009	0.045338
43640	-9.815331	-1.843076	-1.975421	-0.650690	0.087569	-0.752807	0.047075
43641	-9.847561	-1.556401	-1.593309	-0.647576	0.087327	-0.755394	0.048984
43642	-9.498971	-1.489402	-1.236827	-0.644410	0.088052	-0.757955	0.049865
43643	-9.017914	-2.577566	-1.368218	-0.641138	0.088351	-0.760623	0.050887
43644	-8.950539	-2.820938	-2.008159	-0.637967	0.086952	-0.763276	0.053359
43645	-9.312953	-2.607018	-2.644018	-0.634930	0.084988	-0.765823	0.056185
43646	-9.650441	-2.044749	-3.136885	-0.632280	0.083421	-0.768017	0.058422
43647	-9.658321	-1.923011	-3.654701	-0.630185	0.082735	-0.769739	0.059369
43648	-9.233172	-2.559673	-3.771502	-0.628713	0.081951	-0.770967	0.060121
43649	-8.924422	-2.637477	-3.261226	-0.627797	0.080468	-0.771762	0.061476
43650	-8.825108	-2.610546	-2.931305	-0.627193	0.079302	-0.772314	0.062222
43651	-8.873324	-2.372002	-2.702166	-0.626859	0.079141	-0.772646	0.061672
43652	-9.345712	-2.101433	-2.920347	-0.626812	0.080429	-0.772740	0.059253
43653	-9.645181	-2.591974	-3.223183	-0.627223	0.081822	-0.772476	0.056365
43654	-9.542462	-2.556279	-3.382850	-0.628159	0.081566	-0.771826	0.055211
43655	-9.806683	-1.650117	-3.671345	-0.629648	0.080328	-0.770751	0.055081
43656	-9.387417	-1.636145	-3.586379	-0.631673	0.079219	-0.769221	0.054883
43657	-8.996788	-1.451295	-3.012332	-0.634068	0.078392	-0.767349	0.054671
43658	-9.513401	-1.134266	-2.683273	-0.636822	0.078092	-0.765150	0.053896
43659	-9.782066	-1.238349	-2.457258	-0.639903	0.078137	-0.762636	0.052962
43660	-9.629565	-1.140279	-1.721234	-0.643146	0.078122	-0.759951	0.052290
43661	-9.399702	-0.927035	-0.758034	-0.646298	0.078414	-0.757292	0.051561
43662	-9.478141	-1.316852	-0.781650	-0.649196	0.079345	-0.754805	0.050190
43663	-9.428475	-1.907338	-1.183420	-0.651933	0.080003	-0.752446	0.049064
43664	-9.573433	-1.953571	-1.270453	-0.654613	0.080296	-0.750128	0.048395
43665	-9.609007	-2.035406	-1.583501	-0.657331	0.080360	-0.747775	0.047860
43666	-9.503978	-2.006013	-0.847262	-0.659974	0.079612	-0.745513	0.048026
43667	-9.304299	-2.351393	-0.576725	-0.662484	0.078673	-0.743385	0.048003
43668	-9.335365	-2.799855	-0.631802	-0.664782	0.077635	-0.741459	0.047707
43669	-9.432834	-2.747701	-0.968736	-0.667048	0.076240	-0.739600	0.047184
43670	-9.599837	-2.618995	-1.640032	-0.669452	0.075122	-0.737620	0.045903
43671	-9.625296	-2.444945	-2.075998	-0.672113	0.074262	-0.735405	0.043919
43672	-9.738382	-2.057092	-2.042628	-0.675184	0.073342	-0.732820	0.041499
43673	-9.691223	-1.993947	-2.093585	-0.678667	0.072697	-0.729830	0.038393
43674	-9.675903	-2.031188	-1.700529	-0.682548	0.072170	-0.726432	0.034861
43675	-9.711524	-1.687218	-1.413388	-0.686772	0.071898	-0.722646	0.030934
43676	-9.843959	-1.553254	-0.947865	-0.691200	0.072580	-0.718539	0.026003
43677	-9.303553	-2.179981	-1.067916	-0.695730	0.073499	-0.714228	0.020876
43678	-9.080828	-2.048174	-0.483327	-0.700378	0.072834	-0.709833	0.017427
43679	-9.707762	0.252973	0.672845	-0.704992	0.072377	-0.705371	0.014122
43680	-9.817880	0.900272	0.627470	-0.709357	0.075369	-0.700764	0.007859
43681	-9.757487	-0.437259	0.378656	-0.713459	0.079647	-0.696155	0.000843
43682	-9.289374	-0.819535	0.287046	-0.717542	0.082522	-0.691595	-0.004380
43683	-9.506282	0.846379	0.587806	-0.721555	0.085366	-0.687017	-0.008865
43684	-10.091859	1.792759	0.492534	-0.725333	0.090918	-0.682210	-0.014687
43685	-9.926949	0.333314	-0.043245	-0.729223	0.096359	-0.677180	-0.019373
43686	-9.632755	-0.298994	0.063769	-0.733400	0.098951	-0.672240	-0.020651
43687	-9.736030	-0.086691	0.708982	-0.737614	0.100275	-0.667432	-0.020131
43688	-9.490600	0.165631	1.379659	-0.741604	0.102573	-0.662656	-0.019699
43689	-9.787278	-0.142039	1.285506	-0.745285	0.106423	-0.657903	-0.019711
43690	-9.473796	-0.486699	1.477830	-0.748856	0.109826	-0.653304	-0.018623
43691	-9.346737	-0.180652	2.281840	-0.752184	0.112177	-0.649138	-0.015975
43692	-9.293823	-0.462341	2.719582	-0.755038	0.114457	-0.645490	-0.012649
43693	-9.317353	-0.772269	2.604329	-0.757423	0.116555	-0.642380	-0.008562
43694	-9.576301	-1.299839	2.366245	-0.759503	0.118284	-0.639649	-0.003636
43695	-9.205435	-1.511117	2.749184	-0.761288	0.119199	-0.637359	0.002420
43696	-9.057113	-1.520735	3.150103	-0.762576	0.120419	-0.635535	0.008531
43697	-9.028899	-1.207010	3.380089	-0.763288	0.122153	-0.634236	0.014651
43698	-9.315359	-1.238146	3.346412	-0.763449	0.124590	-0.633406	0.020506
43699	-9.000603	-1.728596	3.623318	-0.763031	0.127543	-0.633115	0.026125
43700	-9.078447	-2.345043	3.380748	-0.762150	0.129873	-0.633414	0.032355
43701	-8.636173	-2.415351	3.479177	-0.760875	0.131416	-0.634236	0.039279
43702	-8.723338	-2.621563	2.978765	-0.759058	0.133510	-0.635550	0.045637
43703	-9.053669	-3.431664	2.267280	-0.756877	0.136069	-0.637158	0.051501
43704	-9.005143	-3.808314	1.975592	-0.754522	0.137993	-0.638979	0.057963
43705	-9.037056	-3.331223	2.743875	-0.751940	0.139022	-0.641103	0.065169
43706	-8.825956	-3.172338	3.207578	-0.748841	0.139987	-0.643768	0.072132
43707	-8.677047	-3.593252	3.237682	-0.745189	0.140757	-0.647050	0.078787
43708	-8.531218	-4.182106	2.611255	-0.741023	0.141393	-0.650902	0.084968
43709	-8.757554	-4.869836	2.204028	-0.736479	0.140766	-0.655262	0.091733
43710	-8.956302	-4.353329	2.377579	-0.731606	0.139683	-0.660009	0.098132
43711	-8.602347	-4.281091	2.221231	-0.726176	0.139528	-0.665290	0.102907
43712	-8.457389	-4.177974	2.024016	-0.720165	0.140520	-0.671129	0.105843
43713	-8.336806	-4.365989	1.893739	-0.713660	0.142172	-0.677424	0.107582
43714	-8.346514	-4.774055	1.155980	-0.706703	0.144084	-0.684170	0.108264
43715	-8.548607	-5.475375	0.554251	-0.699648	0.144172	-0.691161	0.109566
43716	-8.664869	-4.891165	0.630798	-0.692672	0.142216	-0.698191	0.111843
43717	-8.434515	-4.277196	0.339645	-0.685448	0.140779	-0.705406	0.112892
43718	-8.699953	-4.144529	-0.253629	-0.677874	0.140203	-0.712869	0.112462
43719	-8.876669	-4.264362	-0.820717	-0.670133	0.140219	-0.720447	0.110532
43720	-8.936759	-4.230665	-1.489338	-0.662528	0.139926	-0.727906	0.107844
43721	-9.187865	-3.626213	-1.665596	-0.655202	0.139821	-0.735077	0.104026
43722	-9.148747	-3.896343	-2.663029	-0.648127	0.140408	-0.741976	0.098432
43723	-8.839368	-4.891541	-3.585507	-0.641550	0.140181	-0.748402	0.093046
43724	-8.914165	-5.217749	-4.335687	-0.635935	0.138226	-0.754009	0.089170
43725	-8.796327	-4.313666	-4.637823	-0.631320	0.134708	-0.758802	0.086648
43726	-9.199150	-3.903158	-4.738318	-0.627578	0.130640	-0.762864	0.084364
43727	-8.888015	-3.501003	-4.505183	-0.624782	0.126041	-0.766174	0.082085
43728	-8.476306	-3.123965	-4.144913	-0.622665	0.121226	-0.768912	0.079787
43729	-8.453581	-3.164803	-3.746442	-0.621150	0.115817	-0.771180	0.077724
43730	-8.067773	-2.323512	-3.203978	-0.620063	0.110080	-0.773081	0.075821
43731	-8.590513	-1.681665	-3.054649	-0.619231	0.104888	-0.774746	0.072939
43732	-9.478560	-1.941534	-3.344213	-0.618744	0.100298	-0.776098	0.069059
43733	-10.396460	-2.444685	-3.254157	-0.618765	0.094369	-0.777065	0.066289
43734	-10.228306	-3.069638	-2.349025	-0.619272	0.087341	-0.777683	0.063904
43735	-8.560071	-2.863973	-1.524875	-0.620024	0.079314	-0.778110	0.061837
43736	-8.856066	-3.361806	-1.060134	-0.620144	0.074164	-0.778908	0.056783
43737	-8.812327	-2.536679	-1.072089	-0.619986	0.070789	-0.779802	0.050148
43738	-9.506856	-1.329100	-2.054471	-0.619596	0.069877	-0.780751	0.040575
43739	-9.693747	-2.165208	-3.658273	-0.619518	0.069031	-0.781343	0.030570
43740	-9.640717	-2.213229	-5.187095	-0.620337	0.065801	-0.781225	0.023213
43741	-9.112922	-1.490209	-5.671280	-0.622159	0.060044	-0.780361	0.018719
43742	-8.386659	-0.889282	-4.638797	-0.624843	0.052894	-0.778789	0.016117
43743	-8.679310	0.682228	-3.348324	-0.628109	0.046640	-0.776623	0.012680
43744	-9.064960	1.003618	-3.409079	-0.631928	0.043020	-0.773806	0.006398
43745	-9.561397	0.083108	-4.027802	-0.636329	0.040726	-0.770341	-0.001131
43746	-9.692682	0.555902	-4.353130	-0.641567	0.037405	-0.766121	-0.007174
43747	-9.842299	0.981046	-3.633209	-0.647427	0.033357	-0.761306	-0.011764
43748	-9.865355	1.278991	-2.514167	-0.653846	0.029491	-0.755886	-0.015884
43749	-9.558738	1.377862	-1.760799	-0.660530	0.026636	-0.750044	-0.020606
43750	-9.533412	0.680978	-1.520748	-0.667394	0.025415	-0.743796	-0.026573
43751	-9.273987	0.462949	-0.825630	-0.674272	0.024694	-0.737350	-0.032583
43752	-9.663803	1.126132	-0.580670	-0.681038	0.024871	-0.730792	-0.038886
43753	-9.664494	1.054599	-0.367385	-0.687632	0.025635	-0.724204	-0.045094
43754	-9.221335	0.853424	0.544532	-0.693961	0.025575	-0.717830	-0.049845
43755	-9.322882	2.139839	1.270507	-0.699907	0.026369	-0.711632	-0.054907
43756	-9.620493	1.738764	0.591895	-0.705503	0.029561	-0.705408	-0.061572
43757	-9.479083	0.818459	0.679046	-0.710801	0.032047	-0.699457	-0.067041
43758	-9.372570	1.398860	1.156000	-0.715889	0.034266	-0.693671	-0.071754
43759	-9.642419	1.705627	1.136897	-0.720866	0.038612	-0.687574	-0.078126
43760	-9.772836	0.771938	0.295897	-0.725877	0.044383	-0.681071	-0.085292
43761	-9.884526	0.745709	0.484027	-0.730858	0.050139	-0.674463	-0.091821
43762	-9.674368	1.074116	1.080933	-0.735682	0.055080	-0.668084	-0.096964
43763	-9.329627	1.682966	2.219971	-0.740242	0.059988	-0.661925	-0.101484
43764	-9.331208	1.025826	2.707867	-0.744432	0.065210	-0.656037	-0.105750
43765	-9.765883	0.864822	2.152658	-0.748262	0.070083	-0.650608	-0.109093
43766	-9.718338	0.891307	1.578231	-0.751921	0.074461	-0.645474	-0.111506
43767	-9.814590	0.636966	1.070447	-0.755417	0.078983	-0.640502	-0.113423
43768	-9.820979	0.729807	1.623825	-0.758894	0.083286	-0.635631	-0.114528
43769	-9.518309	0.947699	2.720869	-0.762260	0.087378	-0.630972	-0.114888
43770	-9.148631	1.055331	3.376061	-0.765323	0.091428	-0.626732	-0.114578
43771	-9.390961	0.995485	3.360212	-0.768028	0.094844	-0.623169	-0.113124
43772	-9.301791	0.846399	3.223555	-0.770426	0.098055	-0.620096	-0.110948
43773	-9.271382	0.896429	3.068824	-0.772540	0.101325	-0.617412	-0.108247
43774	-9.362844	0.934580	2.989152	-0.774342	0.105696	-0.614836	-0.105827
43775	-9.220900	0.923887	3.224236	-0.775875	0.110450	-0.612526	-0.103105
43776	-9.549458	1.085774	3.235434	-0.777133	0.115697	-0.610481	-0.099951
43777	-9.281467	0.217077	2.890531	-0.778250	0.120237	-0.608895	-0.095487
43778	-8.961307	-0.246616	3.111598	-0.779373	0.122671	-0.607956	-0.088991
43779	-9.283090	-0.114113	3.101978	-0.780279	0.124532	-0.607464	-0.081513
43780	-9.355211	-0.419816	2.607672	-0.780925	0.126765	-0.607171	-0.073691
43781	-9.216250	-1.156653	1.881627	-0.781451	0.128387	-0.607144	-0.065017
43782	-9.256928	-1.910042	1.761747	-0.782132	0.128364	-0.607280	-0.054810
43783	-9.195635	-1.219834	2.648865	-0.782878	0.127211	-0.607467	-0.043617
43784	-9.100588	-1.295706	3.590326	-0.783219	0.127237	-0.607692	-0.033005
43785	-8.985448	-1.575821	3.801639	-0.783141	0.128021	-0.608094	-0.022848
43786	-9.179478	-1.916360	3.481503	-0.782599	0.128813	-0.608921	-0.012721
43787	-8.949999	-2.795205	3.047155	-0.781740	0.128659	-0.610184	-0.002036
43788	-8.933474	-2.918201	3.239886	-0.780585	0.127116	-0.611913	0.009545
43789	-8.770259	-2.704711	3.670041	-0.778963	0.125831	-0.613960	0.020870
43790	-8.370991	-1.925349	4.190778	-0.776732	0.126020	-0.616324	0.030838
43791	-8.643814	-1.836235	3.670043	-0.773785	0.129040	-0.618995	0.038094
43792	-8.934939	-3.188852	2.264426	-0.770283	0.133689	-0.622007	0.043574
43793	-9.204692	-4.784953	1.467997	-0.766842	0.136015	-0.625216	0.050587
43794	-8.994762	-4.817735	1.921913	-0.763623	0.134790	-0.628575	0.060034
43795	-8.716084	-3.939212	3.171542	-0.760353	0.131437	-0.632116	0.070827
43796	-8.588513	-2.956178	3.666659	-0.756432	0.129586	-0.636132	0.079720
43797	-8.701068	-4.280707	2.890035	-0.751929	0.128537	-0.640672	0.087296
43798	-8.517007	-4.761495	2.623084	-0.747141	0.126428	-0.645547	0.095216
43799	-8.494053	-4.383375	2.778502	-0.742103	0.123099	-0.650692	0.103585
43800	-8.351585	-3.783591	2.932773	-0.736696	0.119836	-0.656174	0.111150
43801	-8.354651	-3.633302	2.164405	-0.730743	0.118358	-0.662169	0.116356
43802	-8.540943	-4.362972	1.499551	-0.724471	0.117317	-0.668496	0.120381
43803	-8.687278	-4.601825	1.279564	-0.717960	0.116118	-0.675066	0.123840
43804	-8.567648	-4.446522	1.199686	-0.711296	0.114675	-0.681796	0.126734
43805	-8.689862	-4.193977	0.877177	-0.704364	0.113745	-0.688845	0.128163
43806	-8.804642	-4.365629	0.194336	-0.697329	0.113061	-0.696032	0.128411
43807	-8.854755	-4.348015	-0.486867	-0.690323	0.112393	-0.703205	0.127772
43808	-9.202178	-4.020848	-1.378626	-0.683563	0.111928	-0.710137	0.126169
43809	-9.363625	-3.850765	-2.140219	-0.677266	0.111875	-0.716627	0.123452
43810	-9.187960	-4.374580	-3.148404	-0.671557	0.111320	-0.722557	0.120542
43811	-9.289107	-4.459034	-3.589829	-0.666765	0.109471	-0.727632	0.118288
43812	-9.241515	-4.278949	-3.655070	-0.662987	0.106344	-0.731793	0.116698
43813	-9.180743	-3.992164	-3.562386	-0.660121	0.103072	-0.735151	0.114762
43814	-8.982333	-3.570798	-2.942121	-0.657954	0.100540	-0.737894	0.111806
43815	-8.946799	-3.600803	-2.875866	-0.656248	0.098995	-0.740237	0.107642
43816	-9.070290	-3.764126	-2.853589	-0.655047	0.097288	-0.742140	0.103328
43817	-9.080852	-3.640747	-2.618442	-0.654437	0.094227	-0.743529	0.099994
43818	-9.072187	-2.652744	-1.913283	-0.654238	0.090632	-0.744534	0.097101
43819	-9.198076	-2.332845	-1.859850	-0.654211	0.088216	-0.745400	0.092759
43820	-9.212191	-2.878287	-2.066659	-0.654359	0.086239	-0.746124	0.087609
43821	-9.407664	-3.128961	-2.215151	-0.654911	0.083252	-0.746477	0.083266
43822	-9.233441	-2.236882	-1.933958	-0.655784	0.079933	-0.746497	0.079378
43823	-9.055361	-2.010509	-2.015029	-0.656820	0.077100	-0.746338	0.074990
43824	-9.226566	-2.027662	-1.952816	-0.658060	0.073941	-0.745961	0.070940
43825	-9.665986	-1.374919	-1.611933	-0.659529	0.070669	-0.745340	0.067050
43826	-9.799422	-1.142277	-1.136447	-0.661218	0.068394	-0.744482	0.062119
43827	-9.145913	-1.809310	-0.902315	-0.663152	0.066529	-0.743342	0.056968
43828	-8.654243	-3.030707	-1.044408	-0.664790	0.064067	-0.742435	0.052344
43829	-10.192560	-1.042803	-0.081534	-0.666265	0.059942	-0.741639	0.049694
43830	-10.539771	0.546022	0.083814	-0.667668	0.058626	-0.740812	0.044491
43831	-9.273621	-0.643926	-0.443114	-0.668712	0.058488	-0.740215	0.038530
43832	-9.531250	0.935376	0.653665	-0.669349	0.057662	-0.739920	0.034153
43833	-9.838717	1.031836	0.995982	-0.669422	0.058991	-0.739997	0.028277
43834	-9.381624	-0.216418	0.425930	-0.669001	0.061058	-0.740415	0.022260
43835	-9.693997	0.247773	0.268049	-0.668281	0.063119	-0.741035	0.016832
43836	-9.900111	1.188499	-0.494342	-0.667282	0.068357	-0.741611	0.008705
43837	-9.927108	0.676329	-1.687400	-0.666239	0.076023	-0.741852	-0.001434
43838	-9.943705	-0.238786	-2.492484	-0.665198	0.083934	-0.741846	-0.011418
43839	-10.290749	-0.621289	-3.022321	-0.664718	0.090559	-0.741332	-0.019377
43840	-9.983186	-0.207685	-2.468153	-0.664712	0.096046	-0.740465	-0.025409
43841	-9.734578	0.016529	-2.250924	-0.664992	0.101852	-0.739214	-0.031218
43842	-9.870372	-0.215230	-1.668937	-0.665420	0.107965	-0.737698	-0.036900
43843	-9.910168	-0.378746	-1.301440	-0.665939	0.113507	-0.736161	-0.041333
43844	-9.712138	-0.924391	-0.829003	-0.666427	0.118087	-0.734832	-0.044192
43845	-9.416520	-0.914864	-0.257430	-0.666965	0.120201	-0.734018	-0.043892
43846	-9.464545	-0.208281	0.274267	-0.667252	0.121492	-0.733649	-0.042120
43847	-9.400058	-0.602749	-0.097440	-0.667120	0.122476	-0.733756	-0.039415
43848	-9.624939	-0.923005	-0.868850	-0.666855	0.122619	-0.734190	-0.035114
43849	-9.873784	-0.723363	-1.307020	-0.666635	0.121677	-0.734818	-0.028878
43850	-9.980536	-0.453099	-1.228843	-0.666463	0.120487	-0.735420	-0.021618
43851	-9.554424	-1.269887	-1.045901	-0.666249	0.119327	-0.735991	-0.013800
43852	-9.710734	-1.986299	-1.240344	-0.666076	0.117053	-0.736629	-0.004383
43853	-10.062820	-1.784121	-1.498579	-0.666090	0.113375	-0.737171	0.007002
43854	-10.301005	-0.678469	-2.741915	-0.666482	0.109957	-0.737133	0.018619
43855	-11.162460	-1.220443	-4.473042	-0.667541	0.107819	-0.736153	0.029039
43856	-10.967856	-2.559960	-6.198647	-0.670275	0.104945	-0.733563	0.040055
43857	-10.905313	-2.453629	-6.204168	-0.674922	0.100777	-0.729098	0.052358
43858	-11.472015	-1.788623	-5.244517	-0.681144	0.096296	-0.722867	0.065067
43859	-11.516850	-1.705605	-3.604216	-0.688442	0.091381	-0.715195	0.078695
43860	-11.395230	-1.185173	-0.564055	-0.695860	0.084299	-0.706939	0.094388
43861	-11.110968	-0.251950	2.100848	-0.702978	0.073968	-0.698463	0.111805
43862	-10.321007	2.200711	2.738656	-0.708892	0.062682	-0.690829	0.127667
43863	-7.562724	1.740519	0.583388	-0.711509	0.051299	-0.686396	0.141369
43864	-5.729445	-3.927136	-2.982272	-0.709403	0.033017	-0.685697	0.159615
43865	-5.660938	-2.435170	-3.452424	-0.703014	0.003729	-0.686641	0.185151
43866	-7.686141	0.297354	-3.156845	-0.693514	-0.025364	-0.689221	0.208253
43867	-8.654827	-0.318096	-2.984971	-0.683216	-0.047891	-0.693130	0.224709
43868	-8.382821	-1.985762	-3.562986	-0.673182	-0.066614	-0.697153	0.237413
43869	-8.622354	-2.703492	-3.975959	-0.662451	-0.085938	-0.700573	0.250940
43870	-9.516261	-0.429660	-2.376417	-0.650951	-0.106368	-0.702949	0.266103
43871	-9.945705	-0.415977	-2.067004	-0.638727	-0.124967	-0.705716	0.279957
43872	-10.176504	-0.186030	-1.449948	-0.626409	-0.143117	-0.707892	0.293289
43873	-9.969370	0.158539	-1.305356	-0.614461	-0.161380	-0.709408	0.305180
43874	-9.594154	-1.161634	-1.365029	-0.601850	-0.182104	-0.709622	0.317886
43875	-9.550022	-2.486050	-1.833436	-0.586772	-0.208237	-0.707409	0.334526
43876	-9.801924	-2.317785	-1.390466	-0.568732	-0.239920	-0.701567	0.356070
43877	-9.505168	-1.300975	-1.138364	-0.547528	-0.275424	-0.692572	0.380392
43878	-9.688079	-0.664559	-1.144813	-0.523217	-0.313410	-0.680775	0.405665
43879	-9.998195	0.542863	-0.642589	-0.495777	-0.352743	-0.666308	0.431058
43880	-10.159664	1.177411	-0.046010	-0.466146	-0.391775	-0.650128	0.454482
43881	-10.624475	0.321357	-0.530348	-0.435166	-0.430068	-0.632137	0.475472
43882	-10.876357	0.956294	-0.810298	-0.402882	-0.467844	-0.611045	0.495412
43883	-10.731761	3.004902	-0.469608	-0.370435	-0.503737	-0.587545	0.513632
43884	-10.958670	5.231495	0.314535	-0.341612	-0.534723	-0.564757	0.527658
43885	-11.017982	5.932491	1.072639	-0.320151	-0.558792	-0.545553	0.536309
43886	-11.203497	3.673583	1.218254	-0.306401	-0.576493	-0.530616	0.540575
43887	-12.165500	3.048816	3.978755	-0.295796	-0.590710	-0.512849	0.548227
43888	-11.567845	0.735594	3.204256	-0.291494	-0.599876	-0.495202	0.556736
43889	-10.218189	0.262333	2.146729	-0.289759	-0.606055	-0.477420	0.566398
43890	-10.006291	-0.283528	-0.499731	-0.287770	-0.612416	-0.462890	0.572597
43891	-10.683279	-3.228756	-0.063447	-0.282877	-0.619140	-0.448959	0.578863
43892	-11.470776	-7.676649	2.541147	-0.278028	-0.623509	-0.440199	0.583234
43893	-10.013577	-7.936535	0.168667	-0.275452	-0.623935	-0.438533	0.585252
43894	-7.621123	-4.354831	1.257849	-0.275999	-0.624637	-0.437543	0.584987
43895	-7.383894	-2.860881	-2.371142	-0.285212	-0.623351	-0.440979	0.579332
43896	-9.405639	-0.233823	-3.208043	-0.292075	-0.622206	-0.444022	0.574801
43897	-9.937340	2.884596	-3.633445	-0.294476	-0.622558	-0.443322	0.573735
43898	-11.450198	1.418471	-2.498551	-0.297692	-0.623710	-0.440446	0.573038
43899	-11.221028	-3.270732	-2.587149	-0.297837	-0.626328	-0.433994	0.575026
43900	-10.565456	-1.639554	-1.359314	-0.294302	-0.629557	-0.425626	0.579558
43901	-9.809534	1.209171	-0.328250	-0.294407	-0.630336	-0.421592	0.581603
43902	-9.538850	1.194649	-0.391466	-0.301205	-0.627662	-0.424355	0.578998
43903	-9.881708	-1.693114	-1.875658	-0.309980	-0.623990	-0.429280	0.574689
43904	-9.832631	-3.918206	-2.544241	-0.310694	-0.624327	-0.427546	0.575230
43905	-9.703922	-0.904754	-1.402712	-0.303209	-0.628915	-0.418714	0.580697
43906	-9.875524	1.375503	-0.839473	-0.294860	-0.633533	-0.409743	0.586348
43907	-9.396046	1.221283	-1.147635	-0.290349	-0.635629	-0.405046	0.589585
43908	-9.344415	-1.188871	-1.457453	-0.288054	-0.636463	-0.402816	0.591336
43909	-9.789854	-2.234257	-1.520764	-0.284114	-0.638085	-0.399058	0.594037
43910	-9.546482	-1.459429	-0.750628	-0.277821	-0.640840	-0.393070	0.598026
43911	-9.624587	-0.392693	-0.976511	-0.271164	-0.643726	-0.386756	0.602085
43912	-9.586570	-0.073828	-0.805522	-0.264769	-0.646204	-0.381272	0.605764
43913	-9.615354	0.809120	0.081131	-0.258358	-0.648429	-0.376700	0.609006
43914	-9.633993	0.897465	0.209783	-0.253937	-0.649767	-0.374627	0.610716
43915	-9.620730	-0.452355	-0.456315	-0.250199	-0.650824	-0.373848	0.611609
43916	-9.658429	-0.751729	-1.057917	-0.245544	-0.652042	-0.372925	0.612761
43917	-9.372031	-1.222603	-1.116039	-0.240491	-0.653314	-0.372099	0.613911
43918	-10.030742	-0.424155	-1.542921	-0.234866	-0.654467	-0.371304	0.615341
43919	-10.147383	-0.212131	-2.568517	-0.229712	-0.654846	-0.371348	0.616855
43920	-10.034255	0.202115	-3.425587	-0.224233	-0.654504	-0.371441	0.619174
43921	-10.589768	-0.028940	-4.496362	-0.218958	-0.653105	-0.371932	0.622236
43922	-10.818505	-0.453438	-4.919404	-0.212534	-0.650987	-0.371656	0.626831
43923	-11.192516	-0.986827	-5.118339	-0.204889	-0.648100	-0.370277	0.633152
43924	-11.731670	-1.993405	-4.417843	-0.195788	-0.644453	-0.367178	0.641504
43925	-10.845960	-3.381047	-3.192417	-0.184645	-0.640580	-0.361244	0.651971
43926	-8.613540	-6.189663	-3.378703	-0.169990	-0.638472	-0.350859	0.663593
43927	-7.853454	-11.404762	-5.578334	-0.142330	-0.643076	-0.326887	0.677746
43928	-10.012622	-11.274118	-6.927467	-0.093459	-0.653511	-0.280392	0.696828
43929	-9.134704	-3.245576	-7.093329	-0.033730	-0.663339	-0.220286	0.714366
43930	-8.703018	4.604440	-4.517243	0.025893	-0.670419	-0.157525	0.724606
43931	-8.644024	6.178174	-3.224476	0.076819	-0.675216	-0.103990	0.726202
43932	-7.648671	3.301352	-2.632181	0.117218	-0.680312	-0.062192	0.720811
43933	-7.964911	-0.968255	-3.337494	0.150864	-0.686636	-0.026869	0.710669
43934	-7.543538	-0.251796	-3.586442	0.180672	-0.693579	0.006962	0.697321
43935	-8.077556	1.232225	-3.454939	0.204144	-0.701628	0.036910	0.681676
43936	-8.630567	1.354725	-4.127929	0.221079	-0.710768	0.061823	0.664914
43937	-10.116735	0.157648	-5.402923	0.233646	-0.720030	0.082990	0.648135
43938	-10.044459	-0.627187	-4.355737	0.246859	-0.727596	0.104257	0.631502
43939	-9.351565	0.392960	-3.688996	0.261629	-0.732683	0.126512	0.615403
43940	-9.356218	1.261372	-2.906756	0.275647	-0.736207	0.148205	0.600045
43941	-9.607282	-0.029757	-2.682785	0.289642	-0.738126	0.170113	0.585097
43942	-9.572372	-0.296029	-2.758265	0.306299	-0.737412	0.195187	0.569479
43943	-9.735892	0.747015	-1.913270	0.324405	-0.733762	0.222984	0.553745
43944	-9.736459	1.379205	-1.731858	0.342736	-0.727275	0.252854	0.538208
43945	-10.270326	2.459759	-1.568613	0.360587	-0.718050	0.284184	0.523087
43946	-10.666027	3.197333	-1.342782	0.378391	-0.706018	0.316557	0.508084
43947	-11.069836	4.653047	-0.873942	0.395903	-0.691788	0.348765	0.493004
43948	-11.271019	5.432472	0.109097	0.411507	-0.676966	0.378329	0.478797
43949	-12.169488	3.518475	0.629451	0.426809	-0.660883	0.406152	0.464874
43950	-11.548653	6.206615	4.444858	0.438697	-0.644843	0.428338	0.456343
43951	-13.568245	3.511697	5.889037	0.448769	-0.628673	0.444109	0.454030
43952	-13.594295	1.228521	8.856461	0.452190	-0.619300	0.446769	0.460857
43953	-12.801773	-7.085079	-0.396410	0.450223	-0.621636	0.440639	0.465516
43954	-8.766990	-1.740864	4.150149	0.449073	-0.622329	0.436453	0.469626
43955	-8.091531	1.657413	0.942667	0.430682	-0.629926	0.426060	0.485983
43956	-11.047564	-6.765908	-4.157634	0.416081	-0.634710	0.418824	0.498605
43957	-9.556163	-1.565309	-2.294650	0.416961	-0.631703	0.420772	0.500046
43958	-9.209434	0.733749	-1.920996	0.419269	-0.626913	0.425321	0.500296
43959	-9.722954	-0.863911	-2.407345	0.421450	-0.621618	0.430466	0.500669
43960	-10.103854	0.558512	-2.997861	0.420931	-0.618547	0.432204	0.503405
43961	-10.095940	1.088461	-2.729054	0.417625	-0.617683	0.430476	0.508673
43962	-9.910347	-1.273768	-1.915835	0.414055	-0.617060	0.428128	0.514297
43963	-9.928259	-3.887128	-1.646027	0.413666	-0.614249	0.428634	0.517544
43964	-9.825296	-2.283020	-2.024154	0.417681	-0.608216	0.433129	0.517702
43965	-9.829497	1.798614	-1.671973	0.423235	-0.601528	0.438515	0.516469
43966	-10.297019	3.149464	-0.191637	0.426780	-0.596970	0.441284	0.516482
43967	-9.650391	-0.080100	-0.551590	0.428784	-0.593910	0.442289	0.517490
43968	-9.620683	-1.900764	-0.820887	0.433402	-0.589100	0.445638	0.516265
43969	-9.632543	-0.250887	-0.223122	0.440047	-0.582780	0.450998	0.513155
43970	-9.350807	0.362717	0.380752	0.445642	-0.577444	0.455639	0.510250
43971	-9.381228	0.554272	0.453888	0.450531	-0.572944	0.459710	0.507370
43972	-9.647314	0.168802	-0.031323	0.454891	-0.569008	0.463430	0.504516
43973	-9.905977	0.047729	-0.909624	0.459403	-0.565003	0.467293	0.501357
43974	-9.879579	-0.060564	-0.990448	0.464628	-0.560644	0.471471	0.497508
43975	-9.724336	0.142825	-0.393290	0.469934	-0.556471	0.475463	0.493393
43976	-10.059870	0.246414	-0.446331	0.475061	-0.552682	0.479039	0.489266
43977	-10.053440	0.349762	-1.801741	0.480170	-0.549092	0.482073	0.485325
43978	-9.977344	-0.078702	-2.250421	0.486576	-0.544594	0.485481	0.480593
43979	-9.746351	0.333277	-1.388760	0.493649	-0.539597	0.488686	0.475743
43980	-9.694789	-0.289054	-0.747813	0.500477	-0.534930	0.491066	0.471409
43981	-10.031330	-0.034719	-0.772210	0.507324	-0.530428	0.492804	0.467346
43982	-10.081935	-0.558409	-1.244876	0.514027	-0.526289	0.493983	0.463440
43983	-9.920149	-0.872213	-1.514080	0.522167	-0.520899	0.496143	0.458091
43984	-10.428713	-0.230410	-1.552608	0.531684	-0.514293	0.498974	0.451487
43985	-10.489964	-0.293952	-1.739049	0.542071	-0.507102	0.501482	0.444434
43986	-9.853652	-0.841794	-1.294235	0.553143	-0.499563	0.503510	0.436975
43987	-9.435248	-2.424738	-0.759367	0.564752	-0.491630	0.504943	0.429405
43988	-9.136142	-5.889421	-1.382714	0.577957	-0.482040	0.506809	0.420413
43989	-8.831054	-10.144188	-3.146902	0.596052	-0.466720	0.512914	0.404738
43990	-9.634534	-12.890903	-7.015976	0.623347	-0.437828	0.529614	0.373168
43991	-11.593197	-7.659643	-8.584934	0.658448	-0.391491	0.555390	0.323609
43992	-11.550293	-0.462800	-8.334791	0.691128	-0.337966	0.580247	0.267270
43993	-11.491389	1.743309	-7.781890	0.717018	-0.284751	0.600047	0.211533
43994	-11.625844	1.382234	-6.779150	0.737192	-0.231803	0.615067	0.156549
43995	-10.519481	1.211623	-5.518224	0.752499	-0.178655	0.625712	0.101548
43996	-8.822869	1.837411	-3.950652	0.761529	-0.129045	0.633261	0.049003
43997	-8.215779	1.849994	-2.156293	0.764279	-0.087670	0.638896	0.001950
43998	-7.181401	4.024388	-0.597658	0.761544	-0.058401	0.644506	-0.035380
43999	-8.565404	3.240448	-0.856086	0.755197	-0.044536	0.651194	-0.060337
44000	-9.189669	0.820291	-2.269982	0.746983	-0.040191	0.659066	-0.077671
44001	-9.299368	-0.776214	-3.306062	0.737768	-0.039328	0.667642	-0.091688
44002	-9.085922	-0.833139	-4.029564	0.727574	-0.036894	0.676760	-0.106166
44003	-10.046711	0.015362	-3.847247	0.717088	-0.033057	0.685674	-0.120598
44004	-10.352358	0.273953	-3.211974	0.707136	-0.028120	0.693603	-0.134469
44005	-10.173740	0.962472	-2.637169	0.697524	-0.022378	0.700893	-0.147339
44006	-10.053592	1.327226	-1.991053	0.687925	-0.016222	0.707977	-0.158948
44007	-9.788056	1.675162	-1.154056	0.677986	-0.009979	0.715316	-0.168992
44008	-9.637245	1.143566	-1.487856	0.667531	-0.005880	0.723614	-0.175358
44009	-10.406509	0.310155	-0.499048	0.657274	0.000959	0.731067	-0.183115
44010	-10.148460	1.113547	-0.475347	0.648039	0.006156	0.738094	-0.187683
44011	-11.065166	0.832222	1.239796	0.640342	0.011333	0.743866	-0.191044
44012	-11.916515	1.479655	3.126403	0.635917	0.015398	0.747142	-0.192749
44013	-13.020702	0.329697	5.109189	0.636277	0.017095	0.746543	-0.193733
44014	-13.544432	0.135274	8.052957	0.643002	0.015943	0.740934	-0.193162
44015	-8.463180	4.038532	4.865642	0.652016	0.007703	0.735703	-0.183184
44016	-8.600575	-0.866446	1.591163	0.656467	-0.003309	0.735535	-0.167418
44017	-9.638279	-8.583667	-2.489907	0.660776	-0.008290	0.733513	-0.158950
44018	-8.846196	-3.844464	-0.545480	0.664374	-0.002903	0.729924	-0.160656
44019	-13.192349	0.522849	0.495224	0.667923	0.000843	0.726574	-0.161147
44020	-12.103197	-1.959652	-0.145182	0.671946	-0.001601	0.724134	-0.155291
44021	-9.985863	-3.647129	-0.829217	0.676197	-0.002994	0.721183	-0.150480
44022	-8.835154	-1.573363	-0.569360	0.680344	-0.002894	0.717882	-0.147542
44023	-9.190855	-0.344996	-0.445417	0.684435	-0.004395	0.714912	-0.142933
44024	-9.507635	-2.259776	-0.372729	0.688376	-0.005421	0.711882	-0.139041
44025	-9.511149	-2.279416	0.863184	0.691926	-0.002936	0.708475	-0.138902
44026	-9.366805	-0.325703	2.874325	0.694805	-0.000434	0.705673	-0.138822
44027	-9.133177	-0.165116	3.475059	0.696886	-0.000521	0.704135	-0.136173
44028	-9.529460	-0.944246	2.844287	0.698180	-0.002389	0.703651	-0.131964
44029	-9.894165	-1.815840	1.565758	0.698880	-0.004543	0.703698	-0.127888
44030	-9.789153	-2.147260	0.512296	0.699081	-0.004799	0.703834	-0.126017
44031	-9.514640	-1.545457	0.286446	0.698988	-0.003820	0.704011	-0.125578
44032	-9.534425	-1.495510	-0.019895	0.698762	-0.002762	0.704264	-0.125447
44033	-9.743477	-1.807732	-0.207591	0.698541	-0.001610	0.704480	-0.125482
44034	-9.676889	-2.072722	-0.109878	0.698337	-0.000233	0.704626	-0.125808
44035	-9.645590	-1.770616	0.061805	0.698203	0.000838	0.704743	-0.125894
44036	-9.548377	-1.527412	-0.075483	0.698133	0.001098	0.704913	-0.125325
44037	-9.690836	-1.173820	0.045639	0.698054	0.001125	0.705102	-0.124702
44038	-9.699365	-1.093583	0.045993	0.698060	0.000790	0.705235	-0.123918
44039	-9.644175	-1.425664	0.092931	0.698022	0.000682	0.705328	-0.123602
44040	-9.595496	-1.537956	0.165124	0.697850	0.001075	0.705454	-0.123852
44041	-9.652465	-1.660516	0.358498	0.697577	0.001729	0.705620	-0.124438
44042	-9.714052	-1.694334	0.339049	0.697278	0.002119	0.705863	-0.124727
44043	-9.730546	-1.730622	0.277494	0.696956	0.002258	0.706162	-0.124829
44044	-9.648851	-1.428518	0.223058	0.696632	0.001962	0.706518	-0.124632
44045	-9.698552	-1.358533	0.185068	0.696307	0.001121	0.706948	-0.124014
44046	-9.634913	-1.416633	0.433341	0.695946	0.000007	0.707459	-0.123127
44047	-9.654451	-1.542278	0.496580	0.695412	-0.001000	0.708093	-0.122493
44048	-9.624705	-1.696529	0.772716	0.694627	-0.001665	0.708907	-0.122238
44049	-9.459781	-1.696924	0.891616	0.693518	-0.001872	0.709953	-0.122462
44050	-9.307758	-1.481985	0.767992	0.692141	-0.002252	0.711293	-0.122469
44051	-9.465028	-1.659319	0.433995	0.690547	-0.002935	0.712898	-0.122116
44052	-9.675894	-1.855992	0.251163	0.688824	-0.003646	0.714636	-0.121669
44053	-9.705503	-1.683212	0.018061	0.687071	-0.004673	0.716444	-0.120911
44054	-9.702969	-1.430261	-0.292234	0.685285	-0.006077	0.718313	-0.119891
44055	-9.745307	-1.485207	-0.653989	0.683497	-0.007643	0.720190	-0.118740
44056	-9.641213	-1.793414	-1.095053	0.681812	-0.008740	0.721875	-0.118121
44057	-9.669489	-2.097602	-1.259468	0.680266	-0.009110	0.723313	-0.118213
44058	-9.772971	-2.002027	-1.006065	0.678859	-0.008968	0.724529	-0.118862
44059	-9.668849	-1.708951	-0.692134	0.677630	-0.009182	0.725614	-0.119236
44060	-9.683981	-1.948246	-0.876608	0.676549	-0.009799	0.726625	-0.119172
44061	-9.568984	-2.048288	-0.924587	0.675576	-0.010016	0.727481	-0.119449
44062	-9.540469	-1.741670	-0.887766	0.674707	-0.009978	0.728201	-0.119978
44063	-9.547810	-1.708305	-0.812342	0.673939	-0.010198	0.728868	-0.120225
44064	-9.633384	-1.961005	-0.931825	0.673296	-0.010487	0.729438	-0.120339
44065	-9.689993	-2.057898	-1.092161	0.672774	-0.010714	0.729887	-0.120521
44066	-9.616927	-1.781333	-1.087286	0.672388	-0.010912	0.730195	-0.120790
44067	-9.561915	-1.817828	-1.113785	0.672163	-0.011308	0.730390	-0.120829
44068	-9.500642	-1.946989	-1.071083	0.672066	-0.011673	0.730461	-0.120908
44069	-9.599395	-1.858788	-1.003017	0.672094	-0.012089	0.730412	-0.121005
44070	-9.731705	-1.950621	-1.033150	0.672252	-0.012440	0.730238	-0.121140
44071	-9.702870	-1.951031	-1.059320	0.672523	-0.012579	0.729912	-0.121588
44072	-9.599085	-1.878201	-0.886587	0.672891	-0.012511	0.729465	-0.122235
44073	-9.560670	-1.894392	-0.629667	0.673260	-0.012411	0.729008	-0.122942
44074	-9.625594	-1.916443	-0.539395	0.673635	-0.012357	0.728555	-0.123578
44075	-9.557252	-1.958161	-0.418501	0.673997	-0.012389	0.728135	-0.124073
44076	-9.532637	-1.998838	-0.297684	0.674301	-0.012506	0.727795	-0.124404
44077	-9.590718	-1.920157	-0.168794	0.674535	-0.012838	0.727561	-0.124470
44078	-9.571105	-1.888142	-0.180254	0.674676	-0.013365	0.727452	-0.124285
44079	-9.535099	-1.959574	-0.278504	0.674688	-0.013779	0.727453	-0.124166
44080	-9.524892	-1.984317	-0.411314	0.674606	-0.014040	0.727518	-0.124207
44081	-9.557182	-2.061363	-0.513571	0.674493	-0.014080	0.727589	-0.124401
44082	-9.528594	-2.089946	-0.555685	0.674344	-0.013972	0.727675	-0.124715
44083	-9.524311	-2.027317	-0.581348	0.674218	-0.013853	0.727759	-0.124923
44084	-9.556676	-2.005053	-0.665076	0.674152	-0.013976	0.727841	-0.124784
44085	-9.563275	-2.083142	-0.843103	0.674135	-0.014164	0.727897	-0.124526
44086	-9.604314	-2.057953	-0.757461	0.674204	-0.014234	0.727865	-0.124330
44087	-9.586945	-1.921136	-0.656966	0.674351	-0.014391	0.727784	-0.123991
44088	-9.587151	-1.927313	-0.636867	0.674565	-0.014787	0.727690	-0.123332
44089	-9.626648	-2.007444	-0.741190	0.674825	-0.015241	0.727569	-0.122567
44090	-9.597982	-2.058691	-0.723186	0.675114	-0.015499	0.727379	-0.122068
44091	-9.551275	-1.912200	-0.494693	0.675410	-0.015507	0.727152	-0.121781
44092	-9.541450	-1.903456	-0.343912	0.675685	-0.015680	0.726972	-0.121304
44093	-9.552611	-1.890618	-0.346650	0.675888	-0.015763	0.726842	-0.120948
44094	-9.590907	-1.821027	-0.304179	0.676028	-0.015816	0.726752	-0.120692
44095	-9.623401	-1.772470	-0.359326	0.676103	-0.015992	0.726744	-0.120300
44096	-9.552415	-1.965955	-0.512370	0.676151	-0.016086	0.726741	-0.120034
44097	-9.535978	-1.990372	-0.349243	0.676145	-0.015889	0.726744	-0.120075
44098	-9.598320	-1.757100	-0.202064	0.676117	-0.016047	0.726814	-0.119791
44099	-9.715422	-1.709528	-0.197970	0.676028	-0.016629	0.726985	-0.119172
44100	-9.717483	-1.732313	-0.481062	0.675885	-0.017344	0.727208	-0.118523
44101	-9.688057	-1.811870	-0.498620	0.675721	-0.017816	0.727401	-0.118199
44102	-9.600250	-1.803787	-0.526076	0.675510	-0.017949	0.727582	-0.118272
44103	-9.499585	-1.804440	-0.486549	0.675248	-0.017985	0.727785	-0.118516
44104	-9.532085	-1.817866	-0.484951	0.674906	-0.017981	0.728034	-0.118932
44105	-9.577854	-1.740146	-0.573471	0.674545	-0.018017	0.728292	-0.119398
44106	-9.607369	-1.670787	-0.631110	0.674160	-0.018235	0.728576	-0.119804
44107	-9.611684	-1.671674	-0.681572	0.673781	-0.018463	0.728839	-0.120300
44108	-9.608749	-1.704692	-0.809029	0.673483	-0.018851	0.729020	-0.120812
44109	-9.557694	-1.727531	-0.833850	0.673216	-0.019317	0.729153	-0.121422
44110	-9.548785	-1.741693	-0.812383	0.672982	-0.019499	0.729197	-0.122424
44111	-9.547622	-1.716873	-0.729090	0.672764	-0.019653	0.729195	-0.123600
44112	-9.619282	-1.808727	-0.673054	0.672526	-0.019850	0.729199	-0.124831
44113	-9.707300	-1.940131	-0.696337	0.672297	-0.019966	0.729143	-0.126364
44114	-9.732652	-1.972959	-0.721262	0.672085	-0.019796	0.728996	-0.128354
44115	-9.722749	-1.921006	-0.541420	0.671859	-0.019583	0.728823	-0.130532
44116	-9.632202	-1.976878	-0.354463	0.671615	-0.019442	0.728645	-0.132784
44117	-9.707977	-2.002448	-0.167407	0.671297	-0.019304	0.728514	-0.135115
44118	-9.737324	-1.945181	-0.140321	0.670834	-0.019292	0.728506	-0.137432
44119	-9.611640	-2.029480	-0.130684	0.670240	-0.019233	0.728609	-0.139775
44120	-9.509376	-1.991804	-0.138553	0.669486	-0.019017	0.728820	-0.142295
44121	-9.291003	-2.140132	-0.243899	0.668583	-0.018839	0.729161	-0.144799
44122	-9.194584	-2.363845	-0.314460	0.667558	-0.018232	0.729550	-0.147614
44123	-9.397155	-2.311693	-1.150700	0.666515	-0.017708	0.729974	-0.150277
44124	-9.470756	-2.026245	-0.780322	0.665505	-0.016961	0.730278	-0.153326
44125	-9.448790	-4.727763	-1.840423	0.665022	-0.016755	0.730415	-0.154788
44126	-10.563043	-3.827429	-2.266369	0.665075	-0.013193	0.729453	-0.159371
44127	-11.435775	-1.296959	-1.185159	0.665498	-0.010787	0.728142	-0.163722
44128	-10.259425	-1.570556	-0.063154	0.666291	-0.011910	0.727174	-0.164720
44129	-9.228471	-3.782779	0.369313	0.666782	-0.012405	0.726340	-0.166368
44130	-8.838541	-3.234975	0.605773	0.666827	-0.010520	0.725412	-0.170321
44131	-8.975746	-1.737141	0.433141	0.666504	-0.009157	0.724945	-0.173618
44132	-8.967460	-1.756316	-0.408896	0.665957	-0.009628	0.725030	-0.175329
44133	-8.825481	-2.234197	-1.278962	0.665445	-0.010470	0.725135	-0.176783
44134	-8.897702	-2.318250	-1.777878	0.665196	-0.010645	0.724926	-0.178559
44135	-9.125046	-2.600877	-1.618262	0.665296	-0.009935	0.724305	-0.180732
44136	-9.200463	-2.805956	-1.229608	0.665709	-0.009000	0.723357	-0.183043
44137	-9.331465	-3.218830	-0.911594	0.666254	-0.007670	0.722240	-0.185516
44138	-9.350996	-3.230791	-0.620954	0.666881	-0.005334	0.720850	-0.188724
44139	-9.631496	-2.765071	-0.052823	0.667543	-0.002224	0.719414	-0.191900
44140	-9.394094	-2.427383	0.211784	0.668630	0.000563	0.717756	-0.194317
44141	-8.939404	-2.450206	0.014973	0.669740	0.003339	0.716154	-0.196368
44142	-8.523251	-2.104044	-0.311465	0.669861	0.008838	0.714999	-0.199962
44143	-8.401781	-0.953451	-0.324417	0.668468	0.016976	0.714967	-0.204167
44144	-8.384728	-0.714232	-0.858156	0.665282	0.027439	0.716413	-0.208324
44145	-8.581701	-0.123286	-1.262970	0.659965	0.041354	0.719045	-0.213802
44146	-9.679128	2.315814	-0.396932	0.653747	0.054568	0.722684	-0.217634
44147	-9.700315	2.171490	-0.644677	0.647749	0.062638	0.728104	-0.215319
44148	-10.464140	-0.753253	0.794875	0.643328	0.067337	0.733400	-0.209092
44149	-10.347543	-7.641965	-1.222918	0.641274	0.072335	0.736007	-0.204521
44150	-10.775675	-11.105769	-0.060864	0.641139	0.085923	0.732610	-0.211755
44151	-10.678060	-10.323661	0.795447	0.640317	0.105161	0.725070	-0.230670
44152	-9.792691	-2.097711	0.742159	0.637545	0.119593	0.719648	-0.247671
44153	-8.686200	2.895490	3.526531	0.637958	0.113285	0.722098	-0.242385
44154	-7.950336	-1.573179	-2.692613	0.640922	0.094992	0.728519	-0.222385
44155	-8.890189	-7.119977	-4.198087	0.643691	0.081178	0.733101	-0.204045
44156	-10.582789	-7.765596	-4.133364	0.644448	0.084273	0.732124	-0.203909
44157	-9.871103	0.300390	-1.526707	0.643725	0.095742	0.728186	-0.214934
44158	-10.342442	3.272772	-0.331531	0.643781	0.104616	0.724533	-0.222831
44159	-9.318153	1.457973	-0.048382	0.645738	0.103483	0.723872	-0.219822
44160	-9.415708	-2.752463	-0.871274	0.648106	0.099413	0.724008	-0.214215
44161	-9.717121	-4.204422	-1.199606	0.650001	0.097511	0.723535	-0.210923
44162	-9.602510	-3.101366	-0.562819	0.651411	0.098813	0.722130	-0.210779
44163	-9.639795	-1.261881	-0.178950	0.652893	0.100518	0.720601	-0.210621
44164	-9.760007	-1.091712	-0.171618	0.654622	0.100508	0.719605	-0.208656
44165	-9.698622	-1.546107	-0.579816	0.656321	0.099766	0.718855	-0.206244
44166	-9.774007	-1.909923	-1.004880	0.657800	0.099938	0.717850	-0.204946
44167	-9.759150	-1.707070	-1.312316	0.659067	0.101977	0.716228	-0.205545
44168	-9.555572	-1.470359	-1.246065	0.660392	0.104804	0.714175	-0.207007
44169	-9.513975	-1.166529	-0.898173	0.662038	0.107155	0.711952	-0.208201
44170	-9.635447	-1.018870	-0.673521	0.664193	0.107524	0.710069	-0.207579
44171	-9.896386	-1.554243	-0.679428	0.666726	0.106726	0.708303	-0.205897
44172	-9.841151	-1.838960	-0.812286	0.669275	0.106797	0.706116	-0.205097
44173	-9.720539	-1.398417	-0.663594	0.671708	0.107814	0.703599	-0.205261
44174	-9.786447	-0.967021	-0.460276	0.674146	0.108932	0.700958	-0.205715
44175	-9.775137	-1.164743	-0.399295	0.676616	0.109790	0.698295	-0.206205
44176	-9.886899	-1.552278	-0.194505	0.679031	0.111106	0.695420	-0.207275
44177	-9.648438	-1.744606	0.114551	0.681171	0.113384	0.692348	-0.209296
44178	-9.410517	-1.370964	0.754150	0.683074	0.116340	0.689200	-0.211844
44179	-9.380179	-0.982843	1.283158	0.684834	0.118820	0.686447	-0.213717
44180	-9.310881	-0.925934	1.550188	0.686369	0.120410	0.684318	-0.214725
44181	-9.358375	-1.037829	1.672846	0.687554	0.121958	0.682601	-0.215528
44182	-9.625285	-0.536725	1.903443	0.688452	0.123503	0.681193	-0.216234
44183	-9.673468	-0.610928	1.457147	0.689316	0.124016	0.680351	-0.215841
44184	-9.655208	-1.182465	1.086955	0.689937	0.124332	0.679831	-0.215309
44185	-9.721923	-1.153765	0.913258	0.690429	0.124804	0.679389	-0.214854
44186	-9.646613	-1.108884	0.710701	0.690886	0.124999	0.679150	-0.214027
44187	-9.655088	-1.126225	0.529762	0.691240	0.125126	0.679029	-0.213192
44188	-9.676249	-1.062670	0.395466	0.691577	0.125423	0.678838	-0.212530
44189	-9.616861	-1.005817	0.361395	0.691911	0.125797	0.678620	-0.211917
44190	-9.678328	-0.838308	0.323925	0.692287	0.126033	0.678386	-0.211297
44191	-9.813177	-0.894777	0.354170	0.692694	0.126067	0.678182	-0.210595
44192	-9.923950	-0.901051	0.300205	0.693208	0.125983	0.677847	-0.210036
44193	-9.831085	-0.903719	0.196631	0.693727	0.125897	0.677478	-0.209562
44194	-9.783688	-1.019767	0.308523	0.694268	0.126004	0.676954	-0.209399
44195	-9.729805	-1.002071	0.490318	0.694804	0.126013	0.676425	-0.209324
44196	-9.740831	-0.959426	0.618147	0.695349	0.126128	0.675824	-0.209385
44197	-9.826200	-0.826371	0.726452	0.695899	0.126123	0.675264	-0.209370
44198	-9.743510	-0.799358	0.741081	0.696542	0.125632	0.674777	-0.209097
44199	-9.671831	-1.122239	0.581640	0.697145	0.125211	0.674307	-0.208857
44200	-9.683448	-1.016914	0.711435	0.697620	0.125068	0.673836	-0.208875
44201	-9.703427	-0.928173	0.764117	0.698114	0.124832	0.673383	-0.208828
44202	-9.666755	-0.923158	0.837756	0.698623	0.124366	0.673037	-0.208518
44203	-9.665411	-0.986891	0.824684	0.699084	0.123733	0.672806	-0.208095
44204	-9.686028	-1.103720	0.695140	0.699475	0.123269	0.672574	-0.207805
44205	-9.691600	-1.076089	0.655981	0.699809	0.123049	0.672293	-0.207722
44206	-9.722484	-1.103289	0.628166	0.700090	0.122882	0.672049	-0.207663
44207	-9.740072	-1.012448	0.750134	0.700332	0.122758	0.671815	-0.207676
44208	-9.706318	-1.000066	0.778644	0.700614	0.122509	0.671598	-0.207577
44209	-9.697110	-1.117462	0.760675	0.700811	0.122295	0.671441	-0.207544
44210	-9.640609	-1.074072	0.833891	0.700997	0.122251	0.671247	-0.207569
44211	-9.692235	-1.065832	0.853827	0.701172	0.122140	0.671106	-0.207502
44212	-9.692729	-1.094670	0.734248	0.701350	0.121904	0.671046	-0.207233
44213	-9.717619	-1.046054	0.727129	0.701537	0.121644	0.670988	-0.206939
44214	-9.705329	-1.089047	0.656023	0.701761	0.121325	0.670930	-0.206555
44215	-9.687485	-1.073818	0.723261	0.701952	0.121105	0.670868	-0.206235
44216	-9.692976	-0.963057	0.790504	0.702155	0.120718	0.670858	-0.205805
44217	-9.691241	-1.091305	0.764972	0.702348	0.120359	0.670867	-0.205326
44218	-9.706255	-1.110900	0.741566	0.702507	0.120100	0.670846	-0.205002
44219	-9.705009	-1.049784	0.786387	0.702633	0.119891	0.670861	-0.204643
44220	-9.693439	-1.017397	0.770671	0.702777	0.119523	0.670933	-0.204126
44221	-9.725393	-1.032284	0.769279	0.702917	0.119091	0.671034	-0.203565
44222	-9.713618	-1.011295	0.718900	0.703067	0.118719	0.671114	-0.202999
44223	-9.713707	-1.019942	0.684357	0.703200	0.118444	0.671135	-0.202629
44224	-9.667480	-1.031412	0.719918	0.703266	0.118318	0.671179	-0.202328
44225	-9.684778	-1.013343	0.776983	0.703321	0.118233	0.671217	-0.202061
44226	-9.714826	-0.928550	0.775155	0.703454	0.117823	0.671292	-0.201586
44227	-9.709811	-0.983372	0.697561	0.703575	0.117272	0.671467	-0.200901
44228	-9.716709	-0.995376	0.693832	0.703744	0.116696	0.671582	-0.200260
44229	-9.691806	-1.063734	0.632773	0.703844	0.116339	0.671672	-0.199817
44230	-9.743516	-1.003155	0.638663	0.703942	0.116137	0.671674	-0.199581
44231	-9.723469	-0.963674	0.645609	0.704054	0.115936	0.671670	-0.199311
44232	-9.705624	-1.086277	0.627496	0.704151	0.115714	0.671678	-0.199073
44233	-9.715982	-1.047239	0.722790	0.704231	0.115548	0.671684	-0.198870
44234	-9.699479	-1.029773	0.768578	0.704310	0.115355	0.671692	-0.198671
44235	-9.726135	-0.945113	0.843644	0.704418	0.115115	0.671678	-0.198476
44236	-9.687449	-0.926359	0.813434	0.704578	0.114664	0.671687	-0.198137
44237	-9.712660	-1.076319	0.695709	0.704660	0.114340	0.671734	-0.197876
44238	-9.742441	-1.056508	0.670546	0.704700	0.114244	0.671717	-0.197843
44239	-9.753881	-1.045437	0.642438	0.704730	0.114259	0.671669	-0.197891
44240	-9.720365	-1.043963	0.630317	0.704747	0.114275	0.671632	-0.197948
44241	-9.704009	-1.079479	0.686092	0.704805	0.114336	0.671529	-0.198054
44242	-9.725588	-1.040089	0.719549	0.704870	0.114363	0.671446	-0.198090
44243	-9.738823	-0.992601	0.775843	0.704995	0.114132	0.671404	-0.197923
44244	-9.726976	-1.025014	0.737396	0.705102	0.113850	0.671394	-0.197736
44245	-9.705256	-1.053957	0.741541	0.705202	0.113620	0.671372	-0.197586
44246	-9.688362	-1.058353	0.719757	0.705242	0.113640	0.671295	-0.197694
44247	-9.684801	-1.015246	0.752566	0.705271	0.113834	0.671172	-0.197898
44248	-9.741854	-1.097145	0.729174	0.705274	0.113997	0.671089	-0.198073
44249	-9.718421	-1.067200	0.778441	0.705303	0.114121	0.670987	-0.198242
44250	-9.713473	-1.111373	0.737626	0.705343	0.114202	0.670894	-0.198369
44251	-9.704802	-1.050409	0.752441	0.705394	0.114243	0.670811	-0.198446
44252	-9.689428	-0.966088	0.803868	0.705449	0.114270	0.670741	-0.198470
44253	-9.698037	-1.045860	0.723538	0.705504	0.114341	0.670662	-0.198500
44254	-9.679797	-1.032668	0.790016	0.705546	0.114464	0.670562	-0.198619
44255	-9.671545	-1.033228	0.779058	0.705511	0.114720	0.670510	-0.198770
44256	-9.676863	-1.048971	0.796850	0.705494	0.114845	0.670488	-0.198833
44257	-9.714019	-1.102023	0.744439	0.705480	0.114960	0.670473	-0.198870
44258	-9.721926	-0.983455	0.771486	0.705545	0.115027	0.670394	-0.198866
44259	-9.702495	-1.078643	0.694994	0.705590	0.114995	0.670389	-0.198740
44260	-9.704287	-1.061684	0.709523	0.705636	0.114998	0.670361	-0.198668
44261	-9.716072	-1.026902	0.750240	0.705663	0.115122	0.670311	-0.198674
44262	-9.721100	-0.979188	0.793142	0.705705	0.115223	0.670262	-0.198625
44263	-9.695124	-1.029174	0.821658	0.705732	0.115257	0.670271	-0.198481
