// Start Time: Unknown
// Update Rate: 60.0Hz
// Filter Profile: human (46.1)
// Option Flags: AHS Disabled ICC Disabled 
// Firmware Version: 4.3.5
PacketCounter	Acc_X	Acc_Y	Acc_Z	Quat_q0	Quat_q1	Quat_q2	Quat_q3
40913	-1.756740	-1.880975	9.045991	0.768494	-0.130356	-0.018109	0.626176
40914	-1.581470	-1.961086	8.660436	0.767947	-0.131339	-0.020407	0.626571
40915	-1.352021	-2.145966	8.442614	0.767195	-0.132972	-0.022644	0.627071
40916	-1.047214	-2.402397	8.651334	0.766298	-0.135108	-0.023613	0.627675
40917	-0.961232	-2.690730	9.137139	0.765470	-0.137572	-0.022710	0.628183
40918	-1.176614	-2.769319	9.836012	0.764714	-0.139681	-0.020117	0.628726
40919	-1.461109	-2.422925	10.517980	0.763991	-0.141344	-0.017045	0.629324
40920	-1.697818	-2.084263	10.781508	0.763303	-0.142510	-0.015148	0.629944
40921	-1.669539	-2.135967	10.689275	0.762529	-0.143212	-0.014986	0.630726
40922	-1.564540	-2.285384	10.427226	0.761805	-0.143715	-0.015841	0.631465
40923	-1.484995	-2.558450	10.169984	0.761114	-0.143791	-0.016923	0.632253
40924	-1.382413	-2.641760	9.962799	0.760366	-0.143624	-0.017701	0.633169
40925	-1.429686	-2.852666	9.920938	0.759524	-0.143270	-0.018086	0.634248
40926	-1.440568	-2.752800	9.912503	0.758681	-0.142851	-0.018340	0.635342
40927	-1.475082	-2.870752	9.904271	0.757960	-0.142431	-0.018719	0.636286
40928	-1.467302	-2.908252	9.837826	0.757460	-0.141916	-0.019123	0.636984
40929	-1.415121	-2.808351	9.763621	0.757282	-0.141708	-0.019626	0.637227
40930	-1.460562	-2.715390	9.666750	0.757268	-0.141979	-0.020315	0.637161
40931	-1.498691	-2.800728	9.619146	0.757287	-0.142122	-0.021078	0.637081
40932	-1.545275	-2.849117	9.603118	0.757427	-0.141239	-0.021579	0.637095
40933	-1.490934	-2.625250	9.687088	0.757653	-0.139225	-0.021812	0.637262
40934	-1.377967	-2.094200	9.537630	0.757816	-0.136974	-0.022449	0.637534
40935	-1.263061	-1.944529	9.326664	0.757842	-0.135621	-0.024000	0.637735
40936	-1.195642	-2.062259	9.191229	0.757775	-0.135260	-0.025842	0.637820
40937	-1.224920	-2.324622	9.138019	0.757770	-0.135504	-0.027450	0.637707
40938	-1.272928	-2.569336	9.172385	0.757894	-0.135491	-0.028278	0.637525
40939	-1.288869	-2.264619	9.227921	0.758206	-0.134962	-0.028593	0.637254
40940	-1.397855	-2.149734	9.278104	0.758429	-0.134001	-0.029100	0.637167
40941	-1.304730	-2.068009	9.340171	0.758367	-0.132647	-0.029729	0.637496
40942	-1.274612	-2.076424	9.214424	0.758055	-0.131301	-0.030552	0.638106
40943	-1.184975	-1.939373	9.016171	0.757638	-0.130187	-0.031681	0.638774
40944	-1.076705	-1.925235	8.870895	0.757438	-0.129849	-0.033256	0.639000
40945	-1.085027	-2.255394	8.868362	0.757359	-0.130112	-0.034752	0.638960
40946	-1.132592	-2.313144	9.028706	0.757378	-0.130303	-0.035484	0.638859
40947	-1.114809	-2.159811	9.321469	0.757439	-0.129816	-0.035720	0.638872
40948	-1.008543	-2.039162	9.521736	0.757433	-0.128692	-0.035630	0.639113
40949	-1.000664	-1.876418	9.480312	0.757192	-0.127395	-0.035272	0.639677
40950	-1.040033	-1.915257	9.349204	0.756820	-0.126857	-0.035216	0.640227
40951	-1.055834	-2.217608	9.360641	0.756560	-0.127292	-0.035437	0.640435
40952	-1.214717	-2.480551	9.487132	0.756456	-0.127954	-0.035368	0.640430
40953	-1.233053	-2.469564	9.695796	0.756560	-0.127686	-0.035133	0.640374
40954	-1.209226	-2.241999	9.777144	0.756894	-0.125961	-0.035004	0.640328
40955	-1.026989	-1.901366	9.543493	0.757110	-0.123798	-0.034891	0.640501
40956	-0.759496	-1.774369	9.364218	0.757126	-0.122839	-0.035011	0.640660
40957	-0.751107	-1.878370	9.377780	0.756983	-0.123571	-0.035072	0.640685
40958	-0.990112	-2.230720	9.767621	0.756759	-0.124596	-0.035046	0.640752
40959	-1.108084	-2.274607	9.951929	0.756524	-0.124441	-0.034759	0.641076
40960	-1.185665	-2.126935	9.813435	0.756242	-0.123794	-0.034661	0.641538
40961	-1.162080	-2.378788	9.700867	0.755863	-0.122888	-0.034813	0.642151
40962	-1.063108	-2.455320	9.508638	0.755636	-0.122206	-0.035082	0.642533
40963	-0.976168	-2.275457	9.309060	0.755634	-0.122289	-0.035431	0.642501
40964	-0.918910	-2.215759	9.152762	0.755722	-0.123308	-0.036055	0.642167
40965	-1.059065	-2.659621	9.149268	0.755735	-0.124259	-0.036375	0.641952
40966	-1.084791	-2.751687	9.116212	0.755853	-0.124297	-0.035792	0.641837
40967	-1.198635	-2.525929	9.166506	0.756037	-0.123929	-0.034796	0.641747
40968	-1.144914	-2.394297	9.308849	0.756336	-0.123701	-0.034310	0.641465
40969	-1.156685	-2.148096	9.294334	0.756743	-0.123654	-0.034566	0.640980
40970	-1.173902	-2.055890	8.955878	0.757176	-0.123708	-0.035409	0.640411
40971	-1.220319	-2.172159	8.634024	0.757609	-0.123788	-0.036265	0.639836
40972	-1.228673	-2.252994	8.272514	0.758242	-0.123681	-0.036381	0.639099
40973	-1.351090	-2.050798	8.220508	0.758968	-0.123659	-0.035708	0.638280
40974	-1.534616	-1.920255	8.110703	0.759582	-0.123845	-0.034650	0.637571
40975	-1.764527	-2.064660	7.772576	0.760098	-0.124401	-0.033576	0.636905
40976	-2.380336	-2.576304	7.255597	0.760825	-0.124733	-0.032328	0.636036
40977	-2.076976	-2.408526	7.053244	0.762204	-0.124422	-0.030272	0.634546
40978	-1.641159	-2.116487	6.623949	0.764533	-0.124195	-0.026848	0.631937
40979	-1.567583	-1.910258	5.926884	0.767349	-0.124265	-0.021507	0.628706
40980	-1.976981	-2.059335	5.086130	0.770296	-0.124584	-0.013939	0.625243
40981	-3.076132	-2.190395	3.991315	0.773121	-0.124561	-0.004695	0.621890
40982	-1.905526	-1.581566	4.053440	0.775675	-0.125961	0.007160	0.618394
40983	-2.456957	-1.564866	4.263321	0.777711	-0.130588	0.022804	0.614486
40984	-3.655869	-1.809587	3.922548	0.779120	-0.137168	0.039762	0.610390
40985	-5.461148	-2.273914	2.954090	0.780418	-0.143956	0.054890	0.605980
40986	-5.535827	-2.431213	2.238503	0.782676	-0.150357	0.065125	0.600474
40987	-1.970214	-2.919813	3.927463	0.786091	-0.160765	0.076352	0.591934
40988	-3.699735	-4.147672	4.715851	0.791120	-0.174349	0.091289	0.579135
40989	-6.065114	-4.195389	4.513954	0.797618	-0.187886	0.106427	0.563185
40990	-8.894956	-3.069649	3.337819	0.804573	-0.200867	0.117971	0.546258
40991	-7.841639	-2.807933	3.340726	0.809754	-0.217453	0.123891	0.530720
40992	-5.914102	-5.579611	5.044876	0.812294	-0.240166	0.132986	0.514600
40993	-7.569733	-7.026039	5.440861	0.813838	-0.262509	0.147169	0.497090
40994	-9.237991	-6.871133	4.633308	0.815724	-0.282299	0.162140	0.478134
40995	-10.912030	-5.310257	3.310750	0.818107	-0.302052	0.171193	0.458430
40996	-11.326320	-3.709665	1.873945	0.818433	-0.328094	0.172068	0.439220
40997	-9.034971	-5.592956	2.103157	0.813215	-0.364714	0.170786	0.420116
40998	-8.761155	-8.970452	2.849460	0.803040	-0.405467	0.176592	0.399421
40999	-9.721382	-10.993275	3.100724	0.791670	-0.441097	0.191463	0.376874
41000	-10.959585	-11.481718	2.908248	0.783092	-0.467620	0.209617	0.352363
41001	-12.993824	-9.786435	2.169982	0.778613	-0.487750	0.222597	0.326058
41002	-14.055224	-8.094385	1.291965	0.772993	-0.509034	0.228368	0.302017
41003	-12.475430	-10.097181	1.243335	0.761678	-0.534617	0.233187	0.282234
41004	-10.609592	-14.061011	2.238523	0.746872	-0.559523	0.246503	0.261442
41005	-10.615409	-17.291406	3.129903	0.734412	-0.576423	0.270324	0.235163
41006	-11.942096	-17.402143	3.328261	0.729710	-0.581010	0.297782	0.203166
41007	-13.238296	-14.464967	3.871865	0.730483	-0.579924	0.319041	0.168213
41008	-13.341260	-12.310837	5.173798	0.729020	-0.584189	0.330680	0.133803
41009	-11.442982	-12.818216	6.373554	0.720330	-0.596548	0.338606	0.102956
41010	-10.286579	-14.689468	6.862995	0.708037	-0.610545	0.347263	0.072980
41011	-9.347676	-15.234141	6.510740	0.696509	-0.621907	0.355644	0.040307
41012	-9.824840	-14.951631	6.078478	0.688159	-0.629510	0.360746	0.004078
41013	-10.039420	-13.924932	6.119707	0.682785	-0.633645	0.362104	-0.034334
41014	-9.600321	-12.793210	6.345461	0.678340	-0.635169	0.362033	-0.073129
41015	-9.286941	-11.789401	6.358813	0.672333	-0.635792	0.362236	-0.111899
41016	-8.979420	-11.285143	6.319152	0.663623	-0.636514	0.363363	-0.149742
41017	-8.766962	-11.406319	6.337362	0.654044	-0.636147	0.364204	-0.186816
41018	-8.601143	-11.317440	6.514424	0.646925	-0.632919	0.362008	-0.223275
41019	-7.686125	-9.998736	6.314165	0.643972	-0.626847	0.354730	-0.257933
41020	-5.970106	-7.685539	5.816907	0.642796	-0.620542	0.343897	-0.288922
41021	-4.401324	-6.562565	5.525148	0.641175	-0.615596	0.333294	-0.314406
41022	-3.163374	-6.961841	5.411513	0.638698	-0.611286	0.325095	-0.335720
41023	-2.723398	-8.314516	5.314767	0.636494	-0.606567	0.317291	-0.355356
41024	-2.555788	-9.029381	4.719919	0.636521	-0.600311	0.307019	-0.374441
41025	-1.968940	-8.857653	3.936825	0.637396	-0.594414	0.293392	-0.392835
41026	-1.122842	-8.061528	3.154765	0.637369	-0.590699	0.275779	-0.410831
41027	-0.194010	-7.507688	2.691588	0.636759	-0.588599	0.256808	-0.426778
41028	1.395065	-7.161474	2.624079	0.637073	-0.586061	0.238487	-0.440221
41029	2.087416	-6.326357	2.540181	0.637939	-0.582028	0.220889	-0.453305
41030	2.283092	-4.579000	2.315126	0.638947	-0.576913	0.204608	-0.465890
41031	2.199844	-3.745369	1.850221	0.638896	-0.571799	0.191287	-0.477773
41032	1.990449	-4.486907	1.542618	0.636785	-0.567810	0.179457	-0.489787
41033	2.064398	-5.479988	1.804121	0.632823	-0.564237	0.167585	-0.503078
41034	1.398216	-6.300467	2.129153	0.629052	-0.559650	0.155736	-0.516558
41035	1.502297	-6.195210	2.327897	0.627088	-0.554239	0.144747	-0.527853
41036	1.936486	-6.234402	2.409855	0.626822	-0.548903	0.135935	-0.536024
41037	2.430096	-5.999915	2.278412	0.627023	-0.544243	0.129651	-0.542063
41038	2.906455	-6.193714	2.395695	0.625050	-0.541216	0.123970	-0.548662
41039	3.627957	-6.280176	2.522181	0.620628	-0.539826	0.118534	-0.556201
41040	4.747005	-6.247703	2.647181	0.614997	-0.538954	0.116051	-0.563773
41041	4.822633	-7.378568	2.739053	0.610299	-0.536646	0.118484	-0.570532
41042	3.907264	-9.453573	3.013332	0.609078	-0.531366	0.124764	-0.575421
41043	2.945442	-11.707437	3.130030	0.610962	-0.523368	0.130879	-0.579381
41044	2.383154	-13.286230	3.168162	0.614136	-0.513790	0.132613	-0.584183
41045	2.217203	-12.629550	3.201110	0.617107	-0.504162	0.130154	-0.589966
41046	2.243976	-11.044852	3.208323	0.619103	-0.496788	0.127878	-0.594609
41047	2.604555	-9.996966	2.991231	0.619663	-0.493264	0.129272	-0.596655
41048	2.908196	-9.922672	2.499795	0.617903	-0.493557	0.133860	-0.597226
41049	2.876702	-10.944103	2.380958	0.615060	-0.495249	0.139199	-0.597540
41050	2.546592	-11.621887	2.582390	0.613618	-0.494999	0.140699	-0.598876
41051	2.706715	-10.062230	2.718730	0.614519	-0.491456	0.136051	-0.601936
41052	3.455468	-7.220796	2.807153	0.617209	-0.485784	0.129313	-0.605264
41053	4.412125	-4.728551	3.060822	0.620073	-0.479888	0.125383	-0.607862
41054	5.358560	-3.919203	3.408736	0.622199	-0.474769	0.126641	-0.609446
41055	5.978340	-3.726285	4.379217	0.623230	-0.469408	0.130889	-0.611644
41056	6.590552	-3.917074	5.942704	0.626693	-0.461877	0.135402	-0.612855
41057	7.680230	-4.486852	7.610980	0.634579	-0.449327	0.137738	-0.613549
41058	8.775206	-4.034000	8.659643	0.648518	-0.429542	0.135492	-0.613645
41059	10.699243	-3.732427	9.569180	0.668622	-0.400193	0.129232	-0.613261
41060	12.397005	-0.888240	10.666792	0.693858	-0.358119	0.121589	-0.612803
41061	13.097094	5.104769	11.500160	0.720104	-0.304897	0.119876	-0.611652
41062	12.050249	10.386174	12.021016	0.743109	-0.248862	0.132241	-0.606934
41063	9.804418	10.594648	12.587017	0.763057	-0.198900	0.155429	-0.594999
41064	7.346616	5.999594	12.991299	0.783451	-0.156331	0.176826	-0.574889
41065	5.218597	3.199800	13.548023	0.807155	-0.116777	0.184451	-0.548490
41066	2.472128	2.876320	12.885118	0.832342	-0.075905	0.175531	-0.520226
41067	-0.863307	4.450400	10.410684	0.855746	-0.033422	0.153122	-0.493088
41068	-5.647018	5.394181	6.767552	0.875182	0.004450	0.120814	-0.468446
41069	-11.450510	3.387045	2.212940	0.890094	0.037280	0.079235	-0.447287
41070	-14.868407	3.487082	0.540927	0.899773	0.066810	0.039864	-0.429367
41071	-18.698197	3.542223	4.193048	0.905129	0.091668	0.023512	-0.414469
41072	-25.155737	1.169314	10.524769	0.910353	0.115584	0.036762	-0.395658
41073	-30.966744	-2.504069	14.445965	0.918894	0.141147	0.062660	-0.363021
41074	-29.771233	-8.686347	10.877354	0.931881	0.151685	0.075211	-0.320831
41075	-23.953156	-17.129988	4.546377	0.944613	0.139232	0.066975	-0.289542
41076	-19.550726	-16.966994	1.776565	0.945657	0.104077	0.052900	-0.303484
41077	-22.597219	-5.977187	2.892495	0.931982	0.046564	0.047920	-0.356294
41078	-26.870683	-6.163282	7.031285	0.909879	-0.020829	0.054468	-0.410755
41079	-29.503692	-11.648962	9.887583	0.882782	-0.069465	0.057203	-0.461084
41080	-26.018847	-10.465054	9.667150	0.855030	-0.095525	0.043356	-0.507858
41081	-18.721456	-2.199261	8.465914	0.828508	-0.125737	0.029596	-0.544875
41082	-13.357570	0.742271	7.170723	0.797318	-0.182634	0.037179	-0.574061
41083	-7.325697	-2.305340	4.560333	0.756858	-0.260419	0.062495	-0.596189
41084	-1.372290	-3.546225	2.187351	0.706626	-0.342543	0.091646	-0.612328
41085	3.379840	-2.977950	0.414475	0.650023	-0.419845	0.113302	-0.623188
41086	8.204131	-0.790441	-1.535662	0.591670	-0.489247	0.122223	-0.628988
41087	13.520774	0.285235	0.928462	0.538058	-0.545445	0.121924	-0.630966
41088	16.446247	-2.291048	5.588316	0.501463	-0.579629	0.116643	-0.631632
41089	19.756345	0.896287	8.204383	0.490782	-0.593100	0.105700	-0.629438
41090	22.853119	6.494214	9.206301	0.495374	-0.596458	0.093856	-0.624526
41091	23.751084	6.937862	10.800734	0.503292	-0.598205	0.086485	-0.617550
41092	21.632914	3.309482	11.282486	0.513053	-0.600292	0.077155	-0.608666
41093	19.356933	1.396583	9.334041	0.524713	-0.604110	0.057550	-0.597006
41094	18.333377	1.339423	6.572881	0.538589	-0.607870	0.027425	-0.582807
41095	19.118901	3.811551	5.201074	0.552554	-0.608298	-0.003537	-0.569776
41096	19.265872	5.908232	5.543217	0.560749	-0.606130	-0.022908	-0.563597
41097	17.619263	3.455164	6.632378	0.561795	-0.604685	-0.028614	-0.563846
41098	16.504276	-0.809653	7.297663	0.559146	-0.604344	-0.029407	-0.566797
41099	16.666989	-2.368325	7.381060	0.556299	-0.603494	-0.030972	-0.570409
41100	19.082266	-0.682990	6.356862	0.552713	-0.601446	-0.031724	-0.575991
41101	20.962095	0.277208	5.065786	0.544992	-0.598636	-0.026450	-0.586446
41102	21.538676	-0.410534	4.622379	0.534286	-0.593710	-0.013705	-0.601548
41103	21.385551	-1.314889	4.818668	0.524929	-0.583400	0.004233	-0.619739
41104	21.196054	-1.595668	6.256615	0.523177	-0.564720	0.023972	-0.637811
41105	20.632034	-1.896940	7.425146	0.531040	-0.536220	0.041771	-0.654767
41106	17.935154	0.186914	8.517083	0.546271	-0.497605	0.054598	-0.671563
41107	14.566963	4.646077	8.225333	0.561868	-0.456959	0.068811	-0.686118
41108	10.911403	8.855090	6.789984	0.571003	-0.428357	0.090847	-0.694415
41109	8.057734	6.096346	5.578886	0.575668	-0.418374	0.113917	-0.693248
41110	3.958958	0.003564	5.496362	0.589248	-0.414872	0.118144	-0.683162
41111	0.674462	-4.006328	3.552618	0.625808	-0.401354	0.093034	-0.662287
41112	2.954310	-3.651543	-0.561457	0.683955	-0.362088	0.048726	-0.631445
41113	3.799270	2.604876	-2.945908	0.750993	-0.289291	0.007370	-0.593520
41114	-6.312804	9.533589	-3.239666	0.810148	-0.198927	-0.015615	-0.551221
41115	-21.399119	7.739424	0.544722	0.850178	-0.118567	-0.020580	-0.512558
41116	-37.018974	1.987708	6.967329	0.874050	-0.063141	-0.023029	-0.481165
41117	-41.643278	-8.678866	12.396139	0.893293	-0.026175	-0.022981	-0.448122
41118	-35.241946	-17.128536	17.576840	0.914168	0.008051	-0.006335	-0.405205
41119	-26.294850	-23.571426	14.534916	0.933056	0.037085	0.015501	-0.357479
41120	-14.982598	-28.152852	10.903576	0.943084	0.046605	0.029033	-0.327990
41121	-8.519486	-28.342596	13.285452	0.941523	0.046384	0.035475	-0.331851
41122	-14.598981	-18.749362	12.301302	0.932732	0.041291	0.026600	-0.357211
41123	-19.429758	-11.870100	10.629803	0.919536	0.027895	0.009399	-0.391901
41124	-21.611486	-5.297611	9.471458	0.902401	0.005552	-0.006701	-0.430809
41125	-20.693730	-1.993879	9.276858	0.880241	-0.026907	-0.009862	-0.473662
41126	-21.369729	-0.470338	9.695494	0.853686	-0.070124	-0.001213	-0.516044
41127	-18.065802	-0.988791	9.855908	0.821629	-0.123162	0.014656	-0.556366
41128	-13.423362	-3.623199	8.627669	0.785507	-0.181932	0.032382	-0.590619
41129	-4.874094	-4.355644	8.989395	0.745985	-0.238964	0.051141	-0.619505
41130	0.875776	-5.186757	12.455162	0.704921	-0.285690	0.078003	-0.644502
41131	0.931373	-5.513657	15.567198	0.662921	-0.320901	0.110308	-0.667376
41132	0.489972	-5.878480	18.645259	0.617241	-0.350181	0.138518	-0.690797
41133	0.104021	-4.040694	19.642038	0.572674	-0.382903	0.153366	-0.708455
41134	1.821329	-3.288573	19.479535	0.531171	-0.420592	0.152157	-0.719589
41135	4.145850	-3.154486	19.671767	0.496745	-0.456982	0.133998	-0.725574
41136	7.708830	-1.826159	18.852307	0.476237	-0.480903	0.101025	-0.729194
41137	10.155771	4.046543	16.637229	0.469165	-0.490874	0.057296	-0.731878
41138	12.136961	14.797092	13.994523	0.463948	-0.495348	0.017287	-0.734223
41139	12.440874	19.018864	13.345064	0.449048	-0.502277	-0.002946	-0.738962
41140	10.696194	13.823944	13.484495	0.428358	-0.510910	-0.006386	-0.745278
41141	9.169510	3.711034	13.823738	0.416092	-0.513902	-0.008377	-0.750135
41142	8.739617	-2.661674	12.241836	0.427176	-0.504702	-0.024093	-0.749810
41143	9.510242	-0.529655	8.966818	0.456878	-0.484383	-0.052304	-0.744245
41144	10.233838	4.781044	6.444355	0.490000	-0.461267	-0.077460	-0.735618
41145	9.553140	4.913718	4.924934	0.513935	-0.445851	-0.088111	-0.727547
41146	8.176774	0.074132	3.905016	0.525362	-0.441628	-0.090141	-0.721688
41147	7.624583	-4.300959	3.337304	0.529611	-0.442502	-0.095575	-0.717335
41148	8.098189	-4.778771	2.731979	0.532792	-0.442016	-0.108270	-0.713465
41149	8.555077	-3.752287	1.987774	0.537259	-0.436982	-0.125454	-0.710395
41150	8.503443	-1.727174	0.963345	0.543155	-0.427490	-0.143862	-0.708194
41151	6.961966	1.121969	0.198944	0.548085	-0.416707	-0.160844	-0.707168
41152	5.432768	4.064235	-0.143345	0.550706	-0.408959	-0.172895	-0.706812
41153	3.832777	4.310006	0.086843	0.549628	-0.407080	-0.178069	-0.707450
41154	2.829040	1.464802	0.299879	0.546046	-0.409262	-0.181572	-0.708075
41155	2.186894	-0.793983	-0.355350	0.541880	-0.411564	-0.190063	-0.707713
41156	1.874399	-0.519413	-1.595106	0.538445	-0.411827	-0.203887	-0.706332
41157	1.218391	1.570422	-2.705287	0.534414	-0.411324	-0.216818	-0.705836
41158	-0.010015	2.913889	-2.938018	0.528793	-0.412986	-0.223358	-0.707059
41159	-1.887613	0.904902	-2.830051	0.523540	-0.418204	-0.223705	-0.707790
41160	-3.270662	-1.987517	-2.118231	0.519771	-0.424736	-0.224503	-0.706425
41161	-3.609918	-2.548902	-1.083046	0.515613	-0.430019	-0.229922	-0.704530
41162	-3.177224	-1.587067	-0.429082	0.509775	-0.435754	-0.235492	-0.703414
41163	-2.768627	-1.003104	-0.139232	0.503836	-0.444000	-0.236641	-0.702149
41164	-1.766244	-1.917322	0.345275	0.499683	-0.453566	-0.233364	-0.700097
41165	0.096951	-3.192223	1.534513	0.499230	-0.461197	-0.229515	-0.696699
41166	2.112904	-2.975528	3.017449	0.501435	-0.465166	-0.228725	-0.692725
41167	4.115617	-2.272286	4.364163	0.504103	-0.467292	-0.230623	-0.688717
41168	5.956440	-1.485071	5.018006	0.506546	-0.469453	-0.232720	-0.684738
41169	7.509035	-1.002820	4.705105	0.507411	-0.473218	-0.233663	-0.681176
41170	9.714256	0.460090	3.511491	0.505313	-0.478648	-0.233061	-0.679145
41171	11.770224	0.462403	2.989427	0.500981	-0.484901	-0.230781	-0.678697
41172	13.426727	-1.490930	3.561459	0.497979	-0.491068	-0.227467	-0.677590
41173	14.482040	-4.031668	4.637332	0.497500	-0.495869	-0.222585	-0.676065
41174	15.461600	-6.008121	5.479690	0.496489	-0.499531	-0.217351	-0.675815
41175	17.657138	-6.771925	5.729814	0.493920	-0.501271	-0.214727	-0.677246
41176	20.074159	-6.146344	5.640206	0.491846	-0.500062	-0.214948	-0.679576
41177	21.545177	-5.952232	6.445746	0.491048	-0.494365	-0.215003	-0.684287
41178	21.500479	-5.784836	8.226486	0.488772	-0.484956	-0.213508	-0.693062
41179	20.433373	-5.377959	10.288369	0.482972	-0.474295	-0.210431	-0.705337
41180	19.641122	-4.762600	11.847959	0.476386	-0.463428	-0.208714	-0.717446
41181	20.100453	-3.333498	12.653768	0.473193	-0.452463	-0.209198	-0.726363
41182	21.027750	-1.795412	12.898085	0.475018	-0.442922	-0.208280	-0.731299
41183	20.881358	-1.720791	13.245258	0.479179	-0.436610	-0.202440	-0.734014
41184	18.164528	-3.060694	15.804344	0.479478	-0.435039	-0.194185	-0.736977
41185	16.673127	-4.289132	16.433835	0.473653	-0.441727	-0.188219	-0.738312
41186	17.665083	-3.279710	14.201243	0.467658	-0.452406	-0.185214	-0.736424
41187	18.950399	-2.266368	12.567433	0.465797	-0.461884	-0.182116	-0.732482
41188	19.536815	-2.956275	11.536251	0.469600	-0.467019	-0.177179	-0.727995
41189	18.285448	-4.730749	11.243781	0.477374	-0.466754	-0.170135	-0.724782
41190	15.419667	-5.348737	10.569119	0.488001	-0.463391	-0.162749	-0.721552
41191	12.234458	-5.500545	9.318255	0.499541	-0.459570	-0.156132	-0.717549
41192	9.678804	-4.343720	7.068208	0.509138	-0.458563	-0.151355	-0.712454
41193	8.514952	-2.927697	4.883205	0.515484	-0.462612	-0.146358	-0.706291
41194	8.196255	-1.868979	3.284570	0.519315	-0.470796	-0.139363	-0.699457
41195	8.027643	-1.781572	2.277770	0.522301	-0.481083	-0.128863	-0.692210
41196	8.130350	-2.936424	1.961514	0.525554	-0.490350	-0.114765	-0.685696
41197	7.804966	-4.788872	1.969828	0.530207	-0.496465	-0.099025	-0.680145
41198	7.516867	-6.578284	2.627723	0.538289	-0.497185	-0.084013	-0.675273
41199	7.370380	-6.779381	3.395396	0.550566	-0.491780	-0.071454	-0.670764
41200	6.095280	-6.202890	4.017121	0.565035	-0.483161	-0.060096	-0.666093
41201	3.941738	-4.955361	4.278733	0.578571	-0.477013	-0.050045	-0.659704
41202	2.698544	-3.207723	4.162224	0.587738	-0.478637	-0.040383	-0.651030
41203	2.161789	-2.185459	3.635570	0.591023	-0.490068	-0.028780	-0.640076
41204	2.708162	-3.148783	2.812616	0.590139	-0.508785	-0.014589	-0.626627
41205	3.195497	-4.550893	2.110288	0.588442	-0.529259	0.000936	-0.611245
41206	3.154524	-4.980318	1.734385	0.589392	-0.547604	0.016015	-0.593709
41207	3.031893	-5.084434	1.570490	0.593546	-0.562442	0.029332	-0.574893
41208	3.089983	-4.585291	1.659986	0.598714	-0.573607	0.039244	-0.557652
41209	3.457924	-3.735106	1.207857	0.600405	-0.582293	0.045558	-0.546236
41210	4.141333	-4.433711	0.801982	0.595647	-0.591017	0.052261	-0.541454
41211	3.580099	-5.461867	1.542137	0.588555	-0.598978	0.061319	-0.539507
41212	2.789798	-7.005569	2.564581	0.584795	-0.603871	0.069279	-0.537172
41213	2.644023	-6.877982	2.740861	0.587129	-0.603917	0.071811	-0.534235
41214	3.433398	-4.594422	2.223318	0.593087	-0.600194	0.069942	-0.532093
41215	4.793392	-2.029468	2.182214	0.597758	-0.594639	0.067477	-0.533420
41216	5.461677	-2.268355	2.787848	0.596835	-0.588797	0.065319	-0.541146
41217	5.115188	-3.196092	4.267728	0.593838	-0.581905	0.061264	-0.552258
41218	5.897347	-2.994269	5.501381	0.594252	-0.573128	0.053261	-0.561739
41219	7.917237	-2.341062	5.954502	0.600330	-0.561019	0.040306	-0.568539
41220	9.982411	-0.424879	5.417206	0.611028	-0.545333	0.023501	-0.573327
41221	11.753852	1.301491	5.189285	0.624287	-0.527315	0.007696	-0.576320
41222	13.689342	2.414161	5.448999	0.639035	-0.507619	-0.003283	-0.577881
41223	15.477494	2.597479	7.239531	0.654082	-0.483553	-0.009248	-0.581608
41224	15.511877	3.051512	10.497571	0.673145	-0.448572	-0.013199	-0.587779
41225	14.443496	5.709578	11.508077	0.702310	-0.399657	-0.020617	-0.588736
41226	13.415224	10.188533	9.360548	0.738116	-0.341274	-0.029916	-0.581224
41227	12.558173	12.686347	6.940087	0.773849	-0.281518	-0.035221	-0.566272
41228	11.165229	11.912258	5.650750	0.805690	-0.224503	-0.034279	-0.547071
41229	8.991371	8.542021	4.345376	0.832962	-0.168162	-0.029902	-0.526309
41230	5.281903	4.066185	3.813003	0.854788	-0.107723	-0.024783	-0.507069
41231	-1.284231	-0.039471	3.050353	0.869879	-0.039851	-0.027341	-0.490891
41232	-9.474214	-0.134041	2.398843	0.875393	0.030866	-0.043849	-0.480428
41233	-22.269415	4.862548	2.703355	0.869665	0.092247	-0.070176	-0.479842
41234	-30.964615	7.257201	8.458374	0.861071	0.127257	-0.079426	-0.485853
41235	-31.961110	-10.840848	15.674367	0.864354	0.135400	-0.046084	-0.482116
41236	-40.355971	-35.008661	19.890269	0.873612	0.136022	0.004559	-0.467203
41237	-46.868354	-29.058860	19.027914	0.874151	0.123520	0.020544	-0.469234
41238	-41.027330	-5.921388	11.559904	0.864470	0.066871	0.005875	-0.498182
41239	-33.780757	5.490862	6.861552	0.846834	-0.032191	-0.008198	-0.530820
41240	-22.931779	3.095810	4.094029	0.819880	-0.142026	-0.007730	-0.554586
41241	-15.351494	-1.899873	1.378509	0.784916	-0.240687	-0.000507	-0.570944
41242	-6.956009	-1.433559	-2.060464	0.740937	-0.329491	-0.000553	-0.585191
41243	2.469429	4.665615	-6.365940	0.685021	-0.420307	-0.002976	-0.595046
41244	12.116518	3.197477	-10.662514	0.618713	-0.509688	0.000558	-0.597839
41245	21.971193	-2.411884	-9.522456	0.558012	-0.576734	0.003239	-0.596649
41246	29.600336	-4.822490	-5.034664	0.525629	-0.607866	-0.003448	-0.595147
41247	32.541150	2.920863	-0.815870	0.523555	-0.610263	-0.015318	-0.594335
41248	30.742981	11.010301	3.389496	0.529371	-0.605156	-0.019337	-0.594289
41249	27.124132	8.894749	6.503350	0.531083	-0.604509	-0.015860	-0.593522
41250	22.527759	3.304198	7.896786	0.528796	-0.608926	-0.019104	-0.590947
41251	19.307235	-0.208540	6.805616	0.527967	-0.615416	-0.037070	-0.584072
41252	18.012795	-1.769066	4.640476	0.533284	-0.619313	-0.063110	-0.572780
41253	16.986727	0.056335	2.459174	0.541291	-0.617512	-0.087003	-0.564015
41254	14.866812	2.174218	1.797216	0.543750	-0.612928	-0.098896	-0.564689
41255	8.287565	5.317579	8.497674	0.530610	-0.619526	-0.098630	-0.570011
41256	11.096199	-2.676978	2.082709	0.515514	-0.631430	-0.100065	-0.570550
41257	15.224834	-5.798735	-1.594108	0.506794	-0.636816	-0.107698	-0.570988
41258	15.409093	-3.131634	-3.880734	0.504818	-0.637307	-0.118770	-0.569992
41259	16.862103	-0.501451	-6.356381	0.501764	-0.636800	-0.124791	-0.571967
41260	17.020650	-0.760064	-8.274382	0.491073	-0.638131	-0.119430	-0.580838
41261	15.811191	-3.155649	-8.177496	0.477320	-0.639633	-0.106845	-0.592976
41262	14.661383	-3.607512	-7.136177	0.467159	-0.637843	-0.092745	-0.605242
41263	13.661253	-2.194782	-5.923388	0.460519	-0.631802	-0.077654	-0.618643
41264	13.496080	-4.530083	-5.358633	0.459589	-0.620885	-0.059547	-0.632245
41265	13.741735	-7.680403	-5.912018	0.463647	-0.602526	-0.039537	-0.648406
41266	12.024792	-12.288773	-6.660874	0.464721	-0.576237	-0.022617	-0.671918
41267	9.164076	-12.194296	-7.013294	0.456995	-0.548789	-0.010995	-0.699904
41268	8.072229	-10.286615	-7.114638	0.437082	-0.528437	0.000790	-0.727814
41269	8.528951	-11.009000	-7.105909	0.406936	-0.516206	0.016442	-0.753435
41270	8.755512	-12.188108	-6.862085	0.372638	-0.507442	0.030854	-0.776332
41271	8.639952	-10.350500	-7.578835	0.339519	-0.498505	0.040910	-0.796584
41272	8.187979	-7.739005	-9.140924	0.305053	-0.487563	0.051213	-0.816457
41273	8.083954	-6.475247	-10.193586	0.264974	-0.475863	0.068803	-0.835828
41274	7.339830	-8.093035	-9.193077	0.221283	-0.463425	0.096353	-0.852636
41275	5.090059	-13.849144	-6.353000	0.180676	-0.450255	0.125447	-0.865384
41276	1.740935	-18.357536	-2.892144	0.145721	-0.439536	0.142774	-0.874751
41277	-0.626921	-16.233456	-0.709584	0.112691	-0.435263	0.149621	-0.880602
41278	-1.388968	-11.086062	0.792517	0.073500	-0.436666	0.161926	-0.881874
41279	-1.780556	-9.624968	2.971477	0.028383	-0.439929	0.187043	-0.877879
41280	-2.008414	-10.473045	5.669507	-0.014844	-0.442040	0.214581	-0.870825
41281	-2.084921	-10.655233	7.367095	-0.048481	-0.444051	0.232533	-0.863942
41282	-1.607902	-7.871894	7.365462	-0.070997	-0.446716	0.238269	-0.859437
41283	0.635225	-4.108687	6.375874	-0.089947	-0.448967	0.240658	-0.855816
41284	2.694482	-3.128380	5.552397	-0.109759	-0.449831	0.251627	-0.849876
41285	4.366641	-7.333281	5.992893	-0.129133	-0.447820	0.273203	-0.841512
41286	5.160755	-15.449629	7.459610	-0.140251	-0.442752	0.295015	-0.835025
41287	5.434768	-19.597438	9.642585	-0.142039	-0.435920	0.304824	-0.834794
41288	5.655601	-14.951628	11.288603	-0.143036	-0.430413	0.304459	-0.837610
41289	6.824530	-9.194493	12.238947	-0.148266	-0.426110	0.309886	-0.836910
41290	8.128774	-10.187744	12.804037	-0.155985	-0.422822	0.324524	-0.831609
41291	9.506068	-13.605398	13.843855	-0.161583	-0.419998	0.336232	-0.827309
41292	9.594044	-14.023472	14.050269	-0.160092	-0.417249	0.334910	-0.829523
41293	8.507901	-9.512010	12.898217	-0.152480	-0.414829	0.323082	-0.836830
41294	7.197403	-4.890477	11.120972	-0.144109	-0.412629	0.312319	-0.843461
41295	5.918312	-4.321750	9.280234	-0.139312	-0.411671	0.309538	-0.845757
41296	5.468613	-6.190925	7.553202	-0.137583	-0.413144	0.311593	-0.844567
41297	5.346341	-7.066428	5.805040	-0.136308	-0.416687	0.311971	-0.842892
41298	4.612326	-6.679098	4.320041	-0.133590	-0.420540	0.307961	-0.842888
41299	3.680325	-5.618841	3.519528	-0.129104	-0.423297	0.300576	-0.844870
41300	2.764390	-4.344465	3.463329	-0.123539	-0.424522	0.292306	-0.847984
41301	1.886660	-3.457308	3.736554	-0.118106	-0.424583	0.286721	-0.850630
41302	1.439094	-2.856971	3.864623	-0.112834	-0.424712	0.287051	-0.851169
41303	1.954469	-4.043327	4.274290	-0.107175	-0.425006	0.294317	-0.849271
41304	3.106084	-8.079685	5.574478	-0.097685	-0.425072	0.304121	-0.846925
41305	3.738833	-13.586626	5.961458	-0.079433	-0.425628	0.310107	-0.846383
41306	4.641221	-18.188735	6.164102	-0.053943	-0.426867	0.307198	-0.848825
41307	2.754245	-17.038953	9.957615	-0.025429	-0.430526	0.296845	-0.851988
41308	0.979652	-14.724345	12.316172	0.006795	-0.439830	0.282249	-0.852549
41309	3.276285	-9.547991	9.535329	0.037176	-0.451742	0.268018	-0.850125
41310	1.379935	-8.919420	7.511772	0.064829	-0.467281	0.266469	-0.840500
41311	0.511058	-13.322571	5.425762	0.097978	-0.489932	0.262104	-0.825632
41312	0.666629	-14.196832	2.500300	0.139178	-0.515452	0.242541	-0.810008
41313	3.258793	-12.229828	-0.014901	0.186540	-0.534275	0.208701	-0.797619
41314	2.745402	-8.619173	-2.364630	0.233970	-0.541630	0.168267	-0.789671
41315	0.995871	-4.720781	-2.928522	0.277730	-0.541953	0.131618	-0.782195
41316	-0.519730	-3.309098	-2.435375	0.319110	-0.541578	0.102178	-0.770987
41317	-1.233166	-5.554315	-2.180249	0.360641	-0.544249	0.075801	-0.753648
41318	-0.519350	-8.976871	-4.282240	0.405083	-0.549684	0.043841	-0.729269
41319	2.672418	-10.663435	-8.083036	0.451409	-0.552628	0.004232	-0.700581
41320	5.900721	-9.164485	-10.919845	0.493741	-0.550917	-0.034761	-0.671939
41321	9.200770	-6.774185	-11.736219	0.526313	-0.549239	-0.064793	-0.645859
41322	13.335240	-6.414699	-12.296437	0.549618	-0.550652	-0.086242	-0.622306
41323	16.140212	-6.603904	-12.573899	0.566585	-0.553814	-0.103959	-0.601219
41324	18.465912	-6.306183	-10.780444	0.579205	-0.557208	-0.119341	-0.582922
41325	19.536652	-5.851130	-8.076609	0.586193	-0.561686	-0.129129	-0.569397
41326	19.637425	-6.999713	-5.621770	0.586455	-0.566194	-0.132216	-0.563926
41327	17.916009	-7.856394	-3.178098	0.583178	-0.569066	-0.130742	-0.564778
41328	16.508717	-8.277716	-0.880628	0.579915	-0.569829	-0.126924	-0.568229
41329	15.318011	-7.896116	0.782863	0.577317	-0.569007	-0.122302	-0.572695
41330	14.486329	-7.347805	1.926399	0.574120	-0.568175	-0.116895	-0.577840
41331	13.203929	-6.957063	2.908267	0.568512	-0.568688	-0.110410	-0.584122
41332	11.723408	-7.119848	3.700388	0.560826	-0.570600	-0.103198	-0.590965
41333	10.330482	-7.176452	3.790365	0.552271	-0.572689	-0.095832	-0.598197
41334	9.485859	-6.138645	3.348242	0.543117	-0.574607	-0.088119	-0.605876
41335	9.133793	-5.011870	3.168758	0.533217	-0.576789	-0.078533	-0.613862
41336	8.110612	-4.340413	3.173659	0.522837	-0.579613	-0.066818	-0.621471
41337	6.718568	-3.743851	3.085985	0.511904	-0.583877	-0.053952	-0.627799
41338	5.344492	-4.204948	2.818570	0.501484	-0.589919	-0.040896	-0.631535
41339	5.453335	-4.612324	2.392374	0.493427	-0.596139	-0.029741	-0.632664
41340	5.578627	-4.473014	1.852974	0.488052	-0.601604	-0.019957	-0.632044
41341	5.765579	-3.974438	1.150903	0.484153	-0.607140	-0.010338	-0.629977
41342	5.476075	-3.513172	0.003740	0.479524	-0.614251	0.000219	-0.626699
41343	4.650956	-4.506350	-1.239920	0.472769	-0.623541	0.010728	-0.622552
41344	4.925240	-5.971953	-2.016683	0.465937	-0.632944	0.018106	-0.618026
41345	7.314860	-6.474811	-2.639735	0.461603	-0.638022	0.023410	-0.615875
41346	9.037972	-6.309306	-2.881426	0.459700	-0.635715	0.031518	-0.619313
41347	8.145438	-5.807828	-2.205406	0.459040	-0.627485	0.045781	-0.627255
41348	6.410741	-6.982149	-0.833089	0.459242	-0.615750	0.066302	-0.636830
41349	5.706226	-7.756284	0.540002	0.461046	-0.601060	0.090466	-0.646513
41350	6.253616	-6.341948	1.012100	0.460959	-0.583763	0.120600	-0.657414
41351	6.584429	-7.090303	0.451312	0.453544	-0.563914	0.162699	-0.670692
41352	5.258933	-10.388628	0.160685	0.439646	-0.539049	0.215770	-0.685259
41353	2.751943	-14.546194	0.679580	0.423547	-0.505810	0.272345	-0.700423
41354	-0.935540	-17.050653	1.623040	0.405221	-0.465348	0.323744	-0.717242
41355	-4.483428	-21.003047	5.712180	0.380011	-0.435633	0.355690	-0.734370
41356	-4.104524	-20.152040	7.404767	0.353686	-0.430698	0.359792	-0.748302
41357	-4.704829	-11.602296	6.743821	0.331560	-0.445275	0.352215	-0.753487
41358	-4.086366	-11.526671	5.631136	0.318133	-0.469271	0.340193	-0.750230
41359	-4.551578	-10.312458	3.876346	0.313188	-0.493531	0.323158	-0.744251
41360	-3.583392	-9.459115	2.300137	0.310483	-0.517613	0.300508	-0.738493
41361	-2.995644	-7.626750	1.751187	0.303793	-0.545506	0.275434	-0.730937
41362	-2.726127	-9.262250	1.264085	0.293539	-0.579166	0.247815	-0.719020
41363	-2.719794	-10.660968	0.782374	0.286801	-0.617465	0.211201	-0.701339
41364	-0.938771	-9.860914	0.357563	0.285912	-0.656975	0.166578	-0.677415
41365	1.938077	-6.522084	-0.698853	0.286736	-0.693706	0.121050	-0.649539
41366	3.094525	-5.633636	-2.838444	0.282800	-0.727703	0.079736	-0.619770
41367	2.412453	-7.007306	-4.371788	0.276148	-0.760909	0.035396	-0.586095
41368	2.251108	-6.188134	-5.148194	0.270555	-0.792156	-0.017886	-0.546781
41369	5.621182	-4.162973	-5.284824	0.262855	-0.818370	-0.072199	-0.505929
41370	6.358513	-4.560876	-5.065899	0.251481	-0.836246	-0.122771	-0.471568
41371	3.530448	-6.624113	-5.009203	0.243010	-0.847024	-0.175492	-0.438975
41372	1.769234	-6.085682	-4.973348	0.241831	-0.851783	-0.236356	-0.400148
41373	3.666627	-1.232990	-6.845448	0.243499	-0.850052	-0.302214	-0.356070
41374	8.817298	2.452171	-8.185161	0.238307	-0.843000	-0.360936	-0.319821
41375	9.149081	0.552167	-8.893978	0.234544	-0.830852	-0.409084	-0.295507
41376	5.192201	-0.087442	-9.249333	0.240681	-0.814881	-0.449865	-0.275070
41377	2.067518	1.361960	-8.643798	0.252907	-0.798231	-0.485658	-0.251003
41378	2.438940	4.873334	-9.437865	0.262355	-0.785191	-0.514014	-0.224574
41379	4.865975	2.924276	-9.333884	0.262307	-0.777161	-0.534004	-0.205073
41380	6.093402	-0.407216	-9.280170	0.261227	-0.770982	-0.548599	-0.190752
41381	6.011495	-0.908481	-8.824274	0.266396	-0.763140	-0.560269	-0.180968
41382	3.263395	-0.447265	-6.972343	0.276610	-0.752048	-0.572575	-0.173401
41383	1.267829	0.797090	-5.317696	0.284907	-0.739526	-0.587630	-0.163159
41384	2.391736	1.431964	-5.220379	0.286802	-0.728369	-0.603731	-0.150771
41385	2.151442	0.438488	-5.883769	0.283029	-0.721028	-0.617415	-0.137153
41386	1.100049	-0.986691	-6.786605	0.273431	-0.718746	-0.627445	-0.122283
41387	1.241858	-2.602090	-7.148062	0.259849	-0.718492	-0.636323	-0.106493
41388	1.681671	-2.905724	-7.578240	0.244410	-0.717224	-0.646076	-0.091866
41389	1.418977	-3.086628	-8.223283	0.229057	-0.713812	-0.657038	-0.079415
41390	0.546605	-2.459617	-8.613809	0.215572	-0.707526	-0.669568	-0.067930
41391	-0.370821	-0.856944	-9.064120	0.203554	-0.698958	-0.683263	-0.056349
41392	-0.376082	0.244683	-10.201233	0.191641	-0.689625	-0.696912	-0.044775
41393	0.336580	1.151125	-11.667037	0.181512	-0.680678	-0.708962	-0.033235
41394	0.495458	2.215035	-12.684446	0.175287	-0.672437	-0.718736	-0.022835
41395	-0.009492	2.605114	-13.093320	0.172493	-0.666003	-0.725588	-0.014428
41396	-0.200115	2.229490	-12.905788	0.172032	-0.661821	-0.729624	-0.006920
41397	0.048276	1.769278	-13.074908	0.171850	-0.660459	-0.730931	-0.001126
41398	0.078803	0.116976	-13.139424	0.170336	-0.661854	-0.730017	0.003317
41399	1.236995	-1.209398	-13.617686	0.166293	-0.665428	-0.727678	0.006067
41400	2.708926	-3.419030	-13.634962	0.161710	-0.669553	-0.724921	0.006138
41401	2.846313	-4.489003	-13.177760	0.158994	-0.672698	-0.722618	0.004740
41402	2.236806	-4.625355	-12.903996	0.157918	-0.674954	-0.720757	0.002653
41403	1.738036	-3.891680	-12.805409	0.157114	-0.677053	-0.718968	0.000199
41404	2.168091	-4.155239	-12.678480	0.155208	-0.679147	-0.717398	-0.003071
41405	2.672765	-4.668639	-12.522337	0.153657	-0.679976	-0.716933	-0.005412
41406	2.959419	-4.097680	-12.835591	0.153608	-0.679145	-0.717723	-0.006389
41407	2.707489	-3.736445	-13.129861	0.154391	-0.677538	-0.719069	-0.006774
41408	1.939196	-2.888064	-13.609530	0.154191	-0.676291	-0.720291	-0.006033
41409	2.454461	-1.802040	-14.879687	0.151840	-0.675834	-0.721230	-0.004562
41410	3.224223	-1.422838	-16.027909	0.149804	-0.676107	-0.721402	-0.004018
41411	3.077002	-1.429156	-16.101603	0.149569	-0.676421	-0.721161	-0.003287
41412	3.346880	-1.431727	-16.200232	0.150251	-0.676844	-0.720627	-0.001772
41413	3.279078	-1.506698	-16.576661	0.150346	-0.678375	-0.719168	0.000337
41414	3.420015	-2.190552	-16.913231	0.149683	-0.682045	-0.715825	0.002118
41415	3.491115	-2.905186	-16.671439	0.147977	-0.686957	-0.711465	0.003384
41416	4.117559	-3.481808	-16.313627	0.146426	-0.690806	-0.708050	0.003387
41417	4.130046	-3.808761	-15.622901	0.146151	-0.692412	-0.706543	0.001553
41418	4.124779	-3.582269	-14.638191	0.146528	-0.692189	-0.706685	-0.001261
41419	3.354396	-3.104143	-13.466400	0.146530	-0.690956	-0.707876	-0.004392
41420	2.564505	-2.477328	-12.609182	0.145167	-0.689886	-0.709185	-0.006384
41421	2.096393	-1.950771	-11.926237	0.142212	-0.690066	-0.709599	-0.007334
41422	1.939616	-1.536465	-11.364179	0.138673	-0.690805	-0.709586	-0.006861
41423	1.938332	-0.727734	-11.200939	0.136440	-0.691127	-0.709716	-0.005524
41424	1.950099	-0.196989	-11.057815	0.137489	-0.691034	-0.709620	-0.002823
41425	2.446139	0.261021	-10.720129	0.141800	-0.691498	-0.708324	0.000963
41426	2.297784	-0.139099	-9.834532	0.147539	-0.693732	-0.704946	0.004502
41427	1.676501	-1.286796	-8.840094	0.151980	-0.697604	-0.700132	0.008122
41428	1.451743	-2.202098	-8.230650	0.154866	-0.701553	-0.695490	0.011579
41429	1.116467	-2.535383	-7.917713	0.158457	-0.703797	-0.692340	0.015022
41430	0.971629	-1.779326	-7.701167	0.164308	-0.704103	-0.690589	0.018104
41431	0.694706	-1.017075	-7.457739	0.172243	-0.703882	-0.688833	0.019765
41432	-0.002622	-0.401617	-7.068144	0.180835	-0.704825	-0.685671	0.019396
41433	-1.191576	-0.442363	-6.518622	0.189389	-0.707094	-0.681064	0.017366
41434	-2.345191	-0.469265	-5.706231	0.196790	-0.709855	-0.676138	0.014725
41435	-1.709829	-0.676153	-5.537362	0.203678	-0.712150	-0.671744	0.010836
41436	-0.856106	-0.778858	-5.424995	0.213021	-0.714156	-0.666770	0.004497
41437	-1.146958	-0.669939	-5.105521	0.225752	-0.716776	-0.659736	-0.004140
41438	-2.250452	-0.785536	-4.806421	0.240657	-0.721056	-0.649593	-0.013791
41439	-4.270823	-0.182975	-3.962797	0.254719	-0.727064	-0.637152	-0.023112
41440	-3.894782	-0.671719	-2.710190	0.262578	-0.733379	-0.626281	-0.031292
41441	-1.512813	-1.710059	-2.979876	0.265241	-0.739054	-0.617996	-0.039096
41442	0.332483	-2.377389	-3.798761	0.268037	-0.743501	-0.610952	-0.045820
41443	0.885312	-2.155642	-4.769084	0.274223	-0.747069	-0.603374	-0.051270
41444	0.991757	-2.366032	-5.251750	0.282873	-0.750640	-0.594592	-0.054621
41445	0.941551	-3.339318	-5.471983	0.292505	-0.754320	-0.585139	-0.055269
41446	1.227000	-2.643562	-5.449032	0.302769	-0.757577	-0.575872	-0.052732
41447	1.970582	-0.969702	-6.238094	0.309463	-0.762836	-0.565436	-0.050955
41448	3.563501	-3.571173	-6.541367	0.313949	-0.770877	-0.551946	-0.050395
41449	2.845702	-5.534984	-7.009977	0.319638	-0.779710	-0.536189	-0.048830
41450	1.022547	-6.704715	-7.683885	0.329377	-0.785939	-0.521393	-0.044273
41451	-0.679672	-6.852941	-8.620381	0.343795	-0.788004	-0.509420	-0.036697
41452	-0.690873	-6.292455	-9.319025	0.362418	-0.786616	-0.499170	-0.026790
41453	1.807443	-5.903097	-10.118085	0.385365	-0.783440	-0.487162	-0.019722
41454	4.255206	-8.449082	-9.461833	0.412217	-0.779685	-0.470813	-0.022440
41455	5.325767	-11.697712	-7.909930	0.445389	-0.773748	-0.449280	-0.033026
41456	5.306150	-12.241780	-6.397467	0.485443	-0.763459	-0.423358	-0.047359
41457	4.902782	-11.271322	-4.528496	0.527573	-0.749753	-0.394050	-0.065282
41458	4.160843	-8.878038	-2.227261	0.565896	-0.734874	-0.363841	-0.085679
41459	5.741245	-6.931967	0.467278	0.593087	-0.724011	-0.334029	-0.111716
41460	3.564324	-8.569355	2.998620	0.605139	-0.721383	-0.306531	-0.139473
41461	3.017778	-10.494278	4.002710	0.603638	-0.726416	-0.285456	-0.162651
41462	4.908624	-12.801668	4.199325	0.595084	-0.734049	-0.272500	-0.181085
41463	7.899509	-15.055121	5.194426	0.588565	-0.737174	-0.266124	-0.198352
41464	8.948608	-12.919791	6.121026	0.585331	-0.734521	-0.266224	-0.216776
41465	7.313194	-10.425600	6.246132	0.580652	-0.729624	-0.272970	-0.236600
41466	6.167729	-8.231164	5.297495	0.571297	-0.725235	-0.286282	-0.256313
41467	5.429625	-8.958830	3.571132	0.556793	-0.721408	-0.307248	-0.274138
41468	8.741548	-10.480001	3.201474	0.542233	-0.713960	-0.335111	-0.289732
41469	10.996060	-10.560202	3.746912	0.534990	-0.696159	-0.368229	-0.305869
41470	10.865223	-6.878873	4.360106	0.534769	-0.668746	-0.403047	-0.323038
41471	9.005581	-2.085513	4.342336	0.534425	-0.639349	-0.435082	-0.341067
41472	6.536645	0.622062	3.941421	0.525769	-0.615647	-0.464486	-0.358884
41473	4.974328	0.005674	1.425729	0.505761	-0.599294	-0.495170	-0.373977
41474	4.683791	-2.711877	-1.509639	0.479445	-0.586176	-0.529165	-0.382773
41475	5.467473	-4.017946	-5.438944	0.457367	-0.570753	-0.565833	-0.380644
41476	9.167449	-1.654358	-7.420282	0.445085	-0.550395	-0.599800	-0.373102
41477	9.433238	1.398663	-8.958320	0.443229	-0.526886	-0.624147	-0.369296
41478	7.496987	4.572160	-7.644996	0.446376	-0.506210	-0.635860	-0.374409
41479	4.298462	4.232305	-4.386650	0.447440	-0.492184	-0.638212	-0.387607
41480	2.420437	1.185072	-2.159670	0.441471	-0.484711	-0.637996	-0.403881
41481	1.501425	-3.131711	-2.057304	0.427812	-0.481482	-0.641827	-0.416184
41482	2.088931	-4.354151	-2.671479	0.411075	-0.479012	-0.654208	-0.416626
41483	2.844838	-0.856138	-3.375933	0.393536	-0.476601	-0.672129	-0.407705
41484	4.330683	2.665875	-4.103732	0.376679	-0.474813	-0.688668	-0.397997
41485	5.285622	4.607700	-4.283192	0.363222	-0.475835	-0.698546	-0.392025
41486	4.126245	4.696665	-3.956666	0.353645	-0.481398	-0.701201	-0.389242
41487	2.263395	3.876969	-3.623543	0.346035	-0.492595	-0.699185	-0.385682
41488	1.876731	3.466662	-3.685669	0.334969	-0.506095	-0.695866	-0.383973
41489	2.616095	-0.341178	-4.457016	0.318214	-0.513971	-0.695865	-0.387745
41490	5.002783	-3.116395	-5.519806	0.301594	-0.514870	-0.704321	-0.384555
41491	9.831111	-1.991500	-7.251362	0.295689	-0.510219	-0.717667	-0.370404
41492	10.440894	0.355669	-6.794848	0.303458	-0.503161	-0.728490	-0.352198
41493	7.741292	3.065345	-5.451425	0.313574	-0.499154	-0.735048	-0.334995
41494	6.655843	4.030433	-5.966023	0.314807	-0.500766	-0.738093	-0.324574
41495	6.560039	2.291877	-7.532075	0.307787	-0.504357	-0.739032	-0.323609
41496	5.523389	-0.807928	-7.272914	0.299349	-0.506246	-0.741509	-0.322908
41497	5.953518	-2.173679	-7.251961	0.296952	-0.502599	-0.749992	-0.311006
41498	7.673809	0.153877	-8.201827	0.302753	-0.492905	-0.763622	-0.286822
41499	8.659629	4.516055	-8.985283	0.312555	-0.480954	-0.776980	-0.259411
41500	8.846438	6.198091	-8.825006	0.322590	-0.470741	-0.786259	-0.236927
41501	9.041842	5.181726	-10.372571	0.332599	-0.461333	-0.792189	-0.221330
41502	10.212382	4.520677	-12.634235	0.341514	-0.450867	-0.797346	-0.210539
41503	12.172553	4.588801	-14.517624	0.346909	-0.439404	-0.803744	-0.201430
41504	13.894421	5.122876	-15.144157	0.348039	-0.428981	-0.810719	-0.193850
41505	13.099674	5.421178	-13.860776	0.346296	-0.421001	-0.816499	-0.190175
41506	11.046708	5.257980	-10.608385	0.342523	-0.415959	-0.820476	-0.190985
41507	10.703725	2.522174	-9.621502	0.340741	-0.411083	-0.822731	-0.194988
41508	9.857331	-0.127203	-9.839556	0.344109	-0.404223	-0.824391	-0.196396
41509	9.394115	0.759205	-10.875861	0.349257	-0.396907	-0.827745	-0.187943
41510	10.295597	5.749697	-13.029672	0.349700	-0.392965	-0.831713	-0.177603
41511	11.046435	7.107751	-15.413885	0.343062	-0.396450	-0.833412	-0.174813
41512	12.965473	4.648636	-18.091603	0.337135	-0.404249	-0.831337	-0.178329
41513	13.194210	3.189336	-18.486056	0.340957	-0.409870	-0.825740	-0.184145
41514	12.298030	4.726527	-15.956952	0.354035	-0.411922	-0.817986	-0.189417
41515	11.289407	7.108471	-13.026475	0.368815	-0.414842	-0.808680	-0.194725
41516	10.978138	6.966983	-11.452278	0.380220	-0.422027	-0.797834	-0.201959
41517	10.954462	4.074013	-11.627801	0.390783	-0.431646	-0.785778	-0.208623
41518	10.664819	2.100165	-12.388499	0.405451	-0.438185	-0.773505	-0.212821
41519	9.588412	1.635060	-12.277333	0.424784	-0.438973	-0.761661	-0.216177
41520	9.179426	2.613319	-11.685002	0.446640	-0.436157	-0.749530	-0.220192
41521	8.508096	3.242337	-10.581980	0.469406	-0.432852	-0.735987	-0.224988
41522	7.358967	3.071777	-8.984163	0.492898	-0.431681	-0.719072	-0.231601
41523	6.348133	1.412179	-6.893701	0.517974	-0.433133	-0.697883	-0.238868
41524	5.932964	-1.923091	-5.144842	0.545053	-0.435321	-0.673304	-0.245103
41525	5.485411	-4.710973	-3.753003	0.573483	-0.434227	-0.649205	-0.247178
41526	4.229239	-5.099162	-2.780248	0.600312	-0.428382	-0.628956	-0.246027
41527	3.283020	-3.702796	-1.974707	0.622058	-0.420698	-0.612886	-0.245821
41528	3.232140	-3.487164	-0.651299	0.638476	-0.415058	-0.597727	-0.250594
41529	3.895009	-3.658875	0.577567	0.651426	-0.412887	-0.580668	-0.260756
41530	4.671270	1.211896	2.882994	0.659340	-0.419402	-0.559474	-0.276336
41531	6.547771	-0.667217	0.121463	0.649177	-0.464220	-0.517459	-0.308716
41532	0.542678	-11.460282	-0.535345	0.628817	-0.502797	-0.482348	-0.345143
41533	1.139169	-18.888158	-1.304139	0.612853	-0.517044	-0.472886	-0.365317
41534	4.204537	-13.021354	-1.676431	0.616247	-0.501243	-0.484983	-0.365770
41535	5.619452	-2.209706	-3.036030	0.633036	-0.467691	-0.501062	-0.359816
41536	5.092743	6.009895	-3.151826	0.649812	-0.435999	-0.507388	-0.360842
41537	3.527017	6.874588	-2.392013	0.661440	-0.417973	-0.500178	-0.370970
41538	2.045612	3.691658	-1.654502	0.667355	-0.413277	-0.484849	-0.385696
41539	1.833807	-0.004138	-1.102722	0.668419	-0.414476	-0.468585	-0.402310
41540	2.381088	-2.868622	-0.741585	0.667227	-0.414604	-0.456148	-0.418139
41541	3.120261	-3.556115	-0.230577	0.667393	-0.411668	-0.448802	-0.428594
41542	4.592276	-2.387700	0.014904	0.670527	-0.408000	-0.444007	-0.432189
41543	5.655714	-1.061414	0.147881	0.675650	-0.406120	-0.437264	-0.432856
41544	6.224361	-0.272077	0.253048	0.680604	-0.408248	-0.425847	-0.434471
41545	6.196392	-0.428343	0.386125	0.683958	-0.414659	-0.409273	-0.439040
41546	5.704924	-1.168527	0.442130	0.685507	-0.423818	-0.389303	-0.445983
41547	5.042444	-1.959026	0.441215	0.685975	-0.433099	-0.368444	-0.453997
41548	4.350010	-2.469179	0.420510	0.686742	-0.439872	-0.349192	-0.461479
41549	4.708961	-1.661522	0.057187	0.689002	-0.443516	-0.331954	-0.467306
41550	5.500468	-0.219253	-0.555520	0.692768	-0.445929	-0.314073	-0.471781
41551	5.156132	0.864399	-1.056508	0.697412	-0.449796	-0.292595	-0.475066
41552	4.124046	1.506682	-1.379822	0.702266	-0.456822	-0.266133	-0.476770
41553	2.487107	2.605267	-0.835064	0.706900	-0.466706	-0.234196	-0.477106
41554	0.645262	5.827033	1.180889	0.712561	-0.481088	-0.195145	-0.471943
41555	-0.907270	4.107320	1.314592	0.715843	-0.502069	-0.149832	-0.461570
41556	-1.890995	-1.382934	-0.945228	0.718742	-0.521499	-0.104165	-0.447883
41557	-3.443373	0.032795	0.244066	0.724425	-0.534095	-0.059795	-0.431713
41558	-5.056353	-0.988576	0.285059	0.733268	-0.542829	-0.016035	-0.409143
41559	-6.562858	-1.219626	0.582990	0.745358	-0.546487	0.028058	-0.380796
41560	-8.870294	-7.812747	1.353958	0.761078	-0.542886	0.074401	-0.347130
41561	-11.290470	-12.365643	2.507210	0.783348	-0.524449	0.118655	-0.311832
41562	-10.878142	-14.110698	3.192104	0.806688	-0.493330	0.158820	-0.284000
41563	-13.428382	-13.401940	4.075144	0.828241	-0.453149	0.195813	-0.265200
41564	-15.375671	-7.349394	5.111650	0.845194	-0.413353	0.230053	-0.248722
41565	-17.192447	-2.908622	5.421710	0.854552	-0.384857	0.266935	-0.224438
41566	-19.293595	-1.692606	5.674232	0.855320	-0.370487	0.310165	-0.186990
41567	-21.005110	-4.637863	6.718923	0.847854	-0.363297	0.360459	-0.138664
41568	-22.455243	-10.316992	8.247738	0.834367	-0.350559	0.416386	-0.086965
41569	-25.368190	-13.963843	10.530885	0.818843	-0.323610	0.472290	-0.041410
41570	-27.432434	-15.320568	12.320554	0.805755	-0.285802	0.518662	-0.008143
41571	-25.541221	-16.013496	13.520067	0.797530	-0.243746	0.551663	0.014186
41572	-21.235843	-17.142900	13.665039	0.794717	-0.202793	0.571423	0.027834
41573	-17.577670	-15.749977	12.124287	0.796931	-0.168364	0.579075	0.035030
41574	-14.795530	-12.026933	9.855201	0.801849	-0.150815	0.576735	0.040865
41575	-14.227970	-0.680757	16.867046	0.808217	-0.173244	0.559230	0.063508
41576	-10.400531	-16.262394	11.040051	0.809704	-0.235082	0.526553	0.108893
41577	-6.060431	-14.551665	6.463121	0.808024	-0.282625	0.496712	0.143169
41578	-4.746973	-11.386357	4.418652	0.805379	-0.314146	0.476540	0.159957
41579	-2.968321	-8.849747	2.537512	0.800789	-0.334697	0.469499	0.162129
41580	-3.371184	-6.856930	2.156878	0.793619	-0.347390	0.474773	0.155174
41581	-5.324403	-5.210975	2.483897	0.784344	-0.355171	0.488181	0.142608
41582	-7.911935	-5.095098	2.561732	0.776022	-0.358175	0.503362	0.126992
41583	-9.190997	-6.005431	2.650093	0.772636	-0.354601	0.515054	0.109598
41584	-9.114228	-5.971696	1.983002	0.775111	-0.344373	0.521887	0.090796
41585	-8.123984	-4.903376	1.315443	0.780492	-0.330981	0.525498	0.071667
41586	-7.376065	-4.596230	1.169141	0.785341	-0.318334	0.528228	0.053656
41587	-7.571218	-4.745927	0.885178	0.788332	-0.307551	0.531553	0.037375
41588	-7.878286	-5.115261	0.532842	0.790117	-0.297931	0.535223	0.022090
41589	-7.629664	-5.615182	0.219543	0.791379	-0.288162	0.539109	0.006527
41590	-7.341608	-6.046732	-0.001122	0.792339	-0.277172	0.543378	-0.010679
41591	-7.672781	-5.951636	-0.130584	0.792937	-0.265267	0.547716	-0.029845
41592	-8.615048	-6.280888	-0.231154	0.793636	-0.253194	0.550794	-0.051575
41593	-9.222201	-6.302692	-0.288883	0.794863	-0.241452	0.551499	-0.075778
41594	-9.859589	-5.747506	-0.523755	0.796339	-0.231462	0.549762	-0.100154
41595	-10.172337	-4.846018	-0.682805	0.797587	-0.224712	0.546221	-0.122485
41596	-10.236886	-4.540492	-0.903008	0.797742	-0.222416	0.542301	-0.141591
41597	-10.484006	-5.024745	-1.149174	0.796707	-0.223863	0.538679	-0.158014
41598	-10.616409	-5.389862	-1.343552	0.794654	-0.227798	0.535391	-0.173172
41599	-10.623230	-5.678176	-1.432310	0.791290	-0.233499	0.532683	-0.188645
41600	-10.712464	-5.923657	-1.460349	0.786695	-0.239869	0.530450	-0.205418
41601	-10.607423	-5.480615	-1.488172	0.780880	-0.245989	0.528926	-0.223503
41602	-10.534558	-5.415469	-1.400752	0.773891	-0.251141	0.528284	-0.242769
41603	-10.125910	-5.245819	-1.247557	0.766001	-0.254585	0.528550	-0.262799
41604	-9.768168	-5.519648	-0.987140	0.756816	-0.256421	0.530142	-0.283598
41605	-10.359544	-5.637283	-0.499802	0.746526	-0.256914	0.532605	-0.305002
41606	-10.453609	-5.594487	-0.066548	0.735521	-0.257072	0.534797	-0.326980
41607	-9.949730	-5.244212	0.150513	0.723689	-0.257946	0.536964	-0.348437
41608	-9.368089	-5.131339	0.289987	0.710709	-0.259838	0.540301	-0.368038
41609	-9.160517	-5.175377	0.543199	0.696887	-0.261421	0.545162	-0.385755
41610	-9.266324	-5.381685	0.892130	0.682744	-0.261609	0.551162	-0.402047
41611	-9.597081	-5.863246	1.292081	0.669136	-0.259432	0.557330	-0.417534
41612	-9.989107	-5.936332	1.450506	0.656662	-0.255212	0.562628	-0.432564
41613	-10.081438	-5.671362	1.476598	0.645540	-0.250931	0.566856	-0.446079
41614	-9.461551	-5.492212	1.229034	0.635010	-0.248597	0.571466	-0.456496
41615	-8.645995	-6.130505	1.326127	0.623625	-0.249750	0.577985	-0.463303
41616	-7.785610	-8.013498	1.422344	0.611432	-0.252243	0.585097	-0.469240
41617	-6.913804	-8.783122	1.477665	0.600134	-0.252274	0.590827	-0.476571
41618	-5.523112	-8.178238	1.440739	0.589035	-0.248806	0.596695	-0.484859
41619	-4.852789	-7.491155	1.416516	0.576734	-0.242483	0.604313	-0.493340
41620	-4.446008	-7.083135	1.493307	0.563149	-0.233903	0.613855	-0.501333
41621	-4.045977	-7.021539	1.488487	0.548661	-0.222545	0.624604	-0.509229
41622	-3.775916	-7.155111	1.409835	0.533243	-0.208183	0.635871	-0.517668
41623	-4.209384	-8.175252	1.488553	0.517020	-0.190899	0.647226	-0.526637
41624	-4.874645	-8.907740	1.947312	0.501213	-0.171549	0.657259	-0.536066
41625	-5.237993	-9.038921	2.505559	0.485947	-0.152971	0.665439	-0.545571
41626	-5.612481	-8.740841	2.867484	0.471522	-0.137790	0.671797	-0.554409
41627	-5.171540	-8.171652	2.940612	0.458679	-0.127051	0.677096	-0.561260
41628	-4.369835	-7.340405	2.582984	0.447375	-0.119586	0.682757	-0.565153
41629	-3.749245	-7.843427	2.235655	0.437238	-0.113277	0.689401	-0.566319
41630	-4.048016	-9.503597	2.211066	0.427795	-0.105813	0.694090	-0.569240
41631	-4.181932	-8.926452	2.496263	0.419157	-0.099053	0.696641	-0.573749
41632	-3.409059	-8.295740	2.418715	0.410761	-0.093945	0.698121	-0.578858
41633	-2.659714	-7.717180	2.208600	0.402885	-0.089410	0.699096	-0.583913
41634	-2.198700	-8.133680	1.933077	0.395821	-0.082862	0.698027	-0.590947
41635	-1.870177	-7.798400	1.196049	0.389451	-0.071957	0.694198	-0.601032
41636	-1.687453	-9.308417	0.480589	0.381877	-0.054522	0.687127	-0.615673
41637	-2.366303	-8.730054	0.015394	0.373236	-0.030364	0.675359	-0.635345
41638	-3.450106	-6.146918	-0.140417	0.365021	-0.002003	0.661077	-0.655541
41639	-4.266642	-3.530972	0.158046	0.357690	0.025388	0.648639	-0.671327
41640	-4.742435	-3.140760	0.632117	0.352230	0.048220	0.641454	-0.679813
41641	-5.279107	-4.481817	1.005175	0.350081	0.066493	0.639492	-0.681229
41642	-5.277572	-7.233315	0.745402	0.350235	0.082422	0.639996	-0.678931
41643	-4.630339	-9.671065	-0.071541	0.349476	0.100192	0.639956	-0.676967
41644	-4.253840	-10.769298	-0.684765	0.343958	0.123719	0.637411	-0.678302
41645	-4.600346	-10.448610	-1.093714	0.332881	0.153369	0.631527	-0.683258
41646	-5.689665	-8.900272	-1.471163	0.317764	0.189445	0.620812	-0.691179
41647	-6.243526	-5.024477	-1.301037	0.303453	0.230239	0.607795	-0.696773
41648	-6.188777	-3.406786	-1.375153	0.292441	0.272749	0.598132	-0.694496
41649	-6.694790	-4.596926	-1.230581	0.282830	0.314601	0.592993	-0.685122
41650	-7.305441	-6.611446	-0.951779	0.272817	0.353409	0.590895	-0.671950
41651	-7.660584	-7.020870	-0.775867	0.261773	0.386749	0.590822	-0.657898
41652	-7.702346	-5.968862	-0.723237	0.250379	0.412917	0.595157	-0.642338
41653	-7.550685	-6.076077	-1.628585	0.239120	0.431970	0.605714	-0.623966
41654	-7.383150	-7.011617	-2.546473	0.228536	0.446970	0.620450	-0.602521
41655	-7.908625	-7.826777	-1.525471	0.218589	0.459962	0.634703	-0.581211
41656	-10.180745	-7.858244	2.347374	0.213531	0.467161	0.646039	-0.564622
41657	-10.730203	-8.211323	2.592615	0.215447	0.466622	0.650654	-0.559013
41658	-8.135175	-9.148115	-0.952755	0.218363	0.462339	0.649735	-0.562498
41659	-7.914011	-6.821715	-3.040600	0.219783	0.461603	0.647481	-0.565143
41660	-8.074349	-6.586794	-3.955322	0.222553	0.464231	0.646651	-0.562852
41661	-8.517614	-8.395305	-3.200313	0.224086	0.466279	0.647568	-0.559486
41662	-8.845759	-7.971181	-2.498718	0.223854	0.466299	0.646703	-0.560562
41663	-8.927334	-5.445460	-1.649396	0.221554	0.465636	0.643932	-0.565198
41664	-9.163204	-3.030457	-0.893395	0.220020	0.464717	0.641698	-0.569081
41665	-10.310946	-2.902074	0.079895	0.220870	0.463032	0.641420	-0.570437
41666	-10.913656	-4.432288	0.170879	0.222865	0.459150	0.642130	-0.571998
41667	-11.393616	-7.994209	0.080639	0.226730	0.450185	0.641001	-0.578830
41668	-10.816032	-4.480390	-3.894328	0.228552	0.444748	0.628751	-0.595512
41669	-7.654900	-2.462810	-3.342472	0.227754	0.449133	0.619801	-0.601876
41670	-9.739102	-3.632336	-1.558822	0.225784	0.458845	0.615232	-0.599977
41671	-11.920595	-8.103669	1.082484	0.223153	0.466511	0.608474	-0.601938
41672	-12.296073	-8.435088	1.498534	0.219452	0.470592	0.592166	-0.616217
41673	-10.796955	-6.078274	1.374312	0.215651	0.473186	0.565645	-0.640028
41674	-10.008835	-4.300562	1.375375	0.213119	0.475827	0.525478	-0.672341
41675	-8.122459	-0.461762	0.458374	0.213049	0.476809	0.474460	-0.708626
41676	-5.634363	3.462379	-0.483562	0.215411	0.473999	0.434324	-0.735042
41677	-5.839792	1.210239	-0.379367	0.218531	0.467663	0.420065	-0.746378
41678	-6.954670	-4.132048	-0.174815	0.217967	0.462515	0.419462	-0.750081
41679	-8.211761	-5.623778	0.071325	0.212405	0.460479	0.417664	-0.753923
41680	-7.874337	-7.092120	-0.520784	0.204458	0.460269	0.413026	-0.758787
41681	-8.049657	-7.020167	-0.029146	0.195214	0.462484	0.406748	-0.763254
41682	-7.861881	-8.022059	0.613256	0.184926	0.465662	0.398157	-0.768396
41683	-7.661823	-6.657793	1.713780	0.172369	0.468307	0.389126	-0.774311
41684	-7.803772	-6.575470	3.078657	0.157531	0.469471	0.382819	-0.779891
41685	-7.779092	-6.475241	4.296536	0.135817	0.467395	0.382100	-0.785554
41686	-7.814836	-3.964215	5.342688	0.106809	0.463124	0.388364	-0.789482
41687	-8.172731	0.058602	6.469444	0.080285	0.459743	0.400195	-0.788691
41688	-8.038736	-0.138327	7.009483	0.067493	0.459487	0.413420	-0.783199
41689	-7.328715	-4.408064	5.721734	0.061195	0.460921	0.424246	-0.777060
41690	-6.891904	-5.706268	4.393396	0.055226	0.463179	0.429287	-0.773387
41691	-6.470960	-5.272263	3.744716	0.050679	0.467026	0.431036	-0.770407
41692	-6.281536	-3.887464	3.704943	0.050715	0.472006	0.430820	-0.767484
41693	-6.400408	-6.072313	2.984204	0.052685	0.477412	0.430165	-0.764369
41694	-6.602392	-6.863296	2.753434	0.054076	0.481692	0.428563	-0.762484
41695	-6.970425	-7.209828	2.702087	0.055951	0.483734	0.426105	-0.762434
41696	-7.320578	-7.681568	2.535940	0.058533	0.482749	0.423203	-0.764478
41697	-7.624514	-8.042768	2.223606	0.061054	0.478146	0.419269	-0.769325
41698	-7.797062	-7.974639	1.913955	0.062892	0.470040	0.414029	-0.776973
41699	-7.606020	-7.453047	1.549040	0.063409	0.459123	0.408113	-0.786530
41700	-7.385833	-6.856272	1.307589	0.062753	0.446737	0.403059	-0.796261
41701	-7.362145	-6.398800	1.297266	0.061092	0.434313	0.400080	-0.804721
41702	-7.287130	-5.995943	1.296021	0.058283	0.422802	0.399907	-0.811120
41703	-7.443755	-5.941963	1.421413	0.054846	0.413254	0.403309	-0.814589
41704	-7.760947	-6.114612	1.576696	0.051095	0.405718	0.410363	-0.815098
41705	-8.036278	-6.536135	1.705950	0.046770	0.399334	0.420205	-0.813494
41706	-8.159880	-6.743941	1.646475	0.041618	0.392877	0.431616	-0.810940
41707	-7.948866	-6.429396	1.527249	0.035766	0.385746	0.443917	-0.807996
41708	-7.624122	-6.136568	1.379424	0.029659	0.378148	0.456965	-0.804554
41709	-7.427923	-5.979685	1.356791	0.023723	0.370794	0.470074	-0.800612
41710	-7.323583	-6.095721	1.516648	0.017777	0.364741	0.482357	-0.796229
41711	-7.385032	-6.170048	1.732657	0.011717	0.361045	0.493126	-0.791414
41712	-7.501048	-6.435414	2.017806	0.006031	0.360316	0.502033	-0.786193
41713	-7.842397	-6.913356	2.287588	0.000465	0.362121	0.509084	-0.780834
41714	-8.349323	-8.185695	2.608102	-0.005924	0.364802	0.513939	-0.776371
41715	-8.633976	-9.048339	3.030102	-0.013622	0.366996	0.516096	-0.773804
41716	-8.488496	-9.154485	3.524197	-0.021669	0.368721	0.515592	-0.773137
41717	-8.071915	-8.776833	3.912084	-0.029317	0.370713	0.513233	-0.773501
41718	-7.402887	-8.037899	3.899635	-0.036224	0.373470	0.510579	-0.773639
41719	-6.935062	-6.743539	4.189074	-0.042826	0.376824	0.508871	-0.772800
41720	-7.209642	-5.420589	5.198205	-0.046599	0.379664	0.513447	-0.768151
41721	-8.099895	-6.550766	6.041828	-0.046595	0.378397	0.524784	-0.761083
41722	-7.128273	-8.773380	5.308186	-0.044844	0.370536	0.535885	-0.757311
41723	-6.297527	-9.793043	3.587148	-0.045504	0.358671	0.541025	-0.759327
41724	-4.939314	-9.947777	2.496590	-0.050060	0.346757	0.537448	-0.767075
41725	-4.956883	-10.299387	2.497092	-0.057523	0.336351	0.525225	-0.779550
41726	-5.107351	-9.472182	1.993084	-0.066318	0.327076	0.503293	-0.797070
41727	-4.867760	-7.607142	1.940149	-0.073926	0.318325	0.475903	-0.816529
41728	-4.489411	-5.429996	2.552791	-0.079160	0.310022	0.449270	-0.834132
41729	-4.439310	-4.832061	2.820230	-0.081257	0.302946	0.430697	-0.846239
41730	-4.481423	-6.006385	3.217501	-0.082352	0.297607	0.419676	-0.853534
41731	-4.950477	-8.602649	3.572618	-0.082857	0.292644	0.411914	-0.858965
41732	-4.965047	-9.631285	3.673282	-0.083879	0.287020	0.401082	-0.865862
41733	-4.880345	-9.633276	3.679035	-0.085849	0.280323	0.386412	-0.874491
41734	-4.657748	-9.100166	3.765488	-0.088511	0.273200	0.368950	-0.883971
41735	-4.503445	-7.879480	3.920775	-0.090769	0.266317	0.350830	-0.893171
41736	-4.396149	-7.837835	4.212973	-0.092348	0.260210	0.334003	-0.901224
41737	-4.431610	-8.912496	4.785880	-0.093319	0.254003	0.316804	-0.909071
41738	-4.220397	-9.312660	5.097377	-0.094618	0.245834	0.294915	-0.918498
41739	-3.557697	-7.292483	5.066630	-0.096886	0.236197	0.271142	-0.928066
41740	-3.361110	-5.605129	5.244478	-0.100175	0.226415	0.251251	-0.935721
41741	-3.887716	-6.046245	5.736554	-0.103532	0.215234	0.235072	-0.942177
41742	-3.530930	-5.793627	6.069235	-0.106244	0.201367	0.219962	-0.948567
41743	-2.788285	-5.471858	6.594299	-0.108738	0.186816	0.205838	-0.954414
