// Start Time: Unknown
// Update Rate: 60.0Hz
// Filter Profile: human (46.1)
// Option Flags: AHS Disabled ICC Disabled 
// Firmware Version: 4.3.5
PacketCounter	Acc_X	Acc_Y	Acc_Z	Quat_q0	Quat_q1	Quat_q2	Quat_q3
34999	0.000540	0.080630	9.822263	0.999754	0.002399	-0.000418	-0.022038
35000	-0.005471	0.060727	9.851504	0.999754	0.002387	-0.000416	-0.022031
35001	0.011193	0.074649	9.827447	0.999754	0.002390	-0.000408	-0.022045
35002	0.029138	0.036153	9.818857	0.999754	0.002393	-0.000404	-0.022046
35003	0.015795	0.062568	9.797840	0.999754	0.002390	-0.000415	-0.022048
35004	-0.002286	0.049197	9.821891	0.999754	0.002407	-0.000412	-0.022045
35005	-0.009965	0.089200	9.803641	0.999754	0.002429	-0.000414	-0.022034
35006	0.019794	0.070294	9.832628	0.999754	0.002421	-0.000404	-0.022033
35007	0.018971	0.083398	9.848816	0.999754	0.002422	-0.000418	-0.022032
35008	0.000792	0.050877	9.808471	0.999754	0.002413	-0.000403	-0.022022
35009	0.023794	0.064274	9.851236	0.999754	0.002416	-0.000398	-0.022036
35010	0.023102	0.051617	9.835050	0.999754	0.002413	-0.000387	-0.022039
35011	0.010239	0.058160	9.829852	0.999754	0.002410	-0.000397	-0.022039
35012	0.015535	0.058966	9.816439	0.999754	0.002439	-0.000400	-0.022033
35013	0.020375	0.085660	9.835396	0.999754	0.002442	-0.000400	-0.022042
35014	0.025586	0.086201	9.821986	0.999754	0.002445	-0.000403	-0.022052
35015	0.001063	0.079135	9.827418	0.999754	0.002428	-0.000394	-0.022046
35016	0.006793	0.059659	9.829846	0.999754	0.002424	-0.000404	-0.022046
35017	0.018291	0.053584	9.835049	0.999754	0.002427	-0.000399	-0.022047
35018	0.029258	0.067462	9.824416	0.999754	0.002437	-0.000411	-0.022044
35019	0.017131	0.054409	9.835047	0.999754	0.002445	-0.000415	-0.022044
35020	0.009984	0.074291	9.832614	0.999754	0.002448	-0.000410	-0.022046
35021	-0.002882	0.080897	9.827404	0.999754	0.002447	-0.000412	-0.022053
35022	-0.003199	0.068312	9.811219	0.999754	0.002455	-0.000430	-0.022055
35023	0.026666	0.049110	9.840256	0.999754	0.002426	-0.000417	-0.022054
35024	0.013777	0.055354	9.835047	0.999754	0.002422	-0.000428	-0.022054
35025	0.024866	0.069185	9.824416	0.999754	0.002432	-0.000441	-0.022051
35026	0.012030	0.075777	9.819203	0.999754	0.002425	-0.000430	-0.022051
35027	0.011263	0.076006	9.819202	0.999754	0.002433	-0.000433	-0.022052
35028	0.022789	0.070079	9.824414	0.999754	0.002438	-0.000438	-0.022050
35029	0.021873	0.083362	9.840593	0.999754	0.002442	-0.000438	-0.022053
35030	0.015117	0.077240	9.805793	0.999754	0.002437	-0.000436	-0.022036
35031	0.002873	0.064009	9.816419	0.999754	0.002444	-0.000439	-0.022036
35032	0.026241	0.064666	9.843034	0.999754	0.002446	-0.000438	-0.022038
35033	0.019328	0.071521	9.824411	0.999754	0.002444	-0.000443	-0.022051
35034	0.007074	0.058141	9.835038	0.999754	0.002431	-0.000438	-0.022042
35035	0.000587	0.045100	9.832261	0.999754	0.002435	-0.000428	-0.022036
35036	-0.006671	0.065014	9.829812	0.999754	0.002444	-0.000429	-0.022029
35037	0.004544	0.071916	9.851211	0.999754	0.002437	-0.000429	-0.022032
35038	0.003819	0.079081	9.819183	0.999754	0.002447	-0.000460	-0.022040
35039	0.033284	0.080025	9.832408	0.999754	0.002444	-0.000452	-0.022029
35040	0.020540	0.073504	9.811007	0.999754	0.002434	-0.000447	-0.022035
35041	0.002400	0.060129	9.835028	0.999754	0.002457	-0.000458	-0.022040
35042	0.025479	0.067650	9.829633	0.999754	0.002438	-0.000453	-0.022040
35043	0.025220	0.047951	9.845486	0.999754	0.002440	-0.000446	-0.022053
35044	0.018175	0.054857	9.826858	0.999754	0.002446	-0.000441	-0.022037
35045	0.016976	0.075059	9.811002	0.999754	0.002456	-0.000453	-0.022033
35046	0.004551	0.075031	9.837794	0.999754	0.002473	-0.000450	-0.022032
35047	0.027839	0.069636	9.816233	0.999754	0.002467	-0.000452	-0.022036
35048	0.027277	0.062756	9.848263	0.999754	0.002443	-0.000434	-0.022028
35049	0.020162	0.069539	9.829632	0.999754	0.002459	-0.000434	-0.022026
35050	0.025956	0.050368	9.832092	0.999754	0.002452	-0.000435	-0.022029
35051	0.018824	0.070141	9.829630	0.999754	0.002461	-0.000439	-0.022030
35052	0.012061	0.077150	9.810994	0.999754	0.002471	-0.000452	-0.022027
35053	0.023711	0.071271	9.816232	0.999754	0.002476	-0.000461	-0.022033
35054	0.023014	0.077727	9.864430	0.999754	0.002481	-0.000449	-0.022040
35055	0.016539	0.058792	9.813454	0.999754	0.002489	-0.000448	-0.022052
35056	0.009921	0.058861	9.826846	0.999754	0.002490	-0.000448	-0.022041
35057	0.009035	0.058920	9.826847	0.999754	0.002468	-0.000426	-0.022034
35058	0.020184	0.065641	9.848261	0.999754	0.002470	-0.000442	-0.022034
35059	-0.004243	0.065579	9.821598	0.999754	0.002473	-0.000455	-0.022026
35060	0.025051	0.066560	9.834868	0.999754	0.002476	-0.000449	-0.022040
35061	0.024253	0.066876	9.834868	0.999754	0.002478	-0.000447	-0.022042
35062	-0.006601	0.066360	9.821592	0.999754	0.002465	-0.000426	-0.022042
35063	0.010610	0.060402	9.813453	0.999754	0.002459	-0.000427	-0.022045
35064	0.034334	0.048134	9.823956	0.999754	0.002471	-0.000439	-0.022043
35065	0.003346	0.073999	9.843003	0.999754	0.002497	-0.000452	-0.022051
35066	0.014751	0.068086	9.848254	0.999754	0.002482	-0.000436	-0.022037
35067	0.013592	0.074983	9.816223	0.999754	0.002479	-0.000434	-0.022036
35068	0.001221	0.061639	9.826834	0.999754	0.002476	-0.000426	-0.022046
35069	0.006318	0.062178	9.813445	0.999754	0.002480	-0.000417	-0.022040
35070	0.017346	0.069178	9.834866	0.999754	0.002484	-0.000411	-0.022042
35071	0.016809	0.056486	9.818703	0.999754	0.002482	-0.000399	-0.022045
35072	0.021183	0.089855	9.805609	0.999754	0.002492	-0.000411	-0.022042
35073	0.014885	0.082987	9.851027	0.999754	0.002480	-0.000406	-0.022034
35074	0.020465	0.070576	9.821478	0.999754	0.002493	-0.000411	-0.022057
35075	0.002013	0.064027	9.813435	0.999753	0.002496	-0.000405	-0.022058
35076	0.007206	0.070780	9.848244	0.999753	0.002504	-0.000409	-0.022059
35077	-0.010897	0.051186	9.824038	0.999753	0.002502	-0.000410	-0.022065
35078	0.018128	0.059112	9.805312	0.999753	0.002515	-0.000415	-0.022068
35079	0.017039	0.072449	9.821471	0.999753	0.002514	-0.000402	-0.022071
35080	0.016347	0.072798	9.821469	0.999753	0.002524	-0.000412	-0.022068
35081	0.009414	0.079637	9.802815	0.999753	0.002519	-0.000395	-0.022062
35082	0.003418	0.059968	9.832072	0.999753	0.002540	-0.000418	-0.022068
35083	0.003000	0.060427	9.832069	0.999753	0.002539	-0.000422	-0.022062
35084	0.014457	0.054438	9.837342	0.999753	0.002542	-0.000418	-0.022064
35085	0.007469	0.061220	9.818686	0.999753	0.002536	-0.000411	-0.022072
35086	0.006885	0.054505	9.850722	0.999753	0.002525	-0.000407	-0.022077
35087	0.011661	0.067858	9.853499	0.999753	0.002523	-0.000396	-0.022067
35088	0.023250	0.055941	9.810581	0.999753	0.002548	-0.000406	-0.022074
35089	0.010841	0.055875	9.837338	0.999753	0.002546	-0.000415	-0.022075
35090	0.015434	0.076024	9.808077	0.999753	0.002532	-0.000394	-0.022074
35091	0.009057	0.056068	9.837339	0.999753	0.002532	-0.000384	-0.022079
35092	0.007718	0.076076	9.821455	0.999753	0.002532	-0.000387	-0.022074
35093	0.019177	0.069947	9.826738	0.999753	0.002520	-0.000381	-0.022066
35094	0.024398	0.070152	9.813363	0.999753	0.002499	-0.000381	-0.022073
35095	0.023824	0.063507	9.845402	0.999753	0.002511	-0.000371	-0.022072
35096	0.023129	0.064007	9.845400	0.999753	0.002524	-0.000379	-0.022083
35097	0.004305	0.077279	9.821448	0.999753	0.002536	-0.000388	-0.022081
35098	0.004189	0.057779	9.837332	0.999753	0.002528	-0.000376	-0.022080
35099	0.002868	0.077700	9.821445	0.999753	0.002529	-0.000381	-0.022097
35100	0.032506	0.065730	9.818649	0.999752	0.002530	-0.000380	-0.022105
35101	0.019246	0.085092	9.829511	0.999752	0.002521	-0.000373	-0.022111
35102	0.019346	0.052763	9.829247	0.999752	0.002548	-0.000367	-0.022120
35103	0.043175	0.040904	9.839831	0.999752	0.002556	-0.000394	-0.022114
35104	0.030036	0.067158	9.818648	0.999752	0.002545	-0.000387	-0.022106
35105	0.035446	0.060943	9.837316	0.999752	0.002563	-0.000381	-0.022117
35106	0.034628	0.068212	9.805274	0.999752	0.002571	-0.000392	-0.022113
35107	0.009965	0.074193	9.826720	0.999756	0.002515	-0.000568	-0.021960
35108	0.021776	0.055195	9.815870	0.999756	0.002508	-0.000563	-0.021954
35109	0.015085	0.055053	9.829241	0.999756	0.002501	-0.000564	-0.021957
35110	0.019910	0.068684	9.832017	0.999755	0.002522	-0.000555	-0.021962
35111	0.007144	0.075389	9.826714	0.999755	0.002524	-0.000571	-0.021962
35112	-0.005448	0.081872	9.821410	0.999755	0.002521	-0.000579	-0.021962
35113	0.018056	0.069570	9.832015	0.999755	0.002516	-0.000556	-0.021967
35114	0.011750	0.056529	9.829238	0.999755	0.002517	-0.000572	-0.021965
35115	0.023071	0.057418	9.802499	0.999755	0.002522	-0.000558	-0.021972
35116	0.015927	0.070419	9.832012	0.999755	0.002521	-0.000559	-0.021966
35117	0.015161	0.070725	9.832011	0.999755	0.002527	-0.000547	-0.021974
35118	0.014796	0.058056	9.815866	0.999755	0.002527	-0.000551	-0.021969
35119	0.008198	0.058096	9.829232	0.999755	0.002535	-0.000554	-0.021969
35120	0.013699	0.051928	9.847908	0.999756	0.002536	-0.000553	-0.021957
35121	0.006922	0.058828	9.829229	0.999755	0.002549	-0.000560	-0.021968
35122	0.023883	0.066240	9.837316	0.999755	0.002551	-0.000543	-0.021965
35123	-0.006730	0.065728	9.823912	0.999755	0.002554	-0.000556	-0.021958
35124	0.028523	0.067061	9.823951	0.999756	0.002550	-0.000550	-0.021955
35125	0.015298	0.086603	9.834775	0.999756	0.002562	-0.000556	-0.021944
35126	0.027173	0.067678	9.823950	0.999756	0.002552	-0.000549	-0.021949
35127	-0.003929	0.080094	9.826678	0.999756	0.002563	-0.000542	-0.021936
35128	0.008262	0.054552	9.847900	0.999756	0.002569	-0.000564	-0.021945
35129	0.013155	0.074794	9.818629	0.999756	0.002554	-0.000560	-0.021934
35130	0.007553	0.042096	9.831759	0.999756	0.002573	-0.000570	-0.021936
35131	-0.005608	0.061753	9.842574	0.999756	0.002574	-0.000568	-0.021924
35132	-0.000456	0.069081	9.797163	0.999756	0.002572	-0.000570	-0.021930
35133	0.022773	0.069886	9.823946	0.999756	0.002572	-0.000572	-0.021924
35134	0.016312	0.063231	9.869353	0.999756	0.002586	-0.000573	-0.021927
35135	0.039939	0.057856	9.847956	0.999756	0.002573	-0.000586	-0.021930
35136	0.002991	0.076617	9.831978	0.999756	0.002572	-0.000591	-0.021944
35137	-0.009123	0.063439	9.842560	0.999755	0.002585	-0.000598	-0.021955
35138	0.013901	0.071047	9.837302	0.999756	0.002574	-0.000587	-0.021939
35139	0.031759	0.052278	9.813136	0.999756	0.002572	-0.000587	-0.021931
35140	0.025191	0.052375	9.826495	0.999756	0.002585	-0.000596	-0.021942
35141	-0.000197	0.078182	9.831967	0.999756	0.002588	-0.000592	-0.021944
35142	0.010401	0.092039	9.821382	0.999756	0.002592	-0.000568	-0.021947
35143	0.027764	0.086281	9.813357	0.999756	0.002578	-0.000579	-0.021949
35144	0.016033	0.059773	9.807806	0.999756	0.002568	-0.000569	-0.021953
35145	0.021536	0.053546	9.826498	0.999756	0.002579	-0.000581	-0.021951
35146	0.026430	0.067154	9.829273	0.999756	0.002575	-0.000572	-0.021940
35147	0.008095	0.053486	9.853210	0.999756	0.002567	-0.000570	-0.021941
35148	0.030942	0.067889	9.815919	0.999756	0.002577	-0.000563	-0.021927
35149	0.035786	0.081518	9.818694	0.999756	0.002576	-0.000567	-0.021920
35150	0.018032	0.054959	9.826497	0.999756	0.002578	-0.000567	-0.021929
35151	0.016929	0.068131	9.842628	0.999756	0.002570	-0.000568	-0.021919
35152	0.016831	0.055293	9.826497	0.999756	0.002569	-0.000576	-0.021920
35153	0.010176	0.055270	9.839850	0.999756	0.002570	-0.000574	-0.021921
35154	0.009340	0.062313	9.807799	0.999756	0.002573	-0.000574	-0.021930
35155	0.026472	0.069614	9.815919	0.999756	0.002570	-0.000586	-0.021918
35156	0.008207	0.055986	9.839848	0.999756	0.002569	-0.000575	-0.021922
35157	0.007327	0.063120	9.807795	0.999756	0.002586	-0.000575	-0.021928
35158	0.018364	0.070621	9.829267	0.999756	0.002619	-0.000577	-0.021924
35159	0.023807	0.064354	9.847968	0.999756	0.002583	-0.000577	-0.021920
35160	0.011039	0.070420	9.842620	0.999756	0.002581	-0.000585	-0.021922
35161	0.004363	0.077107	9.823918	0.999756	0.002579	-0.000592	-0.021936
35162	0.021943	0.071435	9.815918	0.999756	0.002579	-0.000595	-0.021930
35163	-0.008329	0.064152	9.834487	0.999756	0.002589	-0.000606	-0.021927
35164	0.002787	0.078030	9.823911	0.999756	0.002584	-0.000617	-0.021933
35165	0.014911	0.059055	9.813138	0.999756	0.002585	-0.000621	-0.021929
35166	0.014347	0.059355	9.813137	0.999756	0.002591	-0.000628	-0.021935
35167	0.030824	0.079583	9.837394	0.999756	0.002576	-0.000617	-0.021930
35168	0.006896	0.059278	9.826486	0.999756	0.002572	-0.000626	-0.021930
35169	0.018059	0.073140	9.815913	0.999756	0.002579	-0.000645	-0.021939
35170	0.024091	0.053770	9.818495	0.999756	0.002554	-0.000633	-0.021927
35171	0.017425	0.053598	9.831843	0.999756	0.002564	-0.000649	-0.021932
35172	0.010264	0.073420	9.829259	0.999756	0.002565	-0.000648	-0.021919
35173	-0.008075	0.066660	9.821119	0.999756	0.002571	-0.000652	-0.021918
35174	-0.008735	0.066999	9.821116	0.999757	0.002572	-0.000651	-0.021905
35175	0.009000	0.054654	9.845185	0.999757	0.002576	-0.000664	-0.021906
35176	0.032087	0.069065	9.807924	0.999757	0.002576	-0.000661	-0.021892
35177	0.025417	0.068894	9.821271	0.999757	0.002559	-0.000663	-0.021896
35178	0.013220	0.055590	9.831839	0.999757	0.002574	-0.000662	-0.021893
35179	0.000256	0.062166	9.826470	0.999757	0.002573	-0.000650	-0.021896
35180	0.017165	0.069508	9.834613	0.999757	0.002571	-0.000655	-0.021889
35181	0.017024	0.056847	9.818493	0.999757	0.002581	-0.000656	-0.021883
35182	0.028063	0.063917	9.839981	0.999757	0.002571	-0.000665	-0.021900
35183	0.015365	0.070305	9.834611	0.999757	0.002579	-0.000669	-0.021899
35184	0.015051	0.057567	9.818492	0.999757	0.002572	-0.000649	-0.021904
35185	0.019805	0.071010	9.821269	0.999757	0.002570	-0.000660	-0.021892
35186	0.025835	0.051657	9.823866	0.999757	0.002558	-0.000652	-0.021884
35187	0.006472	0.070729	9.847951	0.999757	0.002564	-0.000661	-0.021890
35188	0.023502	0.085027	9.824044	0.999757	0.002579	-0.000665	-0.021895
35189	0.005104	0.078203	9.815889	0.999757	0.002571	-0.000656	-0.021882
35190	0.004433	0.071625	9.847945	0.999757	0.002573	-0.000659	-0.021878
35191	0.028697	0.053302	9.810527	0.999757	0.002577	-0.000669	-0.021891
35192	0.016040	0.053041	9.837205	0.999757	0.002578	-0.000669	-0.021879
35193	0.009267	0.059752	9.818486	0.999756	0.002579	-0.000669	-0.021906
35194	0.014077	0.073245	9.821262	0.999757	0.002575	-0.000666	-0.021904
35195	-0.004736	0.079368	9.829217	0.999757	0.002581	-0.000679	-0.021898
35196	0.006828	0.080221	9.802539	0.999757	0.002581	-0.000683	-0.021893
35197	0.006743	0.060696	9.818482	0.999757	0.002576	-0.000678	-0.021889
35198	0.005982	0.060929	9.818481	0.999757	0.002577	-0.000673	-0.021889
35199	0.011272	0.054746	9.837202	0.999757	0.002574	-0.000662	-0.021878
35200	0.004365	0.061435	9.818479	0.999757	0.002577	-0.000654	-0.021879
35201	0.015295	0.068410	9.839979	0.999757	0.002561	-0.000656	-0.021884
35202	0.026334	0.082042	9.829422	0.999757	0.002557	-0.000671	-0.021872
35203	0.002700	0.061882	9.818476	0.999757	0.002562	-0.000681	-0.021877
35204	0.031185	0.082886	9.816087	0.999757	0.002561	-0.000667	-0.021881
35205	0.001798	0.042541	9.834422	0.999757	0.002547	-0.000669	-0.021879
35206	0.011996	0.069222	9.839978	0.999757	0.002547	-0.000655	-0.021883
35207	0.030289	0.050693	9.815926	0.999757	0.002559	-0.000686	-0.021879
35208	0.017250	0.070052	9.826643	0.999757	0.002541	-0.000690	-0.021883
35209	0.016679	0.070133	9.826643	0.999757	0.002538	-0.000696	-0.021896
35210	0.028240	0.064227	9.832038	0.999757	0.002537	-0.000698	-0.021890
35211	0.003171	0.076750	9.821245	0.999757	0.002536	-0.000684	-0.021893
35212	0.015112	0.057840	9.810532	0.999757	0.002537	-0.000686	-0.021901
35213	-0.003745	0.064031	9.818462	0.999757	0.002544	-0.000688	-0.021900
35214	0.007551	0.058237	9.823860	0.999757	0.002548	-0.000663	-0.021890
35215	0.000239	0.078081	9.821235	0.999756	0.002559	-0.000689	-0.021911
35216	0.017841	0.072400	9.813306	0.999757	0.002538	-0.000668	-0.021906
35217	0.016973	0.065905	9.845367	0.999757	0.002554	-0.000668	-0.021903
35218	0.005378	0.039939	9.839808	0.999757	0.002575	-0.000672	-0.021899
35219	0.015750	0.066996	9.845362	0.999757	0.002577	-0.000674	-0.021895
35220	0.015127	0.074019	9.813299	0.999757	0.002584	-0.000679	-0.021894
35221	0.020597	0.067924	9.832032	0.999757	0.002584	-0.000680	-0.021889
35222	0.009035	0.041647	9.826476	0.999757	0.002591	-0.000680	-0.021888
35223	0.019851	0.055528	9.815927	0.999757	0.002592	-0.000668	-0.021880
35224	0.018566	0.068750	9.832030	0.999757	0.002589	-0.000675	-0.021881
35225	0.005799	0.075277	9.826617	0.999757	0.002608	-0.000677	-0.021880
35226	0.011867	0.049623	9.861313	0.999757	0.002612	-0.000685	-0.021885
35227	0.016774	0.069922	9.832025	0.999756	0.002583	-0.000559	-0.021937
35228	0.010667	0.056804	9.829248	0.999756	0.002578	-0.000559	-0.021941
35229	0.015495	0.070440	9.832024	0.999756	0.002592	-0.000560	-0.021944
35230	0.020888	0.071076	9.818698	0.999756	0.002587	-0.000554	-0.021940
35231	0.014121	0.071072	9.832021	0.999756	0.002596	-0.000556	-0.021941
35232	0.025561	0.065164	9.837439	0.999756	0.002585	-0.000545	-0.021946
35233	0.000575	0.070843	9.858666	0.999756	0.002583	-0.000552	-0.021947
35234	0.024255	0.065621	9.837439	0.999755	0.002593	-0.000546	-0.021953
35235	0.023640	0.066094	9.837438	0.999755	0.002606	-0.000557	-0.021952
35236	-0.001201	0.071933	9.858658	0.999755	0.002599	-0.000561	-0.021962
35237	0.028620	0.066827	9.824116	0.999755	0.002599	-0.000564	-0.021957
35238	0.021969	0.066848	9.837437	0.999755	0.002604	-0.000572	-0.021963
35239	0.021913	0.054103	9.821339	0.999755	0.002602	-0.000562	-0.021953
35240	0.021230	0.054308	9.821339	0.999755	0.002600	-0.000570	-0.021955
35241	0.014017	0.073940	9.818689	0.999755	0.002598	-0.000578	-0.021956
35242	0.013302	0.074230	9.818688	0.999755	0.002604	-0.000565	-0.021964
35243	0.019927	0.035531	9.837309	0.999755	0.002615	-0.000577	-0.021961
35244	0.012002	0.075055	9.818684	0.999755	0.002618	-0.000572	-0.021962
35245	0.011929	0.055555	9.834655	0.999755	0.002610	-0.000576	-0.021952
35246	0.016647	0.069089	9.837432	0.999756	0.002615	-0.000567	-0.021948
35247	-0.001842	0.062174	9.829221	0.999756	0.002612	-0.000553	-0.021950
35248	0.033201	0.063955	9.829547	0.999756	0.002629	-0.000553	-0.021948
35249	0.008926	0.063688	9.802582	0.999755	0.002642	-0.000559	-0.021958
35250	0.019669	0.070921	9.824109	0.999755	0.002636	-0.000540	-0.021951
35251	0.019368	0.057984	9.808019	0.999755	0.002627	-0.000528	-0.021949
35252	0.018612	0.051530	9.840087	0.999755	0.002631	-0.000537	-0.021954
35253	0.023519	0.065211	9.842863	0.999756	0.002637	-0.000542	-0.021941
35254	0.016881	0.071983	9.824107	0.999756	0.002643	-0.000546	-0.021938
35255	-0.007331	0.064697	9.829202	0.999756	0.002630	-0.000560	-0.021941
35256	0.021760	0.072542	9.810793	0.999756	0.002623	-0.000542	-0.021933
35257	0.008699	0.072176	9.837420	0.999756	0.002626	-0.000542	-0.021922
35258	0.002698	0.059089	9.834642	0.999756	0.002621	-0.000553	-0.021929
35259	0.007594	0.072550	9.837418	0.999756	0.002614	-0.000553	-0.021932
35260	0.001447	0.059301	9.834641	0.999756	0.002603	-0.000551	-0.021925
35261	0.023787	0.080041	9.845641	0.999756	0.002609	-0.000553	-0.021923
35262	0.023924	0.067376	9.829551	0.999756	0.002613	-0.000565	-0.021916
35263	-0.007183	0.079711	9.831963	0.999756	0.002628	-0.000550	-0.021930
35264	0.029072	0.048386	9.832225	0.999756	0.002588	-0.000540	-0.021929
35265	0.016254	0.054602	9.826775	0.999756	0.002614	-0.000552	-0.021935
35266	0.008158	0.087476	9.840186	0.999756	0.002606	-0.000538	-0.021934
35267	0.026349	0.068870	9.816242	0.999756	0.002613	-0.000541	-0.021934
35268	0.019597	0.068922	9.829550	0.999756	0.002614	-0.000543	-0.021942
35269	0.013486	0.055882	9.826772	0.999756	0.002616	-0.000542	-0.021930
35270	0.042639	0.057413	9.840460	0.999756	0.002629	-0.000551	-0.021929
35271	0.017616	0.069806	9.829547	0.999756	0.002613	-0.000534	-0.021935
35272	-0.000783	0.056144	9.853383	0.999756	0.002625	-0.000541	-0.021945
35273	0.022378	0.070866	9.816238	0.999756	0.002642	-0.000538	-0.021942
35274	0.028481	0.052016	9.818919	0.999756	0.002656	-0.000541	-0.021933
35275	0.015744	0.058486	9.813457	0.999756	0.002655	-0.000545	-0.021928
35276	0.013929	0.084882	9.845619	0.999756	0.002664	-0.000568	-0.021927
35277	0.014070	0.072072	9.829537	0.999756	0.002655	-0.000554	-0.021925
35278	0.013087	0.072102	9.829538	0.999756	0.002641	-0.000535	-0.021925
35279	0.000099	0.078224	9.824074	0.999756	0.002634	-0.000538	-0.021916
35280	0.018458	0.053184	9.832225	0.999756	0.002662	-0.000546	-0.021924
35281	0.011227	0.073084	9.829533	0.999756	0.002658	-0.000554	-0.021923
35282	-0.000948	0.059661	9.840059	0.999756	0.002653	-0.000550	-0.021920
35283	0.009783	0.073526	9.829531	0.999756	0.002659	-0.000542	-0.021915
35284	0.015842	0.054479	9.832223	0.999756	0.002663	-0.000549	-0.021921
35285	0.026517	0.061761	9.853772	0.999756	0.002665	-0.000533	-0.021919
35286	0.019607	0.068405	9.834998	0.999756	0.002668	-0.000531	-0.021921
35287	0.019044	0.068710	9.834997	0.999756	0.002672	-0.000548	-0.021921
35288	0.013680	0.042543	9.816144	0.999756	0.002663	-0.000530	-0.021912
35289	0.029019	0.082591	9.824475	0.999756	0.002652	-0.000528	-0.021905
35290	0.017621	0.056176	9.818921	0.999756	0.002664	-0.000540	-0.021923
35291	0.004911	0.056087	9.845518	0.999756	0.002673	-0.000548	-0.021918
35292	0.016569	0.057053	9.818918	0.999756	0.002676	-0.000543	-0.021919
35293	0.008866	0.070009	9.848292	0.999756	0.002667	-0.000532	-0.021918
35294	-0.003190	0.063213	9.826736	0.999756	0.002669	-0.000548	-0.021917
35295	0.025912	0.064664	9.840473	0.999756	0.002665	-0.000540	-0.021906
35296	0.019237	0.071356	9.821693	0.999756	0.002676	-0.000553	-0.021903
35297	0.011693	0.084243	9.851064	0.999756	0.002651	-0.000544	-0.021913
35298	0.017838	0.071559	9.821694	0.999756	0.002659	-0.000549	-0.021913
35299	0.005119	0.078000	9.816208	0.999756	0.002664	-0.000555	-0.021918
35300	0.017135	0.052574	9.837696	0.999756	0.002664	-0.000540	-0.021915
35301	0.004097	0.058920	9.832209	0.999756	0.002668	-0.000538	-0.021917
35302	0.015521	0.053162	9.837696	0.999756	0.002671	-0.000539	-0.021907
35303	0.014095	0.073094	9.821689	0.999756	0.002669	-0.000528	-0.021910
35304	0.001750	0.059881	9.832204	0.999756	0.002685	-0.000527	-0.021907
35305	0.024561	0.067657	9.827179	0.999756	0.002664	-0.000507	-0.021903
35306	0.005470	0.073677	9.834978	0.999756	0.002686	-0.000514	-0.021920
35307	0.024093	0.055410	9.811107	0.999756	0.002695	-0.000529	-0.021923
35308	0.016620	0.068409	9.840468	0.999756	0.002684	-0.000525	-0.021916
35309	0.015882	0.068489	9.840468	0.999756	0.002677	-0.000522	-0.021930
35310	0.004303	0.042000	9.834914	0.999756	0.002675	-0.000512	-0.021934
35311	-0.003905	0.074563	9.848261	0.999756	0.002662	-0.000525	-0.021936
35312	-0.009224	0.048388	9.829415	0.999756	0.002671	-0.000508	-0.021938
35313	0.025087	0.063284	9.845967	0.999756	0.002670	-0.000518	-0.021940
35314	0.018546	0.069764	9.827177	0.999755	0.002660	-0.000524	-0.021949
35315	0.017856	0.069900	9.827177	0.999755	0.002657	-0.000520	-0.021960
35316	0.023926	0.050734	9.829902	0.999755	0.002658	-0.000521	-0.021955
35317	-0.001021	0.063007	9.818896	0.999755	0.002652	-0.000522	-0.021958
35318	0.004317	0.056727	9.837687	0.999755	0.002637	-0.000523	-0.021957
35319	0.015214	0.070542	9.827177	0.999755	0.002645	-0.000526	-0.021957
35320	0.020718	0.071172	9.813889	0.999756	0.002646	-0.000523	-0.021944
35321	0.007693	0.070888	9.840461	0.999756	0.002648	-0.000520	-0.021932
35322	0.013199	0.071443	9.827174	0.999756	0.002649	-0.000524	-0.021928
35323	0.019379	0.052312	9.829904	0.999756	0.002648	-0.000527	-0.021922
35324	0.012733	0.058905	9.811108	0.999756	0.002651	-0.000526	-0.021911
35325	0.010332	0.085276	9.843234	0.999756	0.002649	-0.000512	-0.021914
35326	0.004403	0.072238	9.840453	0.999756	0.002655	-0.000536	-0.021911
35327	0.017004	0.060046	9.797821	0.999756	0.002654	-0.000527	-0.021902
35328	0.010157	0.059965	9.811105	0.999756	0.002652	-0.000532	-0.021904
35329	0.020845	0.067265	9.832680	0.999756	0.002657	-0.000525	-0.021919
35330	0.008023	0.073647	9.827163	0.999756	0.002661	-0.000534	-0.021924
35331	0.014082	0.054425	9.829901	0.999756	0.002649	-0.000518	-0.021934
35332	0.024754	0.068115	9.819399	0.999756	0.002644	-0.000514	-0.021930
35333	0.000509	0.060741	9.824383	0.999756	0.002646	-0.000532	-0.021929
35334	0.004662	0.087309	9.843220	0.999756	0.002633	-0.000546	-0.021931
35335	0.017747	0.048921	9.848701	0.999756	0.002655	-0.000551	-0.021940
35336	0.022634	0.069366	9.819395	0.999756	0.002657	-0.000548	-0.021929
35337	0.003454	0.075155	9.827154	0.999756	0.002634	-0.000529	-0.021910
35338	0.008559	0.068755	9.845958	0.999757	0.002624	-0.000523	-0.021903
35339	0.020184	0.069482	9.819400	0.999757	0.002626	-0.000521	-0.021891
35340	0.008000	0.056114	9.829899	0.999757	0.002625	-0.000524	-0.021886
35341	0.000512	0.075768	9.827150	0.999757	0.002629	-0.000520	-0.021888
35342	0.006561	0.056633	9.829897	0.999757	0.002625	-0.000516	-0.021886
35343	0.011533	0.076524	9.800594	0.999757	0.002596	-0.000529	-0.021877
35344	-0.006161	0.042966	9.840395	0.999757	0.002599	-0.000523	-0.021890
35345	0.021389	0.083949	9.822179	0.999757	0.002606	-0.000513	-0.021868
35346	-0.008149	0.063407	9.824363	0.999757	0.002617	-0.000542	-0.021875
35347	0.015773	0.051683	9.835424	0.999756	0.002649	-0.000569	-0.021916
35348	0.019565	0.078320	9.854258	0.999756	0.002652	-0.000564	-0.021918
35349	0.007615	0.071534	9.832669	0.999756	0.002648	-0.000572	-0.021917
35350	0.025520	0.066064	9.824927	0.999756	0.002649	-0.000587	-0.021915
35351	0.013482	0.052634	9.835422	0.999756	0.002645	-0.000586	-0.021921
35352	0.012992	0.059443	9.803337	0.999756	0.002649	-0.000579	-0.021923
35353	0.022715	0.080015	9.840979	0.999756	0.002666	-0.000579	-0.021921
35354	0.022911	0.067294	9.824925	0.999756	0.002658	-0.000582	-0.021910
35355	0.004832	0.060117	9.816607	0.999756	0.002656	-0.000588	-0.021924
35356	0.021484	0.061135	9.857010	0.999756	0.002657	-0.000588	-0.021932
35357	0.015739	0.054777	9.822145	0.999756	0.002672	-0.000593	-0.021936
35358	0.015057	0.055059	9.822144	0.999756	0.002660	-0.000589	-0.021928
35359	0.019778	0.068448	9.824924	0.999756	0.002649	-0.000599	-0.021944
35360	0.025127	0.062336	9.843739	0.999756	0.002649	-0.000596	-0.021944
35361	0.019152	0.055774	9.808874	0.999756	0.002643	-0.000579	-0.021937
35362	0.017414	0.062526	9.857009	0.999755	0.002651	-0.000599	-0.021947
35363	0.011811	0.056035	9.822143	0.999756	0.002647	-0.000594	-0.021944
35364	0.016427	0.069690	9.824921	0.999755	0.002655	-0.000594	-0.021956
35365	0.015765	0.069890	9.824921	0.999755	0.002638	-0.000594	-0.021952
35366	0.015671	0.050468	9.840959	0.999756	0.002649	-0.000587	-0.021938
35367	0.020603	0.070670	9.811651	0.999755	0.002638	-0.000599	-0.021954
35368	0.013788	0.070561	9.824919	0.999755	0.002640	-0.000594	-0.021954
35369	0.019991	0.051467	9.827691	0.999755	0.002637	-0.000601	-0.021955
35370	0.000948	0.057529	9.835404	0.999755	0.002650	-0.000594	-0.021955
35371	0.018578	0.052202	9.827690	0.999755	0.002650	-0.000598	-0.021951
35372	0.010217	0.084820	9.840959	0.999755	0.002643	-0.000598	-0.021953
35373	0.017317	0.052429	9.827691	0.999756	0.002627	-0.000601	-0.021938
35374	0.009844	0.071823	9.824915	0.999756	0.002622	-0.000604	-0.021943
35375	0.015513	0.072339	9.811649	0.999755	0.002625	-0.000617	-0.021955
35376	0.026703	0.059999	9.849295	0.999756	0.002618	-0.000600	-0.021947
35377	0.007458	0.065760	9.857001	0.999756	0.002605	-0.000597	-0.021938
35378	0.018249	0.079644	9.846517	0.999756	0.002616	-0.000596	-0.021932
35379	0.018440	0.066790	9.830473	0.999756	0.002603	-0.000593	-0.021944
35380	0.023843	0.067196	9.817211	0.999756	0.002602	-0.000582	-0.021948
35381	0.004446	0.066559	9.856997	0.999756	0.002600	-0.000588	-0.021942
35382	0.004916	0.060272	9.808865	0.999755	0.002598	-0.000582	-0.021953
35383	0.010220	0.054115	9.827692	0.999755	0.002588	-0.000593	-0.021969
35384	0.015756	0.054616	9.814431	0.999756	0.002593	-0.000581	-0.021944
35385	0.008716	0.054663	9.827690	0.999756	0.002594	-0.000577	-0.021944
35386	0.048253	0.083168	9.847171	0.999756	0.002603	-0.000579	-0.021945
35387	0.012651	0.068748	9.830468	0.999756	0.002606	-0.000575	-0.021946
35388	0.005870	0.068838	9.843726	0.999755	0.002616	-0.000592	-0.021951
35389	0.005494	0.075526	9.811635	0.999755	0.002595	-0.000575	-0.021954
35390	0.035839	0.044422	9.825573	0.999755	0.002610	-0.000574	-0.021951
35391	0.009398	0.089549	9.814412	0.999755	0.002612	-0.000585	-0.021962
35392	0.009328	0.070130	9.830462	0.999755	0.002607	-0.000567	-0.021956
35393	0.015535	0.050761	9.833258	0.999755	0.002586	-0.000586	-0.021960
35394	0.020050	0.064085	9.836041	0.999756	0.002579	-0.000554	-0.021950
35395	-0.011444	0.075905	9.838141	0.999755	0.002581	-0.000553	-0.021958
35396	0.006475	0.070497	9.830462	0.999755	0.002580	-0.000572	-0.021962
35397	0.019182	0.051686	9.820003	0.999755	0.002578	-0.000579	-0.021964
35398	-0.006704	0.076892	9.824879	0.999755	0.002574	-0.000576	-0.021961
35399	0.015867	0.078220	9.852077	0.999756	0.002573	-0.000566	-0.021953
35400	0.016032	0.065386	9.836040	0.999756	0.002574	-0.000567	-0.021941
35401	0.003120	0.071516	9.830456	0.999756	0.002563	-0.000560	-0.021946
35402	0.020851	0.065972	9.822787	0.999756	0.002562	-0.000568	-0.021948
35403	0.026265	0.059927	9.841625	0.999756	0.002560	-0.000577	-0.021950
35404	0.038148	0.060688	9.815121	0.999756	0.002555	-0.000577	-0.021954
35405	0.012248	0.085886	9.819982	0.999756	0.002557	-0.000582	-0.021951
35406	0.006594	0.046613	9.865347	0.999756	0.002561	-0.000573	-0.021932
35407	0.023466	0.060871	9.841626	0.999756	0.002561	-0.000558	-0.021950
35408	0.023075	0.067643	9.809535	0.999756	0.002558	-0.000567	-0.021937
35409	0.010927	0.054234	9.820002	0.999756	0.002562	-0.000559	-0.021952
35410	0.014361	0.081062	9.838816	0.999756	0.002570	-0.000543	-0.021941
35411	0.021282	0.048876	9.825594	0.999756	0.002561	-0.000533	-0.021940
35412	-0.003815	0.061041	9.814405	0.999756	0.002570	-0.000534	-0.021953
35413	0.018897	0.062554	9.841626	0.999756	0.002569	-0.000536	-0.021947
35414	0.018615	0.069208	9.809533	0.999755	0.002556	-0.000537	-0.021966
35415	0.017549	0.062898	9.841626	0.999755	0.002568	-0.000528	-0.021965
35416	0.017842	0.050172	9.825595	0.999755	0.002566	-0.000535	-0.021967
35417	0.022627	0.063906	9.828377	0.999755	0.002577	-0.000548	-0.021964
35418	-0.001624	0.056493	9.833239	0.999756	0.002568	-0.000548	-0.021945
35419	0.003088	0.069958	9.836021	0.999756	0.002554	-0.000561	-0.021945
35420	0.009444	0.050778	9.838839	0.999756	0.002554	-0.000562	-0.021953
35421	0.025488	0.078000	9.831160	0.999756	0.002543	-0.000556	-0.021958
35422	-0.004031	0.057054	9.833235	0.999756	0.002544	-0.000572	-0.021956
35423	0.026126	0.052163	9.799106	0.999756	0.002533	-0.000549	-0.021951
35424	0.018083	0.065213	9.828377	0.999756	0.002546	-0.000559	-0.021949
35425	0.006431	0.058571	9.806741	0.999755	0.002560	-0.000568	-0.021961
35426	0.005253	0.052307	9.838835	0.999756	0.002549	-0.000543	-0.021956
35427	0.003630	0.072040	9.822766	0.999755	0.002548	-0.000536	-0.021967
35428	0.020982	0.060083	9.847228	0.999755	0.002548	-0.000538	-0.021962
35429	0.031786	0.073989	9.836770	0.999755	0.002545	-0.000531	-0.021972
35430	0.008384	0.053389	9.825590	0.999755	0.002546	-0.000533	-0.021980
35431	0.011877	0.080107	9.844398	0.999755	0.002545	-0.000523	-0.021971
35432	-0.005153	0.059899	9.819974	0.999756	0.002554	-0.000537	-0.021955
35433	0.017814	0.068089	9.815130	0.999755	0.002564	-0.000519	-0.021958
35434	0.010918	0.068208	9.828368	0.999755	0.002572	-0.000540	-0.021969
35435	0.017389	0.049294	9.831200	0.999755	0.002578	-0.000542	-0.021967
35436	0.021909	0.062987	9.833983	0.999755	0.002576	-0.000533	-0.021958
35437	0.015336	0.069426	9.815125	0.999755	0.002575	-0.000544	-0.021961
35438	0.032807	0.057287	9.839604	0.999756	0.002554	-0.000545	-0.021954
35439	0.025141	0.076775	9.836768	0.999756	0.002567	-0.000535	-0.021955
35440	0.008079	0.056580	9.812341	0.999755	0.002567	-0.000544	-0.021958
35441	0.018553	0.064024	9.833983	0.999755	0.002573	-0.000537	-0.021974
35442	0.005760	0.070368	9.828357	0.999755	0.002585	-0.000549	-0.021972
35443	0.005154	0.070696	9.828355	0.999755	0.002583	-0.000542	-0.021971
35444	0.017759	0.051846	9.817962	0.999755	0.002579	-0.000556	-0.021979
35445	0.027579	0.078762	9.823528	0.999755	0.002572	-0.000546	-0.021979
35446	0.009929	0.051905	9.831197	0.999755	0.002579	-0.000535	-0.021988
35447	0.020687	0.065688	9.820747	0.999755	0.002557	-0.000536	-0.021969
35448	0.013861	0.065398	9.833981	0.999755	0.002555	-0.000544	-0.021971
35449	0.007465	0.071983	9.815115	0.999755	0.002567	-0.000553	-0.021981
35450	0.019640	0.046791	9.836827	0.999755	0.002563	-0.000548	-0.021977
35451	0.018263	0.066708	9.820745	0.999755	0.002573	-0.000547	-0.021971
35452	0.023443	0.060858	9.839609	0.999755	0.002575	-0.000543	-0.021960
35453	0.010680	0.067029	9.833974	0.999755	0.002572	-0.000553	-0.021960
35454	0.010094	0.067352	9.833973	0.999755	0.002582	-0.000556	-0.021975
35455	0.021619	0.061703	9.839608	0.999755	0.002575	-0.000561	-0.021965
35456	0.015037	0.067988	9.820741	0.999755	0.002564	-0.000554	-0.021970
35457	0.021338	0.048942	9.823596	0.999755	0.002575	-0.000565	-0.021967
35458	0.026034	0.062639	9.826378	0.999756	0.002565	-0.000567	-0.021955
35459	0.000104	0.087722	9.831111	0.999755	0.002565	-0.000575	-0.021958
35460	0.013415	0.049411	9.836824	0.999755	0.002571	-0.000578	-0.021957
35461	-0.011657	0.061622	9.825539	0.999755	0.002576	-0.000564	-0.021963
35462	0.005982	0.056421	9.817951	0.999755	0.002588	-0.000564	-0.021958
35463	0.010644	0.070207	9.820731	0.999755	0.002591	-0.000578	-0.021971
35464	0.029088	0.045340	9.829238	0.999756	0.002598	-0.000567	-0.021947
35465	0.026642	0.078203	9.829158	0.999756	0.002582	-0.000574	-0.021952
35466	0.014451	0.064645	9.839603	0.999755	0.002587	-0.000568	-0.021968
35467	0.002513	0.057580	9.817945	0.999758	0.002751	-0.000573	-0.021834
35468	0.026078	0.045940	9.829243	0.999758	0.002758	-0.000577	-0.021833
35469	0.023787	0.079111	9.829158	0.999757	0.002772	-0.000585	-0.021844
35470	0.018014	0.066169	9.826373	0.999757	0.002778	-0.000591	-0.021843
35471	0.017259	0.066486	9.826372	0.999757	0.002778	-0.000580	-0.021847
35472	0.023356	0.047168	9.829244	0.999757	0.002752	-0.000573	-0.021843
35473	-0.001588	0.059080	9.817937	0.999757	0.002764	-0.000585	-0.021840
35474	0.008830	0.066636	9.839596	0.999758	0.002763	-0.000576	-0.021832
35475	0.008559	0.073354	9.807494	0.999757	0.002763	-0.000582	-0.021847
35476	0.020591	0.048187	9.829246	0.999757	0.002771	-0.000564	-0.021848
35477	0.025043	0.061836	9.832029	0.999757	0.002762	-0.000572	-0.021845
35478	0.012376	0.067947	9.826370	0.999757	0.002767	-0.000579	-0.021850
35479	0.012916	0.055225	9.810364	0.999757	0.002775	-0.000583	-0.021850
35480	0.023147	0.062715	9.832028	0.999757	0.002770	-0.000566	-0.021856
35481	0.010018	0.068860	9.826366	0.999758	0.002776	-0.000554	-0.021832
35482	0.021475	0.063337	9.832028	0.999758	0.002780	-0.000561	-0.021836
35483	0.008711	0.069631	9.826362	0.999758	0.002791	-0.000561	-0.021830
35484	0.027223	0.044851	9.834909	0.999757	0.002797	-0.000572	-0.021836
35485	0.013323	0.064192	9.845243	0.999757	0.002799	-0.000567	-0.021837
35486	0.025352	0.065041	9.818806	0.999757	0.002798	-0.000579	-0.021847
35487	0.018416	0.064933	9.832024	0.999757	0.002795	-0.000570	-0.021837
35488	0.017738	0.065144	9.832024	0.999757	0.002794	-0.000578	-0.021839
35489	-0.000366	0.057932	9.823570	0.999757	0.002803	-0.000562	-0.021841
35490	0.027729	0.079492	9.821589	0.999757	0.002801	-0.000570	-0.021842
35491	0.003515	0.071896	9.826349	0.999757	0.002800	-0.000572	-0.021836
35492	0.003932	0.059081	9.810349	0.999757	0.002806	-0.000563	-0.021852
35493	0.020649	0.066807	9.818805	0.999758	0.002796	-0.000573	-0.021835
35494	0.050801	0.055481	9.816941	0.999757	0.002794	-0.000583	-0.021836
35495	0.013149	0.067011	9.832018	0.999757	0.002808	-0.000571	-0.021849
35496	-0.004925	0.059708	9.823558	0.999757	0.002793	-0.000575	-0.021855
35497	0.030016	0.061891	9.824483	0.999757	0.002808	-0.000549	-0.021846
35498	0.028102	0.075557	9.840477	0.999757	0.002827	-0.000565	-0.021856
35499	0.004997	0.054923	9.829231	0.999757	0.002815	-0.000559	-0.021860
35500	0.014455	0.081911	9.834795	0.999757	0.002816	-0.000541	-0.021857
35501	0.026342	0.082755	9.808372	0.999757	0.002815	-0.000550	-0.021859
35502	0.020175	0.063008	9.837695	0.999757	0.002805	-0.000561	-0.021855
35503	0.024792	0.076814	9.840476	0.999757	0.002830	-0.000564	-0.021867
35504	0.030971	0.057942	9.843378	0.999757	0.002824	-0.000548	-0.021859
35505	0.019036	0.050785	9.821701	0.999757	0.002814	-0.000539	-0.021877
35506	0.023574	0.064405	9.824484	0.999756	0.002818	-0.000551	-0.021890
35507	0.034070	0.071877	9.846164	0.999757	0.002810	-0.000557	-0.021879
35508	0.028889	0.064992	9.811276	0.999756	0.002800	-0.000570	-0.021883
35509	0.034141	0.058926	9.830175	0.999757	0.002795	-0.000568	-0.021880
35510	0.003906	0.057397	9.816012	0.999757	0.002793	-0.000565	-0.021879
35511	-0.009401	0.057066	9.842425	0.999757	0.002800	-0.000573	-0.021866
35512	0.021118	0.052597	9.808494	0.999757	0.002818	-0.000573	-0.021865
35513	0.019228	0.066022	9.824483	0.999757	0.002806	-0.000571	-0.021857
35514	0.023287	0.073162	9.859373	0.999757	0.002810	-0.000584	-0.021850
35515	-0.000564	0.071831	9.831993	0.999757	0.002788	-0.000572	-0.021852
35516	0.023483	0.066683	9.811279	0.999757	0.002795	-0.000577	-0.021852
35517	0.011309	0.053319	9.821700	0.999757	0.002799	-0.000574	-0.021854
35518	0.015791	0.067105	9.824482	0.999757	0.002807	-0.000578	-0.021854
35519	0.008726	0.067260	9.837683	0.999757	0.002821	-0.000570	-0.021855
35520	0.015046	0.048344	9.840600	0.999757	0.002818	-0.000579	-0.021855
35521	0.013845	0.068307	9.824476	0.999756	0.002834	-0.000587	-0.021881
35522	0.013214	0.068650	9.824475	0.999757	0.002828	-0.000585	-0.021864
35523	0.011428	0.081954	9.840459	0.999757	0.002827	-0.000593	-0.021865
35524	0.023004	0.076280	9.846163	0.999757	0.002821	-0.000593	-0.021869
35525	0.005009	0.068845	9.837675	0.999756	0.002818	-0.000592	-0.021887
35526	-0.006711	0.061810	9.815983	0.999757	0.002822	-0.000585	-0.021869
35527	0.027305	0.077152	9.832963	0.999757	0.002811	-0.000600	-0.021873
35528	0.010734	0.056569	9.808489	0.999757	0.002809	-0.000610	-0.021874
35529	0.002497	0.069683	9.837670	0.999757	0.002815	-0.000601	-0.021849
35530	0.013954	0.064206	9.843378	0.999757	0.002820	-0.000610	-0.021855
35531	0.025481	0.058709	9.849088	0.999757	0.002822	-0.000605	-0.021856
35532	0.025337	0.065445	9.816979	0.999757	0.002823	-0.000609	-0.021851
35533	0.023506	0.078765	9.832960	0.999757	0.002817	-0.000611	-0.021855
35534	0.022727	0.078947	9.832960	0.999757	0.002817	-0.000597	-0.021858
35535	0.010336	0.065294	9.843375	0.999757	0.002799	-0.000588	-0.021851
35536	0.005037	0.058382	9.808483	0.999757	0.002796	-0.000597	-0.021852
35537	0.033347	0.053949	9.854809	0.999757	0.002797	-0.000595	-0.021839
35538	0.009047	0.072442	9.811262	0.999757	0.002806	-0.000613	-0.021842
35539	0.032929	0.061109	9.822698	0.999757	0.002804	-0.000619	-0.021843
35540	0.006695	0.086057	9.827238	0.999757	0.002796	-0.000608	-0.021842
35541	0.012889	0.067065	9.830174	0.999757	0.002808	-0.000606	-0.021850
35542	0.005854	0.067124	9.843367	0.999757	0.002808	-0.000608	-0.021845
35543	0.023001	0.081534	9.819760	0.999757	0.002822	-0.000600	-0.021833
35544	0.005578	0.054624	9.827387	0.999757	0.002812	-0.000593	-0.021839
35545	-0.002077	0.074157	9.824443	0.999757	0.002824	-0.000604	-0.021836
35546	0.040397	0.057280	9.828426	0.999757	0.002816	-0.000626	-0.021836
35547	0.025836	0.095952	9.822539	0.999757	0.002814	-0.000625	-0.021835
35548	0.021977	0.050086	9.819918	0.999757	0.002819	-0.000631	-0.021840
35549	0.026597	0.063894	9.822700	0.999757	0.002824	-0.000639	-0.021846
35550	0.007396	0.069930	9.830160	0.999757	0.002846	-0.000632	-0.021852
35551	0.013602	0.076895	9.784856	0.999757	0.002825	-0.000636	-0.021835
35552	0.023426	0.078074	9.838670	0.999757	0.002853	-0.000648	-0.021842
35553	0.023342	0.058830	9.854810	0.999757	0.002833	-0.000629	-0.021838
35554	0.003493	0.084044	9.846126	0.999757	0.002838	-0.000650	-0.021847
35555	0.016387	0.065384	9.835887	0.999757	0.002834	-0.000646	-0.021843
35556	0.011812	0.038959	9.817134	0.999757	0.002829	-0.000648	-0.021848
35557	0.004146	0.058486	9.814180	0.999757	0.002837	-0.000651	-0.021847
35558	0.008539	0.072307	9.816959	0.999757	0.002843	-0.000642	-0.021843
35559	0.014827	0.053445	9.819914	0.999757	0.002852	-0.000645	-0.021856
35560	0.011544	0.080120	9.851850	0.999757	0.002857	-0.000636	-0.021831
35561	0.006410	0.073357	9.816953	0.999757	0.002851	-0.000655	-0.021845
35562	0.017915	0.067675	9.822694	0.999757	0.002845	-0.000636	-0.021838
35563	0.024041	0.048582	9.825655	0.999758	0.002842	-0.000628	-0.021828
35564	-0.013154	0.066248	9.808425	0.999758	0.002842	-0.000630	-0.021822
35565	0.015624	0.068341	9.822693	0.999758	0.002844	-0.000627	-0.021811
35566	0.008448	0.068375	9.835876	0.999758	0.002850	-0.000616	-0.021818
35567	0.032707	0.063232	9.815255	0.999758	0.002822	-0.000628	-0.021811
35568	0.013574	0.068471	9.822695	0.999758	0.002796	-0.000620	-0.021806
35569	0.031485	0.063088	9.815260	0.999758	0.002808	-0.000633	-0.021804
35570	0.011693	0.062673	9.854807	0.999758	0.002820	-0.000626	-0.021803
35571	0.023726	0.063667	9.828441	0.999758	0.002820	-0.000630	-0.021797
35572	0.023172	0.063982	9.828440	0.999758	0.002826	-0.000636	-0.021803
35573	0.011131	0.050620	9.838839	0.999758	0.002833	-0.000641	-0.021802
35574	0.026582	0.071705	9.863335	0.999758	0.002830	-0.000650	-0.021790
35575	0.009132	0.070738	9.822684	0.999758	0.002834	-0.000627	-0.021794
35576	0.020488	0.065351	9.828437	0.999758	0.002845	-0.000637	-0.021791
35577	0.026486	0.066129	9.815255	0.999758	0.002854	-0.000655	-0.021814
35578	0.013109	0.065633	9.841615	0.999758	0.002830	-0.000644	-0.021803
35579	0.019964	0.052921	9.812475	0.999758	0.002841	-0.000639	-0.021809
35580	0.016553	0.079561	9.844395	0.999758	0.002841	-0.000629	-0.021814
35581	-0.000108	0.058990	9.819893	0.999758	0.002840	-0.000639	-0.021816
35582	0.017334	0.073315	9.796318	0.999758	0.002843	-0.000655	-0.021815
35583	0.028121	0.061283	9.834196	0.999758	0.002833	-0.000631	-0.021811
35584	0.008773	0.067034	9.841610	0.999758	0.002843	-0.000640	-0.021807
35585	0.020957	0.067903	9.815256	0.999758	0.002831	-0.000638	-0.021799
35586	0.020308	0.068178	9.815256	0.999758	0.002844	-0.000645	-0.021789
35587	0.019027	0.062126	9.847371	0.999757	0.002813	-0.000624	-0.021833
35588	0.018909	0.068774	9.815254	0.999757	0.002817	-0.000620	-0.021835
35589	0.011837	0.068756	9.828428	0.999758	0.002817	-0.000621	-0.021829
35590	0.041776	0.057518	9.826792	0.999758	0.002794	-0.000609	-0.021832
35591	-0.001864	0.074531	9.822660	0.999758	0.002787	-0.000612	-0.021822
35592	0.023091	0.050023	9.818244	0.999758	0.002791	-0.000609	-0.021825
35593	0.010335	0.056066	9.812473	0.999758	0.002790	-0.000621	-0.021815
35594	0.015010	0.069921	9.815253	0.999758	0.002810	-0.000637	-0.021826
35595	0.003022	0.056531	9.825641	0.999758	0.002804	-0.000638	-0.021829
35596	0.013926	0.070394	9.815251	0.999758	0.002795	-0.000645	-0.021826
35597	0.006801	0.070318	9.828422	0.999758	0.002801	-0.000631	-0.021814
35598	0.029546	0.078523	9.823808	0.999758	0.002792	-0.000622	-0.021800
35599	0.022394	0.078310	9.836980	0.999758	0.002784	-0.000620	-0.021802
35600	0.018650	0.032375	9.834410	0.999758	0.002787	-0.000618	-0.021791
35601	0.022299	0.065697	9.821027	0.999758	0.002792	-0.000611	-0.021806
35602	0.027223	0.059889	9.839976	0.999758	0.002790	-0.000603	-0.021796
35603	0.015655	0.052687	9.818245	0.999758	0.002782	-0.000606	-0.021799
35604	0.018762	0.079490	9.836978	0.999758	0.002784	-0.000606	-0.021795
35605	0.025862	0.066999	9.807859	0.999759	0.002793	-0.000603	-0.021787
35606	0.018184	0.060635	9.853144	0.999759	0.002792	-0.000611	-0.021789
35607	0.024588	0.067546	9.807858	0.999759	0.002788	-0.000602	-0.021778
35608	0.012459	0.054130	9.818242	0.999759	0.002801	-0.000614	-0.021776
35609	0.017046	0.067948	9.821022	0.999759	0.002798	-0.000623	-0.021777
35610	0.004140	0.073964	9.815234	0.999759	0.002799	-0.000604	-0.021774
35611	0.032719	0.076224	9.829592	0.999759	0.002807	-0.000607	-0.021774
35612	0.014047	0.062333	9.853140	0.999759	0.002792	-0.000593	-0.021781
35613	-0.003268	0.061207	9.812447	0.999759	0.002801	-0.000595	-0.021781
35614	0.020370	0.049961	9.824029	0.999759	0.002797	-0.000589	-0.021778
35615	0.006177	0.069323	9.834181	0.999758	0.002821	-0.000593	-0.021788
35616	0.005451	0.069413	9.834180	0.999759	0.002781	-0.000584	-0.021787
35617	0.016834	0.063681	9.839976	0.999759	0.002799	-0.000582	-0.021786
35618	0.010569	0.070281	9.821015	0.999758	0.002809	-0.000597	-0.021790
35619	0.003544	0.070306	9.834175	0.999759	0.002808	-0.000589	-0.021781
35620	0.014853	0.064903	9.839971	0.999759	0.002821	-0.000580	-0.021782
35621	0.003318	0.057828	9.818228	0.999759	0.002816	-0.000582	-0.021786
35622	0.013376	0.065610	9.839968	0.999759	0.002833	-0.000576	-0.021776
35623	0.020549	0.053108	9.810866	0.999758	0.002824	-0.000588	-0.021793
35624	0.018448	0.066357	9.826808	0.999759	0.002818	-0.000568	-0.021786
35625	0.018163	0.046930	9.842989	0.999759	0.002811	-0.000555	-0.021766
35626	-0.000439	0.058907	9.818222	0.999759	0.002810	-0.000562	-0.021768
35627	0.027640	0.080727	9.816432	0.999759	0.002821	-0.000560	-0.021762
35628	0.009055	0.067009	9.839964	0.999759	0.002822	-0.000558	-0.021769
35629	0.003235	0.053725	9.837181	0.999759	0.002813	-0.000547	-0.021768
35630	0.014061	0.067637	9.826806	0.999759	0.002809	-0.000563	-0.021776
35631	0.008513	0.054465	9.824023	0.999759	0.002817	-0.000566	-0.021775
35632	0.018627	0.062227	9.845770	0.999759	0.002819	-0.000564	-0.021764
35633	0.007118	0.054987	9.824021	0.999759	0.002810	-0.000559	-0.021771
35634	0.022910	0.082326	9.816431	0.999759	0.002802	-0.000560	-0.021773
35635	0.010930	0.068768	9.826803	0.999759	0.002805	-0.000576	-0.021773
35636	0.034665	0.057378	9.838430	0.999759	0.002787	-0.000568	-0.021773
35637	0.014740	0.082400	9.829586	0.999759	0.002784	-0.000578	-0.021774
35638	-0.000944	0.042239	9.821236	0.999759	0.002787	-0.000576	-0.021783
35639	0.027120	0.064083	9.819463	0.999759	0.002793	-0.000582	-0.021768
35640	0.000752	0.089083	9.823763	0.999759	0.002797	-0.000577	-0.021771
35641	0.005861	0.083440	9.842730	0.999759	0.002809	-0.000588	-0.021768
35642	0.025172	0.064924	9.819463	0.999759	0.002779	-0.000573	-0.021766
35643	0.011392	0.064310	9.845767	0.999759	0.002783	-0.000565	-0.021760
35644	0.027900	0.072336	9.854371	0.999759	0.002780	-0.000573	-0.021761
35645	-0.001335	0.050994	9.856133	0.999759	0.002775	-0.000573	-0.021765
35646	0.023726	0.052405	9.803533	0.999759	0.002772	-0.000568	-0.021775
35647	0.009449	0.071610	9.813641	0.999759	0.002779	-0.000573	-0.021774
35648	0.020929	0.066241	9.819464	0.999759	0.002783	-0.000569	-0.021776
35649	0.007187	0.065825	9.845761	0.999759	0.002772	-0.000554	-0.021753
35650	0.031593	0.061067	9.825291	0.999759	0.002790	-0.000568	-0.021761
35651	0.018284	0.060926	9.851585	0.999759	0.002796	-0.000579	-0.021755
35652	-0.000175	0.072958	9.826778	0.999759	0.002792	-0.000576	-0.021753
35653	0.029913	0.062099	9.825290	0.999759	0.002799	-0.000581	-0.021752
35654	0.022054	0.081616	9.822241	0.999760	0.002796	-0.000572	-0.021741
35655	-0.007190	0.060335	9.823990	0.999760	0.002798	-0.000586	-0.021740
35656	0.009429	0.068401	9.832602	0.999760	0.002803	-0.000581	-0.021743
35657	0.032335	0.076621	9.828073	0.999760	0.002786	-0.000580	-0.021718
35658	0.008062	0.068758	9.832601	0.999760	0.002794	-0.000582	-0.021718
35659	0.015264	0.056130	9.803529	0.999760	0.002783	-0.000576	-0.021723
35660	0.035934	0.071342	9.847055	0.999760	0.002800	-0.000575	-0.021721
35661	-0.006145	0.075444	9.826758	0.999760	0.002796	-0.000585	-0.021720
35662	0.012407	0.050688	9.835652	0.999760	0.002790	-0.000568	-0.021713
35663	0.023154	0.064573	9.825292	0.999760	0.002779	-0.000578	-0.021728
35664	0.005362	0.057020	9.816669	0.999760	0.002785	-0.000570	-0.021744
35665	0.016743	0.051637	9.822509	0.999759	0.002789	-0.000566	-0.021746
35666	0.019663	0.078640	9.841214	0.999759	0.002795	-0.000575	-0.021752
35667	0.008317	0.071322	9.819447	0.999759	0.002775	-0.000568	-0.021752
35668	0.013211	0.065265	9.838433	0.999759	0.002767	-0.000559	-0.021758
35669	0.013830	0.052236	9.822511	0.999759	0.002765	-0.000545	-0.021761
35670	0.013158	0.052451	9.822511	0.999760	0.002761	-0.000556	-0.021748
35671	0.011140	0.065787	9.838433	0.999759	0.002753	-0.000557	-0.021750
35672	0.017201	0.066657	9.825290	0.999759	0.002791	-0.000583	-0.021754
35673	0.021866	0.080591	9.828070	0.999760	0.002772	-0.000590	-0.021745
35674	0.016079	0.067067	9.825290	0.999760	0.002761	-0.000567	-0.021727
35675	0.013785	0.080291	9.841211	0.999760	0.002752	-0.000571	-0.021736
35676	0.021158	0.067612	9.812153	0.999760	0.002751	-0.000575	-0.021729
35677	0.002546	0.053713	9.835643	0.999760	0.002747	-0.000572	-0.021726
35678	0.025591	0.061986	9.831143	0.999760	0.002743	-0.000584	-0.021733
35679	0.000511	0.073509	9.819435	0.999760	0.002732	-0.000560	-0.021728
35680	0.011867	0.068221	9.825288	0.999760	0.002759	-0.000571	-0.021735
35681	-0.000916	0.074350	9.819428	0.999760	0.002748	-0.000564	-0.021740
35682	0.011157	0.049249	9.841495	0.999760	0.002743	-0.000560	-0.021736
35683	0.009796	0.068971	9.825285	0.999760	0.002743	-0.000563	-0.021730
35684	0.014798	0.063170	9.844277	0.999760	0.002740	-0.000558	-0.021728
35685	0.008451	0.069401	9.825283	0.999760	0.002739	-0.000562	-0.021722
35686	0.025089	0.077339	9.833927	0.999760	0.002727	-0.000573	-0.021724
35687	0.031064	0.078031	9.820793	0.999760	0.002751	-0.000576	-0.021734
35688	0.013796	0.051015	9.828359	0.999760	0.002730	-0.000557	-0.021730
35689	0.007258	0.057249	9.809363	0.999760	0.002748	-0.000554	-0.021728
35690	0.011687	0.071057	9.812144	0.999760	0.002735	-0.000568	-0.021730
35691	0.016734	0.065168	9.831141	0.999760	0.002731	-0.000560	-0.021719
35692	0.003664	0.071027	9.825274	0.999760	0.002727	-0.000545	-0.021714
35693	0.009383	0.071376	9.812145	0.999760	0.002711	-0.000550	-0.021718
35694	0.009524	0.052039	9.828359	0.999761	0.002716	-0.000558	-0.021704
35695	0.020244	0.066021	9.818014	0.999760	0.002700	-0.000544	-0.021711
35696	0.000902	0.071626	9.825270	0.999761	0.002712	-0.000555	-0.021708
35697	-0.006188	0.071568	9.838397	0.999761	0.002698	-0.000551	-0.021698
35698	0.025532	0.047587	9.821102	0.999761	0.002709	-0.000562	-0.021694
35699	0.010642	0.086257	9.814921	0.999761	0.002700	-0.000565	-0.021683
35700	0.010659	0.067050	9.831137	0.999761	0.002712	-0.000560	-0.021690
35701	-0.002219	0.073198	9.825259	0.999761	0.002722	-0.000559	-0.021683
35702	0.004393	0.054336	9.828350	0.999761	0.002717	-0.000571	-0.021670
35703	0.025905	0.075825	9.839794	0.999761	0.002710	-0.000570	-0.021685
35704	0.037359	0.070373	9.845673	0.999761	0.002712	-0.000569	-0.021673
35705	0.027669	0.050108	9.807977	0.999761	0.002725	-0.000578	-0.021683
35706	0.006809	0.068806	9.831129	0.999761	0.002699	-0.000569	-0.021691
35707	0.012613	0.069201	9.818005	0.999758	0.002823	-0.000603	-0.021811
35708	0.012089	0.069428	9.818004	0.999758	0.002813	-0.000612	-0.021807
35709	0.018658	0.050524	9.821103	0.999758	0.002823	-0.000607	-0.021813
35710	0.009200	0.083271	9.833906	0.999758	0.002826	-0.000605	-0.021802
35711	0.005111	0.056956	9.815216	0.999758	0.002835	-0.000605	-0.021814
35712	0.013645	0.078103	9.852909	0.999758	0.002846	-0.000619	-0.021799
35713	0.013876	0.084534	9.820778	0.999758	0.002822	-0.000609	-0.021808
35714	0.020325	0.065467	9.823884	0.999758	0.002829	-0.000611	-0.021820
35715	0.008216	0.051861	9.834221	0.999758	0.002813	-0.000613	-0.021816
35716	0.012423	0.065612	9.837004	0.999758	0.002825	-0.000604	-0.021816
35717	0.004970	0.065626	9.850122	0.999758	0.002819	-0.000586	-0.021821
35718	0.022738	0.060435	9.842895	0.999758	0.002814	-0.000581	-0.021817
35719	0.010755	0.072565	9.804871	0.999758	0.002808	-0.000583	-0.021820
35720	0.009312	0.066441	9.837001	0.999758	0.002805	-0.000593	-0.021820
35721	0.020289	0.080778	9.826664	0.999758	0.002832	-0.000605	-0.021827
35722	0.006493	0.080547	9.852896	0.999758	0.002821	-0.000581	-0.021810
35723	0.001626	0.073534	9.817981	0.999758	0.002828	-0.000590	-0.021817
35724	0.013227	0.068263	9.823877	0.999758	0.002835	-0.000591	-0.021816
35725	0.012628	0.068600	9.823875	0.999758	0.002835	-0.000594	-0.021810
35726	0.013652	0.055654	9.807976	0.999758	0.002832	-0.000602	-0.021810
35727	-0.000626	0.074822	9.817971	0.999758	0.002838	-0.000607	-0.021809
35728	0.016516	0.063537	9.842888	0.999758	0.002839	-0.000605	-0.021796
35729	0.008436	0.082774	9.839768	0.999758	0.002818	-0.000587	-0.021792
35730	0.014736	0.063479	9.842891	0.999758	0.002800	-0.000580	-0.021793
35731	0.006773	0.082894	9.839768	0.999758	0.002818	-0.000580	-0.021791
35732	-0.008880	0.042807	9.831416	0.999758	0.002821	-0.000564	-0.021791
35733	0.030376	0.078562	9.819447	0.999758	0.002818	-0.000572	-0.021791
35734	0.023851	0.058993	9.848796	0.999758	0.002817	-0.000562	-0.021794
35735	0.017595	0.065396	9.829774	0.999758	0.002835	-0.000579	-0.021804
35736	-0.006594	0.057706	9.834190	0.999758	0.002841	-0.000574	-0.021820
35737	0.016367	0.066021	9.829772	0.999758	0.002823	-0.000584	-0.021811
35738	0.009145	0.065781	9.842883	0.999758	0.002821	-0.000573	-0.021814
35739	0.018176	0.039949	9.797987	0.999758	0.002819	-0.000582	-0.021815
35740	-0.004354	0.071799	9.836967	0.999758	0.002809	-0.000577	-0.021821
35741	0.001525	0.072332	9.823856	0.999758	0.002815	-0.000586	-0.021827
35742	0.019611	0.067265	9.816662	0.999758	0.002809	-0.000585	-0.021810
35743	0.025473	0.067726	9.803555	0.999758	0.002803	-0.000586	-0.021814
35744	-0.000442	0.073115	9.823851	0.999758	0.002822	-0.000581	-0.021825
35745	0.005947	0.054318	9.826985	0.999758	0.002814	-0.000568	-0.021805
35746	0.030402	0.049491	9.806692	0.999758	0.002814	-0.000572	-0.021799
35747	-0.004339	0.087137	9.839733	0.999758	0.002815	-0.000568	-0.021799
35748	0.020811	0.062848	9.835688	0.999758	0.002805	-0.000561	-0.021804
35749	0.007843	0.068542	9.829765	0.999758	0.002795	-0.000552	-0.021790
35750	0.014360	0.049622	9.832906	0.999758	0.002803	-0.000555	-0.021790
35751	0.011993	0.062990	9.848793	0.999759	0.002785	-0.000545	-0.021783
35752	0.018908	0.069911	9.803554	0.999758	0.002807	-0.000568	-0.021789
35753	0.012588	0.050631	9.832903	0.999758	0.002809	-0.000564	-0.021790
35754	0.016202	0.083960	9.819436	0.999759	0.002815	-0.000574	-0.021783
35755	0.016231	0.064704	9.835684	0.999759	0.002807	-0.000564	-0.021784
35756	0.003215	0.070409	9.829755	0.999759	0.002798	-0.000555	-0.021770
35757	0.002619	0.070594	9.829754	0.999759	0.002800	-0.000569	-0.021769
35758	0.026347	0.059586	9.841616	0.999759	0.002798	-0.000562	-0.021779
35759	0.002407	0.077384	9.797616	0.999759	0.002799	-0.000579	-0.021777
35760	0.018001	0.079302	9.838464	0.999759	0.002800	-0.000578	-0.021765
35761	0.018992	0.066396	9.822580	0.999758	0.002802	-0.000581	-0.021793
35762	0.005297	0.065950	9.848780	0.999759	0.002794	-0.000589	-0.021784
35763	0.012895	0.053259	9.819797	0.999759	0.002794	-0.000591	-0.021778
35764	0.000122	0.059085	9.813860	0.999759	0.002787	-0.000591	-0.021780
35765	0.010829	0.073177	9.803543	0.999759	0.002791	-0.000581	-0.021775
35766	0.015660	0.067495	9.822579	0.999759	0.002786	-0.000580	-0.021791
35767	0.022195	0.048661	9.825735	0.999759	0.002795	-0.000576	-0.021763
35768	0.007039	0.087307	9.819418	0.999759	0.002797	-0.000582	-0.021780
35769	0.025750	0.062556	9.828519	0.999759	0.002771	-0.000573	-0.021788
35770	0.018427	0.062347	9.841617	0.999759	0.002780	-0.000574	-0.021781
35771	0.024113	0.063048	9.828520	0.999759	0.002783	-0.000554	-0.021791
35772	0.016739	0.062932	9.841616	0.999759	0.002773	-0.000557	-0.021780
35773	0.003312	0.088123	9.819412	0.999759	0.002766	-0.000562	-0.021790
35774	0.016631	0.069530	9.809480	0.999759	0.002769	-0.000572	-0.021781
35775	0.021556	0.063731	9.828522	0.999759	0.002751	-0.000562	-0.021774
35776	0.002928	0.075437	9.803531	0.999759	0.002757	-0.000552	-0.021750
35777	0.019099	0.058035	9.860658	0.999759	0.002768	-0.000568	-0.021774
35778	0.017746	0.077715	9.844397	0.999759	0.002756	-0.000551	-0.021764
35779	0.018631	0.064705	9.828522	0.999759	0.002763	-0.000552	-0.021763
35780	0.006511	0.051225	9.838829	0.999759	0.002767	-0.000546	-0.021765
35781	0.017143	0.065207	9.828521	0.999759	0.002752	-0.000534	-0.021760
35782	0.016156	0.065406	9.828521	0.999759	0.002763	-0.000512	-0.021756
35783	0.014613	0.085153	9.812258	0.999760	0.002758	-0.000516	-0.021748
35784	0.014622	0.065772	9.828521	0.999759	0.002749	-0.000509	-0.021756
35785	0.002552	0.052196	9.838825	0.999759	0.002761	-0.000518	-0.021752
35786	0.018084	0.079847	9.831304	0.999760	0.002750	-0.000495	-0.021747
35787	0.017995	0.060579	9.847568	0.999760	0.002755	-0.000507	-0.021741
35788	0.017422	0.060903	9.847567	0.999760	0.002758	-0.000505	-0.021730
35789	0.023202	0.061497	9.834480	0.999760	0.002756	-0.000493	-0.021732
35790	0.004732	0.073281	9.809466	0.999760	0.002756	-0.000497	-0.021727
35791	0.020154	0.075448	9.850348	0.999760	0.002780	-0.000498	-0.021737
35792	0.022742	0.049320	9.818609	0.999760	0.002759	-0.000479	-0.021733
35793	0.025165	0.076233	9.837262	0.999760	0.002774	-0.000488	-0.021732
35794	0.002825	0.055196	9.825726	0.999760	0.002778	-0.000499	-0.021725
35795	0.030693	0.077248	9.824175	0.999760	0.002777	-0.000494	-0.021724
35796	0.013029	0.069746	9.815421	0.999760	0.002798	-0.000499	-0.021719
35797	0.024652	0.064608	9.821389	0.999760	0.002795	-0.000506	-0.021719
35798	0.011758	0.070532	9.815417	0.999760	0.002805	-0.000486	-0.021722
35799	0.023090	0.065221	9.821389	0.999760	0.002800	-0.000486	-0.021727
35800	0.005386	0.057362	9.812633	0.999760	0.002790	-0.000482	-0.021721
35801	0.016940	0.052030	9.818607	0.999760	0.002804	-0.000493	-0.021719
35802	0.014646	0.065641	9.834470	0.999760	0.002807	-0.000492	-0.021709
35803	0.014000	0.065998	9.834468	0.999760	0.002816	-0.000493	-0.021710
35804	0.018213	0.079890	9.837249	0.999760	0.002820	-0.000492	-0.021699
35805	0.007027	0.072445	9.815408	0.999761	0.002809	-0.000482	-0.021685
35806	0.017608	0.086531	9.805109	0.999761	0.002818	-0.000471	-0.021695
35807	0.017568	0.067333	9.821386	0.999761	0.002811	-0.000473	-0.021685
35808	0.018753	0.054442	9.805524	0.999761	0.002825	-0.000480	-0.021696
35809	0.021395	0.081711	9.824164	0.999760	0.002839	-0.000489	-0.021695
35810	0.032919	0.076481	9.830146	0.999760	0.002838	-0.000482	-0.021706
35811	0.021788	0.069102	9.808303	0.999760	0.002842	-0.000482	-0.021716
35812	0.009601	0.055566	9.818597	0.999760	0.002848	-0.000472	-0.021712
35813	0.032400	0.064271	9.814288	0.999760	0.002860	-0.000467	-0.021719
35814	-0.005635	0.075181	9.828463	0.999760	0.002865	-0.000481	-0.021720
35815	0.014356	0.056938	9.805517	0.999760	0.002858	-0.000483	-0.021723
35816	0.016810	0.084051	9.824153	0.999760	0.002874	-0.000484	-0.021708
35817	0.028119	0.078683	9.830144	0.999760	0.002855	-0.000462	-0.021705
35818	0.022481	0.065273	9.827364	0.999760	0.002861	-0.000470	-0.021723
35819	0.015186	0.065260	9.840437	0.999760	0.002859	-0.000461	-0.021714
35820	0.020994	0.065855	9.827363	0.999760	0.002865	-0.000455	-0.021718
35821	0.013822	0.065714	9.840436	0.999760	0.002855	-0.000466	-0.021722
35822	0.007654	0.071814	9.821367	0.999760	0.002861	-0.000457	-0.021718
35823	0.036069	0.074604	9.836139	0.999760	0.002871	-0.000459	-0.021718
35824	0.037969	0.042132	9.836576	0.999760	0.002855	-0.000464	-0.021723
35825	0.013249	0.053329	9.824581	0.999760	0.002851	-0.000480	-0.021739
35826	0.011031	0.066758	9.840432	0.999760	0.002853	-0.000478	-0.021734
35827	0.017674	0.047942	9.843650	0.999759	0.002834	-0.000503	-0.021770
35828	0.028370	0.062067	9.833361	0.999759	0.002829	-0.000498	-0.021767
35829	0.010696	0.054322	9.824578	0.999759	0.002832	-0.000496	-0.021776
35830	0.014857	0.068025	9.827359	0.999759	0.002819	-0.000494	-0.021787
35831	0.020819	0.068570	9.814290	0.999759	0.002827	-0.000495	-0.021787
35832	0.023906	0.076274	9.849211	0.999758	0.002833	-0.000491	-0.021790
35833	0.002504	0.061113	9.805502	0.999758	0.002818	-0.000492	-0.021808
35834	0.036495	0.057809	9.839370	0.999758	0.002823	-0.000487	-0.021811
35835	0.011381	0.069214	9.827356	0.999758	0.002822	-0.000474	-0.021814
35836	0.000207	0.061760	9.805498	0.999758	0.002818	-0.000467	-0.021811
35837	0.005122	0.056152	9.824573	0.999758	0.002826	-0.000474	-0.021818
35838	0.032759	0.078292	9.823079	0.999758	0.002821	-0.000455	-0.021825
35839	0.008554	0.070032	9.827353	0.999757	0.002805	-0.000479	-0.021840
35840	0.026841	0.065111	9.820299	0.999757	0.002826	-0.000473	-0.021853
35841	0.012863	0.064783	9.846427	0.999757	0.002814	-0.000467	-0.021844
35842	-0.010323	0.062746	9.818553	0.999757	0.002810	-0.000466	-0.021849
35843	0.005971	0.071042	9.827347	0.999757	0.002820	-0.000463	-0.021843
35844	0.019159	0.052599	9.817518	0.999758	0.002819	-0.000453	-0.021834
35845	0.015896	0.085506	9.817063	0.999757	0.002822	-0.000454	-0.021844
35846	0.016037	0.066338	9.833361	0.999757	0.002821	-0.000463	-0.021846
35847	0.030466	0.087666	9.858005	0.999757	0.002807	-0.000448	-0.021854
35848	0.007833	0.066116	9.846424	0.999757	0.002798	-0.000441	-0.021860
35849	0.008931	0.053206	9.830580	0.999757	0.002813	-0.000442	-0.021845
35850	0.000750	0.072669	9.827337	0.999757	0.002808	-0.000420	-0.021850
35851	-0.000115	0.072971	9.827335	0.999757	0.002819	-0.000416	-0.021845
35852	0.025406	0.049001	9.823542	0.999757	0.002819	-0.000423	-0.021847
35853	-0.001258	0.073556	9.827331	0.999757	0.002819	-0.000424	-0.021841
35854	0.016875	0.068626	9.820297	0.999758	0.002821	-0.000421	-0.021829
35855	0.009723	0.068603	9.833354	0.999758	0.002825	-0.000437	-0.021830
35856	0.004351	0.055232	9.830572	0.999758	0.002815	-0.000428	-0.021836
35857	0.027213	0.063896	9.826323	0.999758	0.002833	-0.000427	-0.021822
35858	0.038715	0.058717	9.832353	0.999758	0.002828	-0.000427	-0.021826
35859	0.000534	0.069410	9.846404	0.999758	0.002836	-0.000428	-0.021826
35860	0.018692	0.064561	9.839378	0.999757	0.002839	-0.000428	-0.021834
35861	0.017233	0.084238	9.823069	0.999758	0.002836	-0.000418	-0.021824
35862	0.017110	0.065103	9.839377	0.999758	0.002842	-0.000411	-0.021821
35863	0.013559	0.038809	9.820760	0.999758	0.002862	-0.000426	-0.021830
35864	0.011046	0.052412	9.836594	0.999758	0.002857	-0.000409	-0.021825
35865	0.016109	0.072237	9.807230	0.999758	0.002845	-0.000404	-0.021817
35866	0.008803	0.072127	9.820282	0.999758	0.002854	-0.000406	-0.021818
35867	0.020281	0.066895	9.826320	0.999758	0.002851	-0.000401	-0.021816
35868	0.025093	0.061274	9.845413	0.999758	0.002854	-0.000402	-0.021825
35869	0.007512	0.053535	9.836591	0.999757	0.002858	-0.000402	-0.021835
35870	0.013462	0.054102	9.823539	0.999757	0.002856	-0.000397	-0.021834
35871	0.007292	0.060255	9.804444	0.999757	0.002864	-0.000400	-0.021834
35872	0.012174	0.054895	9.823536	0.999758	0.002881	-0.000402	-0.021820
35873	0.011552	0.055328	9.823534	0.999757	0.002882	-0.000402	-0.021847
35874	0.001410	0.087828	9.836096	0.999757	0.002874	-0.000374	-0.021836
35875	-0.002437	0.061060	9.817487	0.999757	0.002861	-0.000376	-0.021835
35876	0.033335	0.044721	9.835632	0.999758	0.002872	-0.000372	-0.021829
35877	0.030795	0.058331	9.851461	0.999757	0.002875	-0.000372	-0.021839
35878	0.022707	0.077807	9.848189	0.999758	0.002886	-0.000363	-0.021825
35879	-0.000335	0.076040	9.820257	0.999757	0.002893	-0.000374	-0.021852
35880	0.004582	0.070686	9.839352	0.999757	0.002912	-0.000373	-0.021851
35881	0.010494	0.071194	9.826305	0.999757	0.002888	-0.000365	-0.021849
35882	0.021808	0.065523	9.832362	0.999757	0.002872	-0.000352	-0.021843
35883	-0.000621	0.044078	9.820747	0.999757	0.002879	-0.000356	-0.021842
35884	0.003480	0.058096	9.823525	0.999757	0.002892	-0.000352	-0.021850
35885	-0.023395	0.082819	9.827229	0.999757	0.002902	-0.000353	-0.021863
35886	0.036809	0.055657	9.857520	0.999757	0.002905	-0.000366	-0.021843
35887	0.042250	0.075769	9.828151	0.999757	0.002912	-0.000370	-0.021842
35888	0.005863	0.073258	9.826294	0.999757	0.002916	-0.000367	-0.021844
35889	-0.019074	0.084566	9.814169	0.999757	0.002916	-0.000372	-0.021859
35890	0.005172	0.054340	9.842618	0.999757	0.002910	-0.000356	-0.021852
35891	0.022395	0.068879	9.819312	0.999757	0.002921	-0.000352	-0.021858
35892	0.008423	0.068728	9.845392	0.999757	0.002936	-0.000359	-0.021850
35893	0.007779	0.069010	9.845390	0.999757	0.002925	-0.000356	-0.021843
35894	0.008368	0.075440	9.813241	0.999757	0.002938	-0.000367	-0.021841
35895	0.032015	0.064797	9.825375	0.999757	0.002936	-0.000357	-0.021833
35896	0.023813	0.084158	9.822084	0.999757	0.002941	-0.000354	-0.021847
35897	0.021065	0.038375	9.819820	0.999757	0.002953	-0.000365	-0.021845
35898	-0.000424	0.057115	9.842603	0.999757	0.002947	-0.000344	-0.021830
35899	0.003710	0.071185	9.845377	0.999757	0.002975	-0.000369	-0.021827
35900	0.023214	0.072855	9.806259	0.999757	0.002988	-0.000362	-0.021827
35901	0.045567	0.056043	9.850556	0.999757	0.002984	-0.000364	-0.021833
35902	0.010337	0.059380	9.816520	0.999757	0.002974	-0.000357	-0.021839
35903	0.028466	0.054303	9.809560	0.999757	0.002965	-0.000362	-0.021828
35904	0.007203	0.073170	9.832330	0.999757	0.002994	-0.000374	-0.021835
35905	-0.003491	0.065784	9.810438	0.999757	0.002976	-0.000381	-0.021826
35906	0.025077	0.068519	9.825370	0.999757	0.002981	-0.000393	-0.021820
35907	0.031977	0.049900	9.828672	0.999758	0.002995	-0.000399	-0.021810
35908	0.017307	0.069054	9.838401	0.999757	0.002997	-0.000401	-0.021819
35909	-0.002132	0.074415	9.845354	0.999758	0.002988	-0.000404	-0.021808
35910	0.005812	0.061643	9.816510	0.999758	0.002985	-0.000401	-0.021806
35911	0.017025	0.056265	9.822593	0.999758	0.002973	-0.000377	-0.021800
35912	0.014274	0.069800	9.838401	0.999758	0.002987	-0.000385	-0.021811
35913	0.032621	0.065172	9.831451	0.999758	0.002999	-0.000396	-0.021808
35914	0.002923	0.063010	9.816502	0.999757	0.003005	-0.000384	-0.021816
35915	0.011730	0.090545	9.822049	0.999758	0.003011	-0.000393	-0.021810
35916	0.006325	0.077262	9.819273	0.999757	0.003013	-0.000382	-0.021816
35917	0.012993	0.058456	9.822586	0.999758	0.003011	-0.000386	-0.021809
35918	0.019015	0.058856	9.809556	0.999758	0.002992	-0.000381	-0.021798
35919	0.011665	0.058823	9.822586	0.999758	0.003016	-0.000385	-0.021807
35920	0.027970	0.067271	9.831451	0.999758	0.003000	-0.000391	-0.021812
35921	0.010379	0.059480	9.822583	0.999758	0.003021	-0.000378	-0.021796
35922	0.009611	0.060043	9.822580	0.999757	0.003031	-0.000381	-0.021810
35923	0.008796	0.060407	9.822579	0.999758	0.003032	-0.000365	-0.021807
35924	0.030334	0.062988	9.850573	0.999758	0.003033	-0.000369	-0.021803
35925	0.007394	0.060807	9.822578	0.999758	0.003020	-0.000372	-0.021802
35926	0.011578	0.074563	9.825351	0.999758	0.003023	-0.000384	-0.021794
35927	0.017844	0.075247	9.812323	0.999758	0.003027	-0.000396	-0.021806
35928	0.005733	0.061722	9.822573	0.999757	0.003037	-0.000380	-0.021809
35929	0.009713	0.075793	9.825344	0.999757	0.003051	-0.000387	-0.021820
35930	0.027932	0.070941	9.818420	0.999757	0.003040	-0.000384	-0.021813
35931	0.020500	0.070711	9.831445	0.999757	0.003035	-0.000380	-0.021810
35932	0.008465	0.057074	9.841695	0.999757	0.003041	-0.000390	-0.021816
35933	0.023958	0.084726	9.834218	0.999757	0.003026	-0.000383	-0.021819
35934	-0.000413	0.076403	9.838362	0.999757	0.003032	-0.000375	-0.021815
35935	0.007503	0.063752	9.809541	0.999757	0.003028	-0.000375	-0.021832
35936	0.017139	0.072010	9.831442	0.999757	0.003052	-0.000392	-0.021812
35937	0.021891	0.066518	9.850572	0.999757	0.003032	-0.000372	-0.021809
35938	0.015759	0.072472	9.831441	0.999757	0.003042	-0.000388	-0.021813
35939	-0.001522	0.064693	9.822555	0.999757	0.003041	-0.000397	-0.021814
35940	0.010055	0.059485	9.828665	0.999758	0.003043	-0.000397	-0.021791
35941	0.014127	0.073205	9.831438	0.999758	0.003028	-0.000399	-0.021789
35942	0.020823	0.054261	9.834779	0.999758	0.003027	-0.000390	-0.021781
35943	0.026450	0.074293	9.805398	0.999758	0.003035	-0.000432	-0.021789
35944	0.020051	0.054858	9.834777	0.999758	0.003029	-0.000417	-0.021783
35945	0.002199	0.046707	9.825890	0.999758	0.003008	-0.000397	-0.021778
35946	0.022847	0.068607	9.837553	0.999758	0.003020	-0.000389	-0.021765
35947	0.016843	0.074797	9.818416	0.999759	0.002915	-0.000424	-0.021763
35948	0.017123	0.055851	9.834777	0.999759	0.002929	-0.000430	-0.021753
35949	0.021109	0.069838	9.837549	0.999759	0.002928	-0.000418	-0.021757
35950	0.001490	0.075225	9.844443	0.999759	0.002929	-0.000420	-0.021765
35951	0.016305	0.062992	9.802621	0.999759	0.002938	-0.000423	-0.021766
35952	0.013648	0.076766	9.818406	0.999759	0.002957	-0.000422	-0.021765
35953	0.013614	0.057588	9.834772	0.999759	0.002933	-0.000413	-0.021775
35954	-0.004617	0.068818	9.809509	0.999758	0.002932	-0.000421	-0.021776
35955	0.000145	0.063262	9.828647	0.999759	0.002928	-0.000411	-0.021766
35956	0.023034	0.071972	9.824531	0.999759	0.002926	-0.000418	-0.021767
35957	0.022490	0.072222	9.824531	0.999759	0.002925	-0.000421	-0.021760
35958	0.038732	0.080645	9.833431	0.999759	0.002925	-0.000425	-0.021755
35959	0.026578	0.067126	9.843671	0.999759	0.002940	-0.000414	-0.021768
35960	0.010089	0.065124	9.802615	0.999759	0.002906	-0.000395	-0.021758
35961	0.014777	0.059376	9.821759	0.999759	0.002921	-0.000408	-0.021758
35962	0.014061	0.059770	9.821757	0.999759	0.002923	-0.000391	-0.021757
35963	0.005649	0.079221	9.818394	0.999759	0.002939	-0.000379	-0.021752
35964	0.024550	0.055283	9.827889	0.999759	0.002951	-0.000388	-0.021749
35965	0.004339	0.079957	9.818389	0.999759	0.002934	-0.000381	-0.021750
35966	0.015767	0.074626	9.824526	0.999759	0.002936	-0.000384	-0.021760
35967	-0.007670	0.046962	9.844997	0.999759	0.002930	-0.000387	-0.021751
35968	0.009974	0.061526	9.821752	0.999759	0.002940	-0.000402	-0.021734
35969	0.021690	0.056587	9.827889	0.999759	0.002953	-0.000414	-0.021732
35970	0.023654	0.083909	9.846437	0.999759	0.002960	-0.000402	-0.021741
35971	0.024108	0.090392	9.814281	0.999759	0.002965	-0.000397	-0.021737
35972	0.005181	0.076394	9.837521	0.999759	0.002960	-0.000395	-0.021734
35973	0.016653	0.071268	9.843663	0.999759	0.002968	-0.000399	-0.021733
35974	-0.001709	0.082821	9.818366	0.999759	0.002971	-0.000381	-0.021744
35975	0.024035	0.058987	9.814880	0.999759	0.002970	-0.000405	-0.021756
35976	0.010001	0.058507	9.840889	0.999759	0.002964	-0.000389	-0.021750
35977	0.022567	0.059133	9.814883	0.999759	0.002939	-0.000382	-0.021759
35978	-0.003634	0.063935	9.834742	0.999759	0.002942	-0.000399	-0.021758
35979	0.024748	0.066966	9.849811	0.999759	0.002938	-0.000395	-0.021768
35980	0.008559	0.065053	9.808734	0.999759	0.002933	-0.000396	-0.021772
35981	0.013348	0.059427	9.827887	0.999759	0.002925	-0.000400	-0.021761
35982	0.024114	0.073653	9.817656	0.999759	0.002934	-0.000400	-0.021754
35983	0.016850	0.073859	9.830654	0.999759	0.002953	-0.000415	-0.021763
35984	0.023636	0.055078	9.834037	0.999759	0.002933	-0.000396	-0.021760
35985	0.022143	0.074479	9.817654	0.999759	0.002931	-0.000406	-0.021762
35986	0.014832	0.074410	9.830653	0.999759	0.002932	-0.000408	-0.021769
35987	0.014188	0.074711	9.830652	0.999758	0.002934	-0.000409	-0.021777
35988	0.018231	0.088603	9.833422	0.999759	0.002934	-0.000416	-0.021773
35989	0.000839	0.080673	9.824491	0.999759	0.002933	-0.000421	-0.021767
35990	0.011156	0.069473	9.862804	0.999759	0.002936	-0.000436	-0.021767
35991	0.007113	0.062128	9.827877	0.999759	0.002926	-0.000411	-0.021762
35992	0.020536	0.043585	9.818270	0.999759	0.002923	-0.000420	-0.021762
35993	0.007071	0.068614	9.795718	0.999759	0.002925	-0.000418	-0.021750
35994	0.005143	0.063013	9.827872	0.999759	0.002945	-0.000429	-0.021753
