// Start Time: Unknown
// Update Rate: 60.0Hz
// Filter Profile: human (46.1)
// Option Flags: AHS Disabled ICC Disabled 
// Firmware Version: 4.3.5
PacketCounter	Acc_X	Acc_Y	Acc_Z	Quat_q0	Quat_q1	Quat_q2	Quat_q3
08551	0.129727	0.149019	9.807269	0.999932	0.005879	-0.006404	-0.007827
08552	0.131010	0.125684	9.780105	0.999932	0.005887	-0.006394	-0.007838
08553	0.120013	0.140674	9.790261	0.999932	0.005882	-0.006385	-0.007841
08554	0.124943	0.127789	9.793936	0.999932	0.005892	-0.006377	-0.007830
08555	0.140068	0.099993	9.787469	0.999932	0.005887	-0.006369	-0.007839
08556	0.116321	0.108278	9.794409	0.999932	0.005874	-0.006357	-0.007837
08557	0.132662	0.112829	9.783826	0.999932	0.005880	-0.006345	-0.007836
08558	0.104469	0.123222	9.804570	0.999932	0.005877	-0.006340	-0.007817
08559	0.132662	0.145321	9.779723	0.999932	0.005869	-0.006360	-0.007811
08560	0.146168	0.140851	9.800428	0.999932	0.005876	-0.006363	-0.007823
08561	0.114153	0.097361	9.811929	0.999932	0.005869	-0.006344	-0.007847
08562	0.137549	0.121517	9.800900	0.999932	0.005877	-0.006342	-0.007847
08563	0.128756	0.113243	9.783873	0.999932	0.005881	-0.006350	-0.007862
08564	0.131807	0.123589	9.814725	0.999932	0.005867	-0.006338	-0.007860
08565	0.134263	0.132624	9.783446	0.999932	0.005866	-0.006336	-0.007857
08566	0.126507	0.113109	9.783904	0.999932	0.005861	-0.006330	-0.007855
08567	0.134191	0.121628	9.800945	0.999932	0.005868	-0.006350	-0.007875
08568	0.126767	0.102226	9.801396	0.999932	0.005864	-0.006353	-0.007876
08569	0.133167	0.121701	9.800958	0.999932	0.005861	-0.006355	-0.007877
08570	0.124233	0.113307	9.783931	0.999932	0.005866	-0.006342	-0.007875
08571	0.112036	0.139394	9.776589	0.999932	0.005870	-0.006341	-0.007865
08572	0.103615	0.132218	9.821693	0.999932	0.005861	-0.006339	-0.007875
08573	0.143855	0.116110	9.759573	0.999932	0.005861	-0.006336	-0.007878
08574	0.129620	0.122061	9.801001	0.999932	0.005874	-0.006330	-0.007881
08575	0.122131	0.102664	9.801451	0.999932	0.005866	-0.006350	-0.007879
08576	0.126000	0.100640	9.787654	0.999932	0.005857	-0.006330	-0.007884
08577	0.122029	0.135092	9.797347	0.999932	0.005866	-0.006341	-0.007886
08578	0.127190	0.122278	9.801030	0.999932	0.005869	-0.006338	-0.007898
08579	0.126536	0.122295	9.801038	0.999932	0.005862	-0.006342	-0.007885
08580	0.138543	0.128769	9.804284	0.999932	0.005857	-0.006334	-0.007887
08581	0.112375	0.115695	9.797820	0.999932	0.005857	-0.006328	-0.007885
08582	0.140429	0.094419	9.794620	0.999932	0.005911	-0.006472	-0.007707
08583	0.128421	0.120529	9.787266	0.999932	0.005924	-0.006476	-0.007706
08584	0.140451	0.127199	9.790513	0.999932	0.005919	-0.006467	-0.007713
08585	0.122440	0.122517	9.801088	0.999932	0.005911	-0.006460	-0.007705
08586	0.131969	0.107683	9.790974	0.999932	0.005918	-0.006462	-0.007715
08587	0.126952	0.109724	9.804782	0.999932	0.005915	-0.006476	-0.007714
08588	0.125202	0.120692	9.787306	0.999932	0.005903	-0.006472	-0.007707
08589	0.137373	0.127158	9.790557	0.999932	0.005902	-0.006488	-0.007710
08590	0.131130	0.096727	9.808485	0.999932	0.005909	-0.006490	-0.007709
08591	0.125850	0.142142	9.800692	0.999932	0.005892	-0.006476	-0.007698
08592	0.141181	0.114280	9.794266	0.999932	0.005901	-0.006486	-0.007697
08593	0.140573	0.114375	9.794274	0.999932	0.005896	-0.006478	-0.007706
08594	0.132890	0.094775	9.794722	0.999932	0.005885	-0.006476	-0.007707
08595	0.134736	0.116183	9.808094	0.999932	0.005887	-0.006482	-0.007705
08596	0.130497	0.105776	9.777253	0.999932	0.005876	-0.006483	-0.007706
08597	0.132199	0.127114	9.790629	0.999932	0.005872	-0.006475	-0.007716
08598	0.131506	0.127069	9.790639	0.999932	0.005866	-0.006480	-0.007703
08599	0.129732	0.094754	9.794764	0.999932	0.005882	-0.006486	-0.007711
08600	0.148679	0.121066	9.797589	0.999932	0.005886	-0.006474	-0.007708
08601	0.136608	0.103422	9.811831	0.999932	0.005871	-0.006489	-0.007695
08602	0.134817	0.114312	9.794355	0.999932	0.005865	-0.006481	-0.007698
08603	0.143158	0.110533	9.766769	0.999932	0.005871	-0.006481	-0.007693
08604	0.141684	0.122982	9.811424	0.999932	0.005874	-0.006488	-0.007692
08605	0.128341	0.116445	9.808177	0.999932	0.005867	-0.006483	-0.007697
08606	0.132160	0.114599	9.794388	0.999932	0.005874	-0.006483	-0.007702
08607	0.125727	0.127661	9.790707	0.999932	0.005872	-0.006476	-0.007684
08608	0.125035	0.127734	9.790715	0.999932	0.005877	-0.006477	-0.007670
08609	0.130067	0.114832	9.794414	0.999932	0.005873	-0.006468	-0.007678
08610	0.129513	0.114858	9.794421	0.999932	0.005875	-0.006483	-0.007661
08611	0.125771	0.105815	9.825707	0.999932	0.005876	-0.006490	-0.007651
08612	0.128437	0.114942	9.794434	0.999932	0.005870	-0.006481	-0.007653
08613	0.126471	0.125992	9.776957	0.999932	0.005871	-0.006478	-0.007659
08614	0.139818	0.121555	9.797714	0.999932	0.005868	-0.006490	-0.007648
08615	0.131232	0.113142	9.780661	0.999932	0.005872	-0.006499	-0.007654
08616	0.126138	0.115082	9.794462	0.999933	0.005865	-0.006501	-0.007633
08617	0.133598	0.123385	9.811533	0.999933	0.005848	-0.006496	-0.007633
08618	0.132864	0.123278	9.811544	0.999933	0.005849	-0.006493	-0.007630
08619	0.128620	0.112903	9.780698	0.999933	0.005845	-0.006497	-0.007635
08620	0.122206	0.125858	9.777013	0.999933	0.005843	-0.006491	-0.007626
08621	0.131749	0.110971	9.766924	0.999933	0.005837	-0.006484	-0.007624
08622	0.140472	0.108359	9.801483	0.999933	0.005832	-0.006494	-0.007643
08623	0.115668	0.127788	9.790829	0.999933	0.005842	-0.006488	-0.007632
08624	0.132102	0.132511	9.780318	0.999933	0.005834	-0.006480	-0.007624
08625	0.131305	0.132443	9.780330	0.999933	0.005828	-0.006473	-0.007635
08626	0.127241	0.123370	9.811617	0.999933	0.005835	-0.006473	-0.007625
08627	0.141516	0.106562	9.787741	0.999933	0.005820	-0.006478	-0.007627
08628	0.107725	0.129712	9.804659	0.999933	0.005828	-0.006489	-0.007622
08629	0.123122	0.102004	9.798270	0.999933	0.005825	-0.006474	-0.007611
08630	0.128138	0.132656	9.780369	0.999933	0.005832	-0.006485	-0.007597
08631	0.117298	0.104128	9.812074	0.999933	0.005832	-0.006481	-0.007595
08632	0.128111	0.121761	9.797871	0.999933	0.005829	-0.006484	-0.007597
08633	0.149312	0.124500	9.773580	0.999933	0.005826	-0.006487	-0.007597
08634	0.122311	0.123681	9.811676	0.999933	0.005828	-0.006483	-0.007600
08635	0.161890	0.120110	9.794369	0.999933	0.005824	-0.006484	-0.007604
08636	0.133531	0.129106	9.752837	0.999933	0.005830	-0.006482	-0.007603
08637	0.124895	0.121955	9.797910	0.999933	0.005826	-0.006475	-0.007609
08638	0.136873	0.128508	9.801203	0.999933	0.005822	-0.006478	-0.007608
08639	0.136327	0.128565	9.801210	0.999933	0.005825	-0.006486	-0.007614
08640	0.135673	0.128583	9.801219	0.999933	0.005817	-0.006479	-0.007603
08641	0.126956	0.120154	9.784154	0.999933	0.005825	-0.006488	-0.007598
08642	0.122896	0.111273	9.815436	0.999933	0.005836	-0.006474	-0.007608
08643	0.138213	0.127062	9.787456	0.999933	0.005826	-0.006482	-0.007599
08644	0.156065	0.120703	9.794456	0.999933	0.005830	-0.006479	-0.007615
08645	0.118583	0.133504	9.780478	0.999933	0.005830	-0.006485	-0.007605
08646	0.123764	0.120525	9.784190	0.999933	0.005821	-0.006485	-0.007608
08647	0.124173	0.109435	9.801691	0.999933	0.005821	-0.006471	-0.007621
08648	0.117723	0.122509	9.797992	0.999933	0.005829	-0.006480	-0.007622
08649	0.122811	0.109537	9.801707	0.999933	0.005811	-0.006464	-0.007633
08650	0.146200	0.133671	9.790814	0.999933	0.005813	-0.006471	-0.007632
08651	0.121573	0.109547	9.801723	0.999933	0.005815	-0.006478	-0.007628
08652	0.126803	0.140169	9.783824	0.999933	0.005812	-0.006492	-0.007621
08653	0.137768	0.114254	9.791247	0.999933	0.005806	-0.006485	-0.007619
08654	0.132413	0.116282	9.805039	0.999933	0.005819	-0.006480	-0.007632
08655	0.143264	0.134028	9.790852	0.999933	0.005810	-0.006491	-0.007630
08656	0.135947	0.114555	9.791269	0.999933	0.005820	-0.006503	-0.007630
08657	0.127356	0.150940	9.814718	0.999933	0.005816	-0.006505	-0.007629
08658	0.127758	0.138571	9.770084	0.999933	0.005808	-0.006497	-0.007617
08659	0.132745	0.125566	9.773806	0.999933	0.005803	-0.006489	-0.007627
08660	0.127509	0.127500	9.787595	0.999933	0.005806	-0.006497	-0.007622
08661	0.132750	0.114620	9.791312	0.999933	0.005803	-0.006500	-0.007632
08662	0.133422	0.103821	9.808809	0.999933	0.005824	-0.006508	-0.007635
08663	0.133823	0.136431	9.804695	0.999933	0.005812	-0.006495	-0.007640
08664	0.137838	0.134673	9.790921	0.999933	0.005833	-0.006515	-0.007635
08665	0.120037	0.130269	9.801400	0.999933	0.005836	-0.006506	-0.007633
08666	0.120578	0.119253	9.818901	0.999933	0.005827	-0.006515	-0.007633
08667	0.123491	0.128388	9.787635	0.999933	0.005829	-0.006523	-0.007629
08668	0.128667	0.115534	9.791356	0.999933	0.005829	-0.006521	-0.007627
08669	0.109651	0.121980	9.784341	0.999933	0.005838	-0.006531	-0.007615
08670	0.140189	0.122448	9.794675	0.999933	0.005843	-0.006532	-0.007605
08671	0.139485	0.122668	9.794682	0.999933	0.005854	-0.006528	-0.007609
08672	0.138790	0.122918	9.794689	0.999933	0.005863	-0.006528	-0.007615
08673	0.136898	0.133889	9.777205	0.999933	0.005843	-0.006523	-0.007598
08674	0.102851	0.113254	9.815644	0.999933	0.005839	-0.006519	-0.007578
08675	0.126283	0.137521	9.804780	0.999933	0.005835	-0.006522	-0.007586
08676	0.140699	0.120789	9.780953	0.999933	0.005831	-0.006525	-0.007583
08677	0.122801	0.116086	9.791425	0.999933	0.005831	-0.006520	-0.007584
08678	0.117561	0.118178	9.805206	0.999933	0.005844	-0.006525	-0.007591
08679	0.135153	0.112019	9.812249	0.999933	0.005839	-0.006498	-0.007589
08680	0.125039	0.114585	9.777675	0.999933	0.005843	-0.006498	-0.007580
08681	0.132650	0.123187	9.794770	0.999933	0.005841	-0.006521	-0.007560
08682	0.144881	0.129938	9.798091	0.999933	0.005850	-0.006523	-0.007575
08683	0.131678	0.123487	9.794780	0.999933	0.005854	-0.006530	-0.007574
08684	0.125407	0.136578	9.791062	0.999933	0.005862	-0.006542	-0.007572
08685	0.141047	0.108972	9.784739	0.999933	0.005862	-0.006538	-0.007567
08686	0.125421	0.125639	9.808572	0.999933	0.005851	-0.006548	-0.007548
08687	0.152565	0.115623	9.788075	0.999933	0.005865	-0.006551	-0.007543
08688	0.128601	0.123987	9.794814	0.999933	0.005864	-0.006520	-0.007543
08689	0.127861	0.124158	9.794822	0.999933	0.005876	-0.006542	-0.007552
08690	0.141279	0.119905	9.815644	0.999933	0.005873	-0.006546	-0.007554
08691	0.128083	0.113151	9.812331	0.999933	0.005858	-0.006551	-0.007556
08692	0.127433	0.113183	9.812339	0.999933	0.005872	-0.006545	-0.007559
08693	0.148623	0.116146	9.788129	0.999933	0.005866	-0.006548	-0.007549
08694	0.134165	0.120704	9.767314	0.999933	0.005884	-0.006546	-0.007548
08695	0.128770	0.122723	9.781093	0.999933	0.005874	-0.006537	-0.007569
08696	0.129311	0.111744	9.798599	0.999933	0.005882	-0.006549	-0.007570
08697	0.126323	0.133861	9.763611	0.999933	0.005876	-0.006543	-0.007558
08698	0.122019	0.124698	9.794889	0.999933	0.005875	-0.006529	-0.007565
08699	0.133846	0.131268	9.798230	0.999933	0.005862	-0.006526	-0.007557
08700	0.134369	0.120244	9.815737	0.999933	0.005869	-0.006527	-0.007555
08701	0.130423	0.109944	9.784875	0.999933	0.005869	-0.006533	-0.007544
08702	0.128662	0.121096	9.767383	0.999933	0.005905	-0.006525	-0.007571
08703	0.118722	0.124999	9.794926	0.999933	0.005906	-0.006523	-0.007571
08704	0.135392	0.129861	9.784498	0.999933	0.005913	-0.006533	-0.007551
08705	0.125607	0.133718	9.812039	0.999933	0.005909	-0.006537	-0.007551
08706	0.135534	0.118982	9.802010	0.999933	0.005915	-0.006547	-0.007530
08707	0.146534	0.136850	9.787849	0.999933	0.005924	-0.006556	-0.007526
08708	0.128747	0.132316	9.798285	0.999933	0.005932	-0.006557	-0.007532
08709	0.133892	0.119549	9.802025	0.999933	0.005934	-0.006553	-0.007538
08710	0.127420	0.132482	9.798300	0.999933	0.005929	-0.006555	-0.007530
08711	0.131378	0.130708	9.784542	0.999933	0.005941	-0.006551	-0.007535
08712	0.142469	0.104937	9.792019	0.999932	0.005929	-0.006568	-0.007534
08713	0.131422	0.119721	9.802057	0.999933	0.005932	-0.006559	-0.007530
08714	0.130642	0.119830	9.802066	0.999933	0.005934	-0.006555	-0.007536
08715	0.119529	0.134666	9.812101	0.999932	0.005930	-0.006558	-0.007538
08716	0.112179	0.115124	9.812503	0.999933	0.005932	-0.006566	-0.007528
08717	0.119671	0.122430	9.767481	0.999933	0.005932	-0.006562	-0.007527
08718	0.131627	0.129087	9.770833	0.999933	0.005927	-0.006564	-0.007520
08719	0.133322	0.107045	9.805844	0.999933	0.005927	-0.006561	-0.007518
08720	0.124363	0.142094	9.767112	0.999933	0.005931	-0.006551	-0.007515
08721	0.135292	0.116328	9.774599	0.999933	0.005928	-0.006552	-0.007517
08722	0.128940	0.129164	9.770868	0.999933	0.005918	-0.006562	-0.007511
08723	0.129556	0.118153	9.788376	0.999933	0.005924	-0.006559	-0.007499
08724	0.141417	0.124954	9.791733	0.999933	0.005930	-0.006548	-0.007495
08725	0.123475	0.120299	9.802153	0.999933	0.005933	-0.006555	-0.007492
08726	0.134404	0.138101	9.788006	0.999933	0.005938	-0.006563	-0.007500
08727	0.145449	0.112380	9.795496	0.999933	0.005937	-0.006559	-0.007497
08728	0.146888	0.133943	9.808875	0.999933	0.005942	-0.006560	-0.007487
08729	0.124539	0.129811	9.770916	0.999933	0.005938	-0.006563	-0.007487
08730	0.130891	0.105916	9.792170	0.999933	0.005940	-0.006560	-0.007497
08731	0.124352	0.118909	9.788435	0.999933	0.005941	-0.006557	-0.007503
08732	0.135071	0.136667	9.774295	0.999933	0.005940	-0.006553	-0.007504
08733	0.135562	0.125766	9.791805	0.999933	0.005947	-0.006553	-0.007502
08734	0.134843	0.125822	9.791815	0.999933	0.005940	-0.006545	-0.007503
08735	0.126125	0.117375	9.774709	0.999933	0.005953	-0.006539	-0.007511
08736	0.128853	0.127873	9.805588	0.999933	0.005941	-0.006553	-0.007516
08737	0.106567	0.123670	9.767617	0.999933	0.005948	-0.006545	-0.007531
08738	0.138172	0.113338	9.795591	0.999933	0.005959	-0.006557	-0.007513
08739	0.115759	0.110568	9.819749	0.999933	0.005955	-0.006559	-0.007514
08740	0.154404	0.118291	9.785208	0.999933	0.005955	-0.006565	-0.007505
08741	0.131854	0.115464	9.809367	0.999933	0.005956	-0.006562	-0.007513
08742	0.100151	0.115159	9.798901	0.999932	0.005965	-0.006562	-0.007520
08743	0.112182	0.122008	9.802267	0.999932	0.005969	-0.006569	-0.007530
08744	0.143795	0.111560	9.830255	0.999932	0.005972	-0.006565	-0.007502
08745	0.114244	0.131351	9.771021	0.999933	0.005975	-0.006543	-0.007510
08746	0.135141	0.135673	9.809020	0.999933	0.005977	-0.006550	-0.007501
08747	0.131302	0.125189	9.778154	0.999933	0.005967	-0.006548	-0.007505
08748	0.136559	0.112284	9.781914	0.999932	0.005970	-0.006557	-0.007513
08749	0.128668	0.137609	9.822797	0.999932	0.005968	-0.006554	-0.007513
08750	0.137286	0.134032	9.795298	0.999932	0.005982	-0.006548	-0.007527
08751	0.134483	0.112754	9.781937	0.999932	0.005983	-0.006545	-0.007524
08752	0.127876	0.125629	9.778194	0.999933	0.005976	-0.006536	-0.007514
08753	0.115872	0.107758	9.792339	0.999933	0.005961	-0.006552	-0.007501
08754	0.126779	0.125417	9.778211	0.999932	0.005967	-0.006549	-0.007528
08755	0.144539	0.119343	9.785346	0.999933	0.005971	-0.006548	-0.007508
08756	0.139166	0.121311	9.799106	0.999933	0.005972	-0.006545	-0.007509
08757	0.133865	0.123272	9.812864	0.999933	0.005975	-0.006552	-0.007507
08758	0.124248	0.125741	9.778239	0.999933	0.005969	-0.006554	-0.007498
