// Start Time: Unknown
// Update Rate: 60.0Hz
// Filter Profile: human (46.1)
// Option Flags: AHS Disabled ICC Disabled 
// Firmware Version: 4.3.5
PacketCounter	Acc_X	Acc_Y	Acc_Z	Quat_q0	Quat_q1	Quat_q2	Quat_q3
40913	-9.772746	0.539301	-1.389267	-0.647490	-0.080877	-0.756554	0.042917
40914	-9.820738	0.444120	-1.546829	-0.647387	-0.079810	-0.756835	0.041489
40915	-9.715200	0.561333	-1.767190	-0.647376	-0.078395	-0.757078	0.039882
40916	-9.673460	0.727022	-1.787935	-0.647446	-0.076980	-0.757246	0.038290
40917	-9.667132	0.640335	-1.728114	-0.647589	-0.075721	-0.757327	0.036761
40918	-9.562622	0.427791	-1.797016	-0.647767	-0.074947	-0.757302	0.035705
40919	-9.420720	0.155445	-1.995020	-0.647858	-0.074585	-0.757289	0.035088
40920	-9.338241	-0.010922	-2.041562	-0.647811	-0.074514	-0.757343	0.034935
40921	-9.241321	0.122895	-2.231586	-0.647542	-0.074717	-0.757544	0.035128
40922	-9.385411	0.323985	-2.211992	-0.647092	-0.075204	-0.757862	0.035523
40923	-9.579653	0.604136	-2.024354	-0.646678	-0.075886	-0.758124	0.036007
40924	-9.671126	0.875007	-1.902797	-0.646269	-0.076674	-0.758367	0.036580
40925	-9.783434	0.978740	-1.714484	-0.645910	-0.077276	-0.758594	0.036927
40926	-9.779871	0.989782	-1.693234	-0.645677	-0.077514	-0.758763	0.037027
40927	-9.585750	0.853360	-1.684867	-0.645494	-0.077476	-0.758928	0.036914
40928	-9.590346	0.633923	-1.620086	-0.645390	-0.077031	-0.759081	0.036534
40929	-9.589065	0.465584	-1.642713	-0.645304	-0.076476	-0.759230	0.036106
40930	-9.580818	0.412100	-1.782389	-0.645221	-0.075876	-0.759386	0.035570
40931	-9.606810	0.378005	-1.793928	-0.645191	-0.075203	-0.759510	0.034891
40932	-9.637779	0.312783	-1.730331	-0.645242	-0.074569	-0.759557	0.034289
40933	-9.621110	0.324840	-1.590389	-0.645351	-0.074097	-0.759529	0.033860
40934	-9.590548	0.243487	-1.508880	-0.645436	-0.073994	-0.759469	0.033837
40935	-9.599821	0.230151	-1.678792	-0.645411	-0.074010	-0.759485	0.033903
40936	-9.638666	0.265585	-1.795306	-0.645425	-0.073951	-0.759478	0.033930
40937	-9.542075	0.367631	-1.754133	-0.645460	-0.073925	-0.759450	0.033941
40938	-9.520681	0.409728	-1.688576	-0.645439	-0.074082	-0.759444	0.034135
40939	-9.531080	0.489715	-1.766965	-0.645404	-0.074236	-0.759450	0.034327
40940	-9.544544	0.538308	-1.862230	-0.645382	-0.074227	-0.759469	0.034347
40941	-9.510034	0.561484	-1.840131	-0.645359	-0.074153	-0.759499	0.034277
40942	-9.487301	0.541847	-1.838363	-0.645250	-0.074111	-0.759597	0.034241
40943	-9.521342	0.464279	-1.884649	-0.645084	-0.074114	-0.759741	0.034175
40944	-9.553797	0.408300	-1.945517	-0.644953	-0.074132	-0.759854	0.034101
40945	-9.535234	0.357788	-1.873359	-0.644698	-0.074233	-0.760059	0.034121
40946	-9.548708	0.376336	-1.748790	-0.644418	-0.074441	-0.760270	0.034262
40947	-9.570741	0.466445	-1.745647	-0.644157	-0.074681	-0.760460	0.034430
40948	-9.604210	0.586595	-1.834270	-0.643997	-0.074677	-0.760598	0.034373
40949	-9.575836	0.672489	-1.815056	-0.643896	-0.074481	-0.760714	0.034138
40950	-9.560863	0.674014	-1.710160	-0.643769	-0.074229	-0.760858	0.033854
40951	-9.577760	0.546705	-1.677873	-0.643634	-0.073977	-0.761009	0.033591
40952	-9.516913	0.468820	-1.716199	-0.643411	-0.073729	-0.761231	0.033356
40953	-9.517519	0.415767	-1.817368	-0.643131	-0.073428	-0.761513	0.033008
40954	-9.577082	0.378305	-1.783356	-0.642832	-0.073173	-0.761806	0.032621
40955	-9.588508	0.409016	-1.795693	-0.642533	-0.072952	-0.762095	0.032263
40956	-9.605623	0.396692	-1.689825	-0.642197	-0.072845	-0.762396	0.032076
40957	-9.516938	0.457917	-1.766955	-0.641806	-0.072649	-0.762756	0.031799
40958	-9.507738	0.437590	-1.717226	-0.641382	-0.072351	-0.763156	0.031425
40959	-9.499649	0.563925	-1.800424	-0.640945	-0.072119	-0.763561	0.031023
40960	-9.658271	0.494812	-1.632067	-0.640462	-0.071986	-0.763991	0.030730
40961	-9.649915	0.505628	-1.475715	-0.640088	-0.071905	-0.764320	0.030537
40962	-9.727757	0.445287	-1.448764	-0.639822	-0.071764	-0.764567	0.030233
40963	-9.708668	0.343986	-1.637182	-0.639664	-0.071516	-0.764734	0.029953
40964	-9.628898	0.392929	-1.634802	-0.639525	-0.071285	-0.764879	0.029793
40965	-9.553067	0.493150	-1.676789	-0.639383	-0.071061	-0.765025	0.029627
40966	-9.533625	0.524064	-1.645519	-0.639226	-0.071034	-0.765156	0.029689
40967	-9.449291	0.635445	-1.760913	-0.639063	-0.070784	-0.765321	0.029541
40968	-9.451311	0.444925	-1.684774	-0.638775	-0.070360	-0.765613	0.029200
40969	-9.488730	0.304539	-1.847541	-0.638427	-0.070340	-0.765907	0.029155
40970	-9.434883	0.069788	-1.989922	-0.637985	-0.070607	-0.766242	0.029362
40971	-9.500851	0.143720	-1.942560	-0.637517	-0.071117	-0.766571	0.029731
40972	-9.507916	0.266282	-1.893105	-0.637015	-0.071523	-0.766939	0.029995
40973	-9.379274	0.508839	-1.909129	-0.636471	-0.071803	-0.767362	0.030077
40974	-9.374627	0.469382	-2.063454	-0.635850	-0.071807	-0.767891	0.029693
40975	-9.384578	0.399803	-2.042546	-0.635157	-0.071800	-0.768488	0.029100
40976	-9.478940	0.271351	-1.898106	-0.634384	-0.071719	-0.769165	0.028246
40977	-9.534406	0.180989	-1.864329	-0.633663	-0.071561	-0.769812	0.027214
40978	-9.481459	0.198017	-1.976350	-0.633062	-0.071249	-0.770375	0.026039
40979	-9.496160	0.114914	-2.079464	-0.632541	-0.070868	-0.770879	0.024784
40980	-9.611310	0.062525	-2.147963	-0.632142	-0.070593	-0.771265	0.023732
40981	-9.691852	0.229929	-2.010464	-0.631811	-0.070469	-0.771576	0.022784
40982	-9.505451	0.424446	-1.757275	-0.631611	-0.070291	-0.771788	0.021669
40983	-9.427231	0.352861	-1.809137	-0.631276	-0.069823	-0.772146	0.020157
40984	-9.362571	0.272947	-1.990802	-0.630919	-0.069304	-0.772524	0.018590
40985	-9.309216	0.273134	-2.020140	-0.630488	-0.068708	-0.772967	0.016920
40986	-9.388336	0.320399	-1.918363	-0.630177	-0.068204	-0.773300	0.015249
40987	-9.395943	0.376293	-1.837853	-0.629895	-0.067963	-0.773580	0.013701
40988	-9.634088	0.291167	-1.575360	-0.629630	-0.068005	-0.773816	0.012294
40989	-9.678767	0.216335	-1.343707	-0.629394	-0.068290	-0.774002	0.011006
40990	-9.514917	-0.052181	-1.272994	-0.629167	-0.068730	-0.774162	0.009869
40991	-9.456820	0.232350	-1.526103	-0.628805	-0.069182	-0.774432	0.008558
40992	-9.472145	0.601347	-1.598523	-0.628479	-0.069616	-0.774674	0.006937
40993	-9.686972	0.868070	-1.493460	-0.628198	-0.070000	-0.774882	0.004975
40994	-10.120191	0.692186	-1.083381	-0.628113	-0.070567	-0.774909	0.003149
40995	-10.347418	0.312911	-0.626995	-0.628544	-0.071268	-0.774500	0.001724
40996	-10.366986	0.086115	-0.261225	-0.629769	-0.071757	-0.773461	0.000401
40997	-10.338490	0.210550	-0.295686	-0.631953	-0.071855	-0.771668	-0.001176
40998	-10.290348	0.580339	-0.453093	-0.634864	-0.071824	-0.769274	-0.002608
40999	-10.218390	0.841665	-0.516498	-0.638229	-0.071676	-0.766493	-0.003883
41000	-10.156973	0.900792	-0.538602	-0.642062	-0.071450	-0.763299	-0.005035
41001	-10.339247	1.109720	-0.557085	-0.646511	-0.071229	-0.759548	-0.006082
41002	-10.779038	1.323110	-0.360388	-0.651721	-0.071079	-0.755088	-0.007048
41003	-11.301907	1.007318	0.100965	-0.658032	-0.071183	-0.749581	-0.007449
41004	-11.736465	0.319659	0.772493	-0.665735	-0.072005	-0.742677	-0.006619
41005	-12.515921	-0.291997	1.802982	-0.674923	-0.073975	-0.734160	-0.004053
41006	-13.485230	-0.766068	2.580700	-0.685854	-0.077388	-0.723612	0.000236
41007	-13.908727	-0.506366	3.163646	-0.698709	-0.083673	-0.710461	0.006967
41008	-13.737993	0.752330	3.765457	-0.713368	-0.093899	-0.694285	0.016042
41009	-12.588166	1.923737	3.234039	-0.728120	-0.106672	-0.676629	0.025212
41010	-10.838355	2.544275	2.363271	-0.741037	-0.120130	-0.659746	0.034179
41011	-10.388253	3.183572	-0.608269	-0.752565	-0.134634	-0.642976	0.045845
41012	-8.833217	5.094793	-4.868070	-0.763967	-0.149851	-0.624523	0.062203
41013	-7.264480	5.106791	-1.841164	-0.775150	-0.158454	-0.606906	0.075494
41014	-6.442983	2.436926	0.566388	-0.784234	-0.160667	-0.593412	0.083817
41015	-6.213703	0.735297	1.111406	-0.791211	-0.160486	-0.583495	0.088108
41016	-7.048966	-1.022504	0.653202	-0.795770	-0.163724	-0.575748	0.091970
41017	-7.467608	-1.796986	0.362716	-0.797898	-0.173052	-0.568800	0.099391
41018	-6.521847	-0.173822	0.116559	-0.798553	-0.183734	-0.562921	0.108051
41019	-5.461455	1.498621	1.170190	-0.798042	-0.193334	-0.558842	0.115963
41020	-5.154474	2.163280	1.273667	-0.795970	-0.202505	-0.557083	0.122810
41021	-5.699915	2.687688	0.448796	-0.792335	-0.212645	-0.557158	0.128694
41022	-6.525395	3.087339	-0.136213	-0.787475	-0.223682	-0.558648	0.133272
41023	-7.419263	3.946093	0.017424	-0.782606	-0.232958	-0.561188	0.135374
41024	-7.835418	4.538584	-0.162047	-0.778328	-0.238997	-0.564562	0.135485
41025	-7.972140	4.908974	-0.152059	-0.774142	-0.243554	-0.568515	0.134820
41026	-7.906442	5.108297	-0.144887	-0.769707	-0.247950	-0.572818	0.133982
41027	-7.984465	5.274107	-0.119619	-0.764883	-0.252919	-0.577326	0.132965
41028	-8.673768	4.972730	0.261796	-0.759017	-0.259826	-0.582127	0.132334
41029	-9.380981	5.926426	1.511266	-0.752698	-0.268220	-0.586339	0.133083
41030	-10.001906	6.510765	2.928079	-0.747493	-0.276491	-0.588852	0.134391
41031	-9.752382	6.007080	4.105230	-0.743549	-0.285511	-0.588828	0.137473
41032	-8.871268	5.120275	4.179602	-0.739020	-0.296053	-0.587993	0.143063
41033	-8.772811	4.932057	3.474879	-0.733284	-0.305873	-0.588458	0.149846
41034	-8.876647	5.177276	4.225275	-0.729076	-0.308947	-0.590833	0.154646
41035	-9.426406	5.497752	5.007639	-0.727739	-0.303883	-0.594651	0.156334
41036	-11.124714	5.606162	4.644819	-0.729362	-0.292875	-0.598011	0.156965
41037	-14.342960	5.886310	2.761346	-0.732308	-0.278274	-0.601382	0.156935
41038	-18.345519	7.688889	3.760370	-0.737965	-0.261473	-0.601499	0.158868
41039	-16.628135	3.259499	4.954600	-0.746577	-0.245966	-0.595389	0.166238
41040	-14.126391	-10.423327	6.051620	-0.754291	-0.239154	-0.583380	0.183080
41041	-5.071256	-10.160607	-0.750708	-0.751822	-0.249711	-0.574187	0.206681
41042	-2.192255	0.849234	-7.184924	-0.747987	-0.257775	-0.572465	0.215294
41043	-6.301140	1.124644	-2.358678	-0.748675	-0.262266	-0.568295	0.218501
41044	-10.247075	-0.414647	1.038805	-0.746231	-0.270456	-0.563065	0.230110
41045	-12.761024	1.897851	0.700082	-0.740926	-0.274711	-0.563697	0.240433
41046	-12.302570	1.121435	0.481106	-0.739544	-0.271419	-0.564649	0.246125
41047	-9.044238	-0.987859	0.855578	-0.738064	-0.268564	-0.565685	0.251268
41048	-8.460645	-2.551709	2.376326	-0.736657	-0.265577	-0.568075	0.253173
41049	-9.966864	-3.456192	1.329124	-0.733885	-0.265825	-0.570648	0.255167
41050	-10.079882	-4.573828	0.810997	-0.732201	-0.268166	-0.569964	0.259053
41051	-8.367194	-4.630199	1.127123	-0.729236	-0.274050	-0.567520	0.266518
41052	-9.092556	-2.269281	3.123762	-0.724492	-0.283035	-0.564109	0.277097
41053	-10.190295	-0.239821	2.902095	-0.719559	-0.292156	-0.559818	0.288935
41054	-9.980585	0.719764	1.772035	-0.715860	-0.298818	-0.555887	0.298735
41055	-9.135651	0.962646	0.202879	-0.713338	-0.304229	-0.551708	0.306940
41056	-8.146576	-0.271737	-1.063060	-0.710736	-0.308696	-0.548372	0.314404
41057	-9.172263	-2.332505	-2.170448	-0.707050	-0.313520	-0.545943	0.322075
41058	-10.211314	-0.784618	-3.300971	-0.703402	-0.321088	-0.541328	0.330291
41059	-10.898758	2.437143	-1.953948	-0.700150	-0.334243	-0.532073	0.339071
41060	-11.493271	4.388225	-0.048578	-0.697496	-0.350172	-0.519598	0.347704
41061	-11.702417	4.588917	0.163839	-0.695830	-0.363904	-0.507779	0.354337
41062	-10.005581	2.418209	0.527899	-0.693963	-0.377589	-0.496405	0.359755
41063	-7.928010	1.068406	-0.818335	-0.692542	-0.390635	-0.486745	0.361759
41064	-7.267845	3.542992	-4.035998	-0.692636	-0.400585	-0.477861	0.362540
41065	-3.180740	8.800217	-3.888659	-0.692155	-0.409182	-0.471062	0.362755
41066	-1.599413	11.930168	-3.578671	-0.694029	-0.412039	-0.473047	0.353232
41067	-5.803265	11.201217	-3.409751	-0.699573	-0.408044	-0.481545	0.334980
41068	-9.274330	9.779247	-2.662106	-0.705467	-0.404016	-0.489838	0.314874
41069	-10.141555	7.981838	0.021254	-0.710890	-0.400728	-0.498221	0.292966
41070	-11.220491	6.420973	5.028833	-0.715962	-0.398939	-0.503320	0.273706
41071	-11.793198	5.984968	9.914195	-0.723959	-0.394880	-0.501835	0.260988
41072	-11.010504	8.558206	11.064579	-0.735818	-0.384279	-0.497046	0.252680
41073	-10.699192	19.331360	5.305803	-0.750119	-0.365077	-0.498236	0.236221
41074	-14.122081	15.298427	2.908445	-0.773421	-0.325713	-0.502955	0.206802
41075	-14.175870	-4.807331	7.026662	-0.797987	-0.281136	-0.501908	0.179635
41076	-9.066253	-20.055376	5.378244	-0.816204	-0.244341	-0.499173	0.157908
41077	-4.826791	-20.826434	1.654665	-0.825466	-0.227975	-0.494349	0.149170
41078	-2.961553	-12.010727	2.383965	-0.831650	-0.217596	-0.490498	0.142902
41079	-6.767121	-4.765764	2.523468	-0.834258	-0.212824	-0.489462	0.138373
41080	-13.795576	2.006502	0.546824	-0.835179	-0.208729	-0.490606	0.134958
41081	-15.759556	3.290740	-0.233992	-0.838500	-0.195270	-0.491809	0.130046
41082	-13.113955	2.569220	-1.103508	-0.841153	-0.180044	-0.494276	0.125447
41083	-11.268303	2.517096	0.071430	-0.843624	-0.165092	-0.497103	0.118035
41084	-10.505087	2.689384	1.525331	-0.845869	-0.151515	-0.500147	0.106781
41085	-10.086050	4.368440	2.754456	-0.848673	-0.136975	-0.502837	0.090262
41086	-8.968031	3.461327	3.065827	-0.852185	-0.120055	-0.504416	0.070231
41087	-7.307351	0.439051	2.787772	-0.856043	-0.099919	-0.504837	0.048427
41088	-6.155118	-2.173362	2.577592	-0.859318	-0.079759	-0.504506	0.026163
41089	-6.927791	-4.201994	4.165763	-0.862232	-0.061605	-0.502716	0.006122
41090	-9.836195	-8.631007	6.875905	-0.865110	-0.047736	-0.499236	-0.008327
41091	-11.389350	-7.376741	6.962392	-0.867816	-0.042805	-0.494767	-0.016415
41092	-10.975674	-3.812174	6.182625	-0.871172	-0.043351	-0.488507	-0.023279
41093	-7.212976	0.324201	4.981362	-0.873693	-0.047152	-0.483332	-0.028757
41094	-4.742262	4.738983	2.653895	-0.875625	-0.052556	-0.478946	-0.033615
41095	-4.976571	4.516937	4.691767	-0.877274	-0.052757	-0.475441	-0.039526
41096	-7.702156	2.970787	7.870323	-0.878361	-0.046743	-0.473363	-0.047164
41097	-8.681946	-1.812133	10.399275	-0.879608	-0.042047	-0.470848	-0.053140
41098	-7.658134	-4.592704	10.983757	-0.880843	-0.043845	-0.468298	-0.053758
41099	-5.554925	-4.264641	10.914625	-0.882221	-0.050009	-0.465635	-0.048679
41100	-3.481065	-1.474459	10.358485	-0.883328	-0.058431	-0.463514	-0.038377
41101	-3.552738	-1.652041	8.201508	-0.882540	-0.066855	-0.464831	-0.024203
41102	-6.176108	-2.756517	7.102896	-0.880496	-0.076926	-0.467736	-0.005734
41103	-7.585728	-1.524838	5.959970	-0.876900	-0.090710	-0.471750	0.016454
41104	-8.828793	-0.223194	3.815637	-0.871375	-0.106828	-0.477092	0.040956
41105	-9.496041	0.135668	1.922965	-0.864575	-0.120974	-0.483342	0.065237
41106	-10.214364	-0.397218	-0.097116	-0.856559	-0.135181	-0.489918	0.089517
41107	-11.969868	-1.542940	-0.588148	-0.847793	-0.148378	-0.496364	0.113370
41108	-13.283016	-2.320347	-1.159286	-0.838389	-0.163400	-0.501056	0.139094
41109	-11.644482	-1.354678	-1.859624	-0.828160	-0.182196	-0.503239	0.166455
41110	-8.347183	1.188927	-1.699357	-0.816595	-0.206419	-0.502952	0.193917
41111	-6.821305	4.008388	-2.904101	-0.805144	-0.232417	-0.499379	0.219877
41112	-4.481769	4.882150	-1.235289	-0.793833	-0.258068	-0.494169	0.242954
41113	-2.698183	3.873005	-0.697326	-0.781279	-0.282790	-0.490368	0.263006
41114	-4.240748	4.114715	-0.299274	-0.768981	-0.304791	-0.487603	0.279311
41115	-9.396091	4.932321	3.748118	-0.757864	-0.325468	-0.483689	0.292844
41116	-15.296614	6.197159	7.091818	-0.749073	-0.343759	-0.477806	0.304007
41117	-19.349512	6.105711	7.045830	-0.745558	-0.356063	-0.468736	0.312487
41118	-16.928859	5.963571	5.948556	-0.747107	-0.361880	-0.457247	0.319061
41119	-10.732692	2.555200	2.433751	-0.750446	-0.362278	-0.448051	0.323784
41120	-4.430829	-0.023857	0.280118	-0.753017	-0.359846	-0.443569	0.326684
41121	-2.107359	-3.472835	0.621388	-0.753871	-0.356510	-0.443535	0.328414
41122	-7.031422	-1.492840	1.276241	-0.749304	-0.360267	-0.445621	0.331923
41123	-12.763867	3.516804	0.292227	-0.742150	-0.370236	-0.446206	0.336213
41124	-16.661228	9.604618	1.582028	-0.737107	-0.378138	-0.447699	0.336525
41125	-15.249701	8.649534	2.036348	-0.736272	-0.378395	-0.453351	0.330444
41126	-13.186405	6.157159	-0.779893	-0.737754	-0.374046	-0.462114	0.319779
41127	-11.940899	5.110508	-1.358429	-0.740926	-0.366400	-0.472246	0.306208
41128	-10.443633	3.681640	-0.429363	-0.745040	-0.356031	-0.483162	0.291053
41129	-9.078712	2.334778	0.864478	-0.749992	-0.342813	-0.494942	0.273903
41130	-8.605173	1.061217	2.291006	-0.755050	-0.329101	-0.506298	0.255449
41131	-8.381894	0.581496	3.668428	-0.759578	-0.317354	-0.515744	0.237350
41132	-7.798936	1.977632	5.635641	-0.763867	-0.307733	-0.522685	0.220471
41133	-6.686361	2.922481	5.669307	-0.768822	-0.298124	-0.527605	0.204125
41134	-6.239279	3.940154	6.068107	-0.774327	-0.287602	-0.531047	0.188922
41135	-6.008935	4.315661	6.684446	-0.781421	-0.274510	-0.532561	0.174366
41136	-5.581221	5.202863	5.985178	-0.787977	-0.261730	-0.533834	0.160036
41137	-6.496203	5.317906	5.095270	-0.793313	-0.250377	-0.535354	0.146158
41138	-8.229566	4.553158	3.513974	-0.797702	-0.240407	-0.536577	0.134023
41139	-10.031168	4.383869	2.542772	-0.801150	-0.235120	-0.535223	0.128119
41140	-6.954413	3.961350	1.353736	-0.803452	-0.231257	-0.533869	0.126372
41141	-5.748932	3.333309	0.821222	-0.803036	-0.221218	-0.539647	0.122374
41142	-10.521038	4.596170	3.951206	-0.801374	-0.206007	-0.548978	0.118254
41143	-10.925665	-1.379340	5.776405	-0.802748	-0.189858	-0.552916	0.117620
41144	-8.610557	-3.140391	3.521928	-0.797722	-0.187757	-0.560461	0.119462
41145	-9.619600	1.531295	1.088279	-0.797930	-0.177620	-0.564707	0.113426
41146	-7.375108	1.347845	2.383481	-0.797481	-0.171680	-0.567610	0.111219
41147	-9.100867	-2.284395	2.897633	-0.796593	-0.159640	-0.573371	0.105835
41148	-10.870996	-5.788417	1.557755	-0.795808	-0.147827	-0.578494	0.100909
41149	-11.236992	-8.123146	1.460108	-0.795228	-0.140795	-0.581246	0.099715
41150	-10.793249	-6.941595	0.657015	-0.794011	-0.139949	-0.582540	0.102999
41151	-10.386448	-2.103655	0.611624	-0.793278	-0.143054	-0.581793	0.108451
41152	-9.848595	1.885733	1.977774	-0.792992	-0.149012	-0.579527	0.114491
41153	-9.701587	4.816561	2.643173	-0.794796	-0.154631	-0.574752	0.118526
41154	-8.888301	5.316905	3.443426	-0.799442	-0.159015	-0.566709	0.120200
41155	-7.959453	5.454245	3.533111	-0.807372	-0.160372	-0.555273	0.118754
41156	-7.408583	4.594587	3.067419	-0.817721	-0.158111	-0.541465	0.114672
41157	-6.767546	3.785846	3.357998	-0.829307	-0.153865	-0.525708	0.110487
41158	-5.685312	3.619149	3.544353	-0.841262	-0.147683	-0.509282	0.105355
41159	-4.523731	3.570472	1.701078	-0.854917	-0.138722	-0.490168	0.098024
41160	-3.062440	4.160260	2.736915	-0.868833	-0.130051	-0.469519	0.088140
41161	-3.218141	3.536329	2.832811	-0.882462	-0.121938	-0.448110	0.074757
41162	-3.671819	0.372339	3.160185	-0.896002	-0.113930	-0.425085	0.059184
41163	-2.114316	-2.189685	4.501914	-0.907978	-0.110085	-0.401779	0.045074
41164	0.775210	-1.601132	3.865214	-0.917691	-0.111533	-0.379946	0.032331
41165	0.472601	1.175010	0.216712	-0.926182	-0.115618	-0.358379	0.019564
41166	-6.564767	0.873550	9.225898	-0.936083	-0.115457	-0.332242	0.005729
41167	-8.085807	-3.664327	6.199940	-0.943885	-0.119635	-0.307808	-0.004728
41168	-3.673630	-4.476265	3.514948	-0.950167	-0.129641	-0.283206	-0.013004
41169	-2.338658	-5.614350	6.752620	-0.956180	-0.136321	-0.258197	-0.021679
41170	-5.036972	-2.905039	4.579936	-0.960097	-0.155082	-0.231516	-0.023732
41171	-3.573170	3.536892	9.286771	-0.964095	-0.170318	-0.202094	-0.025890
41172	-2.813607	6.955491	9.835057	-0.967782	-0.178903	-0.174803	-0.028909
41173	-1.714980	2.380692	8.367184	-0.971792	-0.181504	-0.147174	-0.031874
41174	-2.249704	-0.176762	8.616435	-0.973888	-0.188785	-0.121347	-0.034310
41175	-4.320543	0.960094	9.154308	-0.974264	-0.200768	-0.095620	-0.036850
41176	-2.681541	3.097510	9.404699	-0.973036	-0.216056	-0.070727	-0.038976
41177	1.492127	5.215636	10.982413	-0.970999	-0.231061	-0.046880	-0.039669
41178	1.195699	8.778686	11.922640	-0.968470	-0.244469	-0.024968	-0.040953
41179	2.344425	9.126553	14.227777	-0.966753	-0.252086	-0.004951	-0.042636
41180	2.897325	6.744988	13.363741	-0.965217	-0.257320	0.010748	-0.045013
41181	2.128575	8.452583	15.061932	-0.963241	-0.263598	0.022151	-0.046831
41182	3.549711	11.481602	15.957405	-0.961668	-0.268720	0.026173	-0.047959
41183	2.160438	10.531973	17.500642	-0.961354	-0.270357	0.023842	-0.046232
41184	-1.290004	11.335042	17.473416	-0.961356	-0.271623	0.016076	-0.041906
41185	-2.327296	13.258120	16.065394	-0.962059	-0.270550	0.004182	-0.035052
41186	-2.743056	12.746475	15.266117	-0.963432	-0.266399	-0.011168	-0.026553
41187	-2.979512	11.957624	14.610690	-0.964676	-0.261237	-0.029182	-0.017456
41188	-2.352870	10.873959	14.318478	-0.965566	-0.255488	-0.048429	-0.007890
41189	-1.770491	9.965941	12.925287	-0.965897	-0.249698	-0.068495	0.001632
41190	-0.696925	8.899574	11.951919	-0.965966	-0.242529	-0.089270	0.010944
41191	-0.492869	5.790527	10.221824	-0.965801	-0.233620	-0.110654	0.020160
41192	-1.527504	3.499104	9.356685	-0.964725	-0.225543	-0.132628	0.029083
41193	-2.222308	3.885412	8.990627	-0.962839	-0.218279	-0.154547	0.037559
41194	-1.695130	3.440280	9.013247	-0.960291	-0.210263	-0.177683	0.045385
41195	-1.767063	1.275143	9.060985	-0.956769	-0.202018	-0.202438	0.052920
41196	-1.865208	-1.033073	10.273585	-0.951440	-0.195434	-0.229787	0.061364
41197	-4.081289	-2.790382	5.921647	-0.945286	-0.187508	-0.257634	0.069994
41198	-4.880028	-1.311859	7.655099	-0.936890	-0.185493	-0.285018	0.081198
41199	-5.233733	0.951031	6.563231	-0.927002	-0.184692	-0.312859	0.093136
41200	-6.957484	0.917252	3.688544	-0.916109	-0.182820	-0.340774	0.105804
41201	-8.683062	1.267319	4.017090	-0.904377	-0.180222	-0.368061	0.118966
41202	-10.348105	1.517281	2.928610	-0.891257	-0.178605	-0.395562	0.131498
41203	-11.445269	1.581703	0.870588	-0.877802	-0.176598	-0.422093	0.141824
41204	-10.520263	0.867947	3.352862	-0.864257	-0.175237	-0.446801	0.150735
41205	-9.266234	-0.227026	4.672944	-0.850163	-0.176763	-0.469749	0.159101
41206	-8.687659	-0.174665	5.936094	-0.835930	-0.182154	-0.489882	0.167504
41207	-8.930033	1.321999	7.571200	-0.822354	-0.192137	-0.505738	0.176201
41208	-9.373806	3.166590	10.218341	-0.810819	-0.204809	-0.516249	0.184698
41209	-9.400210	3.544475	10.830896	-0.802445	-0.218162	-0.521202	0.191929
41210	-7.944961	4.474117	9.047593	-0.797959	-0.229835	-0.521134	0.197120
41211	-5.616783	3.841114	6.487280	-0.797064	-0.237840	-0.517753	0.200133
41212	-3.868935	2.023116	4.196148	-0.798846	-0.242018	-0.512497	0.201544
41213	-3.243762	0.733349	1.801535	-0.802746	-0.244387	-0.504589	0.203136
41214	-2.819867	-0.524497	2.923861	-0.807090	-0.248605	-0.494776	0.204934
41215	-3.163985	-1.181639	1.773911	-0.811840	-0.255332	-0.482801	0.206459
41216	-3.931701	-0.858003	-0.672573	-0.816041	-0.265248	-0.469056	0.209063
41217	-4.684601	0.554505	-2.696423	-0.818930	-0.277504	-0.454326	0.214320
41218	-5.214853	0.558227	-0.243365	-0.819435	-0.291630	-0.440233	0.222876
41219	-7.996484	1.552843	0.492450	-0.816147	-0.308247	-0.429071	0.234064
41220	-10.205722	3.006437	0.821089	-0.809876	-0.326449	-0.420445	0.246492
41221	-10.268147	4.350291	-1.039709	-0.802030	-0.344668	-0.413985	0.258008
41222	-5.768563	5.452436	-0.875784	-0.793034	-0.362056	-0.408708	0.270130
41223	-1.264149	5.174353	0.250216	-0.783967	-0.375608	-0.408345	0.278512
41224	-0.739962	1.939777	-0.066158	-0.773804	-0.387854	-0.414508	0.281033
41225	-4.383111	-0.103098	-0.349451	-0.761756	-0.402750	-0.422943	0.280428
41226	-7.536034	1.036235	-6.118008	-0.745899	-0.421773	-0.432382	0.280691
41227	-9.831036	6.458073	-5.266782	-0.725374	-0.444879	-0.441996	0.283821
41228	-11.295915	13.995753	-8.670868	-0.708797	-0.461562	-0.451698	0.283790
41229	-8.022901	18.200351	-3.822111	-0.695371	-0.477463	-0.457160	0.281945
41230	-9.381650	17.093059	3.092059	-0.692785	-0.483713	-0.458708	0.275059
41231	-10.051489	13.538874	8.176042	-0.702219	-0.475854	-0.459764	0.262809
41232	-9.090188	10.309695	7.153082	-0.719748	-0.454323	-0.464866	0.243831
41233	-7.760789	7.369164	5.870909	-0.738632	-0.425270	-0.473273	0.222666
41234	-7.536607	5.146198	4.867178	-0.755694	-0.393334	-0.481916	0.204870
41235	-8.091539	3.586238	6.558150	-0.772870	-0.360862	-0.485667	0.191255
41236	-9.033587	0.313280	12.449666	-0.789594	-0.334505	-0.480207	0.184524
41237	-8.765012	-0.445858	12.445506	-0.805418	-0.308000	-0.473950	0.178353
41238	-15.026909	-1.470365	8.454948	-0.816857	-0.282078	-0.473041	0.171492
41239	-19.636160	-9.540498	3.151731	-0.823284	-0.267774	-0.469096	0.174498
41240	-12.526853	-4.698137	-7.176423	-0.824953	-0.269478	-0.463678	0.178428
41241	-7.231141	8.651841	-6.406866	-0.827825	-0.270998	-0.458572	0.176004
41242	-5.797896	9.027360	0.622908	-0.830312	-0.269759	-0.456059	0.172689
41243	-12.481258	6.314153	3.898057	-0.833202	-0.262077	-0.457744	0.166010
41244	-15.286889	2.533199	2.054733	-0.840424	-0.247495	-0.455913	0.156771
41245	-10.962264	-0.260418	3.800368	-0.849260	-0.231992	-0.451216	0.146086
41246	-7.775817	-0.219921	1.154774	-0.857629	-0.215694	-0.447770	0.132102
41247	-7.829177	-1.418133	1.021722	-0.863279	-0.203269	-0.446882	0.117163
41248	-9.844230	-1.349066	1.855354	-0.868342	-0.191212	-0.446560	0.100018
41249	-10.115361	-1.775839	2.845519	-0.873401	-0.181185	-0.444214	0.083765
41250	-9.449580	-4.393294	5.501167	-0.878996	-0.170532	-0.439688	0.070428
41251	-5.171339	-4.519356	7.700778	-0.883370	-0.163282	-0.434712	0.063425
41252	0.027945	-5.648118	6.407609	-0.885662	-0.154680	-0.433777	0.059287
41253	-3.434694	-5.509823	7.635953	-0.884200	-0.151772	-0.437716	0.059663
41254	-9.047777	0.189409	6.368582	-0.880464	-0.156564	-0.443278	0.061438
41255	-11.167233	3.933563	5.740200	-0.876762	-0.163766	-0.447696	0.063537
41256	-10.484708	4.183544	7.545534	-0.874161	-0.167206	-0.450892	0.067691
41257	-7.912907	4.676134	8.059126	-0.872811	-0.166422	-0.452865	0.073606
41258	-6.525907	3.265277	7.079614	-0.871297	-0.164227	-0.455336	0.080868
41259	-6.318416	1.202020	6.311675	-0.868792	-0.164959	-0.458102	0.090178
41260	-5.947267	-0.149918	5.434357	-0.864787	-0.170196	-0.461366	0.101581
41261	-5.917980	-0.341029	5.382987	-0.859088	-0.178195	-0.466142	0.113693
41262	-6.454776	0.486807	5.450895	-0.852137	-0.187526	-0.472035	0.126013
41263	-7.164712	0.445617	5.021829	-0.844471	-0.197492	-0.478014	0.139169
41264	-7.855563	1.903999	3.559338	-0.835325	-0.209415	-0.484344	0.154236
41265	-8.285092	2.581622	1.806392	-0.825196	-0.221163	-0.491393	0.169325
41266	-8.335699	2.195152	1.085593	-0.814102	-0.233311	-0.499109	0.183562
41267	-9.133088	-0.276966	1.347274	-0.802697	-0.244349	-0.507494	0.196012
41268	-10.384809	-3.852781	1.800238	-0.790790	-0.257951	-0.513879	0.209861
41269	-11.174375	-6.272919	1.962691	-0.777785	-0.277353	-0.516195	0.227308
41270	-11.199278	-6.738205	2.015772	-0.761833	-0.304053	-0.515503	0.247828
41271	-11.183453	-2.859565	0.460189	-0.743594	-0.334599	-0.512676	0.268838
41272	-10.075277	1.794349	-0.310957	-0.725284	-0.365618	-0.506822	0.288822
41273	-7.476873	4.420970	1.914985	-0.708251	-0.393459	-0.500151	0.305644
41274	-5.737700	4.383881	2.156365	-0.691276	-0.418774	-0.493967	0.320566
41275	-3.975760	2.797355	0.709497	-0.674370	-0.441700	-0.488423	0.334018
41276	-2.326379	-0.151434	1.511089	-0.654027	-0.465492	-0.486423	0.344903
41277	-4.670599	-1.048404	-4.858950	-0.629971	-0.491870	-0.480469	0.361040
41278	-5.414511	0.692483	-2.826656	-0.605708	-0.517968	-0.473470	0.375038
41279	-7.536777	-2.487844	-0.801990	-0.584697	-0.539825	-0.468353	0.383880
41280	-7.404975	-0.681643	-4.017892	-0.560308	-0.563133	-0.462039	0.394278
41281	-6.288846	-0.334232	-3.085872	-0.535491	-0.584620	-0.455520	0.404932
41282	-6.057692	-1.084667	-3.979461	-0.507523	-0.605826	-0.450165	0.415627
41283	-8.564037	1.587120	-6.902996	-0.477815	-0.626040	-0.444689	0.426636
41284	-14.701163	7.148461	-8.019548	-0.447536	-0.644402	-0.437700	0.439177
41285	-19.213287	11.027287	-5.135690	-0.422474	-0.658374	-0.430535	0.450221
41286	-17.649555	13.004435	-4.878447	-0.407628	-0.667324	-0.423271	0.457559
41287	-15.964751	9.985143	-5.192666	-0.402514	-0.671673	-0.418861	0.459776
41288	-14.901298	6.442910	-4.901785	-0.402696	-0.672809	-0.415830	0.460705
41289	-12.238797	2.686340	-4.104808	-0.407438	-0.670903	-0.415822	0.459321
41290	-11.606200	-0.595728	-4.494260	-0.412038	-0.668264	-0.417778	0.457286
41291	-11.299622	-1.819122	-4.422487	-0.414629	-0.665877	-0.420964	0.455499
41292	-11.279709	-2.813563	-4.442043	-0.414182	-0.665148	-0.423856	0.454288
41293	-10.564106	-3.181350	-5.772542	-0.410371	-0.666755	-0.424906	0.454410
41294	-9.741461	-0.653991	-7.126940	-0.403151	-0.670453	-0.423045	0.457159
41295	-9.082827	4.159011	-4.430384	-0.394916	-0.674577	-0.420881	0.460268
41296	-9.238544	7.030328	-3.227727	-0.388368	-0.677674	-0.420399	0.461728
41297	-9.560770	7.465406	-3.312680	-0.386275	-0.678519	-0.422010	0.460772
41298	-10.137512	7.265469	-3.845989	-0.388816	-0.676717	-0.424373	0.459112
41299	-10.551261	6.981430	-3.814032	-0.395504	-0.672534	-0.426299	0.457760
41300	-11.323274	6.552704	-2.781004	-0.405762	-0.666018	-0.427025	0.457632
41301	-11.200221	6.031778	-0.785185	-0.422930	-0.654680	-0.430093	0.455570
41302	-11.577402	4.152782	-5.121576	-0.445239	-0.638931	-0.433611	0.453333
41303	-10.709060	3.764365	-5.959042	-0.469449	-0.621482	-0.436685	0.450205
41304	-12.971952	6.294488	-5.149672	-0.491891	-0.604856	-0.439622	0.446009
41305	-14.368712	8.243876	-7.817439	-0.517678	-0.585386	-0.442754	0.439661
41306	-13.929787	8.727342	-5.824373	-0.545911	-0.565255	-0.445554	0.428893
41307	-12.316484	8.814063	-5.431049	-0.579994	-0.539758	-0.449957	0.412076
41308	-11.429881	6.248271	-5.703059	-0.619107	-0.507541	-0.456037	0.388766
41309	-11.414670	2.535344	-6.376436	-0.659524	-0.471117	-0.460819	0.361556
41310	-10.832063	-0.944856	-6.702849	-0.697330	-0.433957	-0.463201	0.332953
41311	-9.248249	-2.329634	-6.358826	-0.730187	-0.398893	-0.463164	0.305271
41312	-7.418257	-4.266467	-6.529907	-0.757796	-0.367039	-0.461646	0.279124
41313	-5.720059	-4.510990	-5.828585	-0.779898	-0.340504	-0.459033	0.255156
41314	-4.589986	-4.507731	-3.296070	-0.800345	-0.314518	-0.455881	0.229561
41315	-3.591189	-5.290630	-0.940626	-0.821181	-0.284794	-0.451598	0.201528
41316	-2.739725	-5.556119	1.174129	-0.841155	-0.253110	-0.445202	0.173750
41317	-1.252936	-4.753776	2.611983	-0.857757	-0.224207	-0.438192	0.148228
41318	-2.500444	-8.874043	4.641000	-0.869063	-0.202113	-0.433881	0.125009
41319	-6.325799	-11.008795	5.906285	-0.876342	-0.189359	-0.430249	0.105134
41320	-7.918127	-3.748289	6.741244	-0.880171	-0.187285	-0.427058	0.088568
41321	-8.680944	2.062555	6.792352	-0.884305	-0.184175	-0.422894	0.072414
41322	-7.699146	2.856411	6.788766	-0.890030	-0.176537	-0.416167	0.059043
41323	-4.722726	-0.812509	8.104344	-0.895475	-0.166765	-0.409762	0.049073
41324	-3.536009	-5.589296	11.720056	-0.899400	-0.159268	-0.404904	0.042033
41325	-7.267579	-4.171053	14.241384	-0.901697	-0.156997	-0.401051	0.038110
41326	-10.638571	-0.244336	13.717653	-0.902624	-0.162089	-0.396909	0.038199
41327	-8.576606	3.757284	9.629905	-0.903276	-0.168202	-0.392677	0.040075
41328	-5.218821	4.608184	6.791805	-0.903539	-0.172807	-0.389658	0.043841
41329	-4.622187	2.998444	6.581556	-0.903146	-0.174553	-0.389166	0.049084
41330	-5.875722	1.209664	6.463074	-0.901557	-0.175962	-0.391333	0.055594
41331	-6.403509	0.846941	5.777304	-0.898924	-0.177469	-0.395653	0.062438
41332	-7.210402	1.717013	5.664005	-0.894990	-0.180938	-0.401598	0.070524
41333	-8.071719	3.202549	6.120886	-0.890365	-0.183367	-0.409154	0.078870
41334	-8.765482	3.039433	6.259805	-0.885130	-0.184470	-0.418218	0.087228
41335	-9.173729	2.618485	5.077300	-0.878888	-0.185812	-0.428749	0.095940
41336	-8.817648	3.553548	3.168660	-0.871577	-0.188008	-0.440541	0.104548
41337	-7.780373	4.104883	2.058530	-0.864011	-0.188613	-0.453126	0.112195
41338	-6.803309	3.426034	3.471622	-0.856405	-0.186416	-0.466602	0.118755
41339	-8.810331	1.686245	4.916251	-0.848020	-0.183917	-0.481152	0.124621
41340	-11.942867	-0.137439	4.003049	-0.838586	-0.184918	-0.495265	0.131493
41341	-11.147484	-1.418667	1.604946	-0.829136	-0.189306	-0.507074	0.139903
41342	-7.960605	-2.917446	2.436144	-0.820422	-0.194064	-0.516882	0.148591
41343	-6.423607	-3.224424	2.546987	-0.810871	-0.201737	-0.526012	0.158436
41344	-7.610555	-1.111552	2.548515	-0.800242	-0.212672	-0.534566	0.169181
41345	-9.551366	1.021886	2.356277	-0.789923	-0.225678	-0.541083	0.179779
41346	-10.104653	2.064947	2.170773	-0.780369	-0.240215	-0.545041	0.190398
41347	-9.704912	3.560397	1.888709	-0.771875	-0.254017	-0.547520	0.199767
41348	-9.420976	4.972875	1.874250	-0.765149	-0.266469	-0.548109	0.207650
41349	-9.597865	6.205591	1.701061	-0.760156	-0.276659	-0.548179	0.212423
41350	-10.369579	7.074912	1.490142	-0.758441	-0.282433	-0.547623	0.212386
41351	-10.855993	5.022564	2.057236	-0.759955	-0.283193	-0.546433	0.209001
41352	-9.877710	0.785785	1.764030	-0.764094	-0.278683	-0.545560	0.202139
41353	-9.253516	-1.397216	0.633068	-0.769789	-0.271817	-0.544238	0.193249
41354	-9.392055	-1.751471	-0.497529	-0.775909	-0.264952	-0.541933	0.184594
41355	-9.455920	-2.210789	-0.095711	-0.781735	-0.259045	-0.539027	0.176736
41356	-10.468950	-1.755922	-1.251043	-0.787187	-0.254305	-0.535977	0.168509
41357	-10.567362	-0.187690	-1.814188	-0.792859	-0.250210	-0.532703	0.158102
41358	-10.439533	0.950781	-2.224837	-0.798627	-0.246398	-0.529330	0.145920
41359	-10.598498	2.185116	-1.354717	-0.804392	-0.240599	-0.526959	0.131831
41360	-10.763179	2.005507	-0.169802	-0.809781	-0.231569	-0.526521	0.115784
41361	-11.201619	2.985898	2.149288	-0.813509	-0.224267	-0.526825	0.101797
41362	-11.779749	7.971452	5.685484	-0.817325	-0.221266	-0.524329	0.090001
41363	-10.614631	11.498893	9.618349	-0.823980	-0.220633	-0.516033	0.078029
41364	-9.124910	8.844413	12.343652	-0.834396	-0.218410	-0.502107	0.062998
41365	-8.288196	3.266539	12.169719	-0.845811	-0.215344	-0.485789	0.047326
41366	-7.443243	0.456734	11.169524	-0.857210	-0.211375	-0.468405	0.033291
41367	-4.585477	1.593135	8.488589	-0.868409	-0.203693	-0.451675	0.019087
41368	-2.382840	2.878733	3.043988	-0.877111	-0.193455	-0.439595	0.002857
41369	-2.851601	1.372767	-0.203246	-0.880627	-0.192425	-0.432879	-0.009186
41370	-4.264379	-0.011780	0.442405	-0.879552	-0.205912	-0.428799	-0.010947
41371	-6.000550	1.707099	-2.255237	-0.875059	-0.227814	-0.427044	-0.002557
41372	-5.175554	4.175945	-1.548318	-0.872707	-0.243197	-0.423332	0.005217
41373	-2.761665	2.776477	3.055809	-0.871628	-0.249223	-0.422029	0.006569
41374	-3.062723	3.167568	5.804110	-0.867707	-0.255028	-0.426627	0.005920
41375	-4.933416	5.680214	3.187674	-0.862241	-0.261534	-0.433728	0.004599
41376	-5.141764	6.861642	1.158792	-0.855689	-0.271177	-0.440731	0.004009
41377	-6.815106	10.186911	-1.151649	-0.848539	-0.281487	-0.448026	0.004522
41378	-7.564707	12.039089	-0.777237	-0.846598	-0.282923	-0.450803	0.001558
41379	-6.794894	9.785050	4.870056	-0.847717	-0.277187	-0.452214	-0.006766
41380	-7.092991	7.171026	5.360578	-0.848865	-0.268294	-0.455110	-0.017918
41381	-7.995750	4.528949	3.186949	-0.850683	-0.256232	-0.458002	-0.030301
41382	-7.275757	3.087120	1.509866	-0.851831	-0.246920	-0.460196	-0.040428
41383	-6.629852	2.849811	4.412940	-0.852992	-0.239141	-0.461228	-0.049853
41384	-6.130535	4.446423	5.568101	-0.854095	-0.231433	-0.461941	-0.059754
41385	-6.728401	5.324463	5.147816	-0.855440	-0.222331	-0.462629	-0.069029
41386	-6.545789	2.262602	6.336570	-0.857602	-0.211241	-0.462487	-0.077465
41387	-6.596133	-0.039638	5.552527	-0.858857	-0.203224	-0.462657	-0.083738
41388	-6.247079	1.221860	5.288554	-0.858717	-0.202580	-0.462754	-0.086168
41389	-7.427092	3.572809	5.937035	-0.858879	-0.203642	-0.461725	-0.087558
41390	-9.541741	5.382572	10.071667	-0.860800	-0.203678	-0.458011	-0.088116
41391	-11.810638	5.111138	11.985435	-0.863748	-0.203137	-0.452748	-0.087708
41392	-13.545806	4.695192	11.701579	-0.868810	-0.202956	-0.443357	-0.086092
41393	-10.594864	3.430248	8.919860	-0.875473	-0.204447	-0.429858	-0.083492
41394	-6.278815	2.898583	5.821739	-0.881679	-0.208516	-0.415573	-0.080386
41395	-4.214480	3.207704	4.680454	-0.887697	-0.211139	-0.401594	-0.078335
41396	-4.126966	2.747276	3.037606	-0.893027	-0.212150	-0.389202	-0.077565
41397	-4.008861	2.596354	3.605890	-0.897277	-0.213216	-0.378731	-0.077428
41398	-4.951083	1.718872	5.077460	-0.900875	-0.214441	-0.369346	-0.077601
41399	-6.324131	2.806818	7.206405	-0.903372	-0.217466	-0.361384	-0.077653
41400	-7.565574	4.120039	9.251817	-0.906275	-0.220168	-0.352256	-0.078145
41401	-6.893194	4.158587	10.220176	-0.909829	-0.221241	-0.342011	-0.079321
41402	-5.521169	3.931554	8.975595	-0.913382	-0.221826	-0.331784	-0.080289
41403	-4.709005	3.275766	7.231744	-0.916513	-0.222152	-0.322666	-0.080863
41404	-4.362572	3.771140	6.779650	-0.918579	-0.223655	-0.315798	-0.080393
41405	-5.050123	4.720885	7.853888	-0.920031	-0.225138	-0.310698	-0.079512
41406	-6.094954	4.718993	9.488286	-0.920914	-0.226682	-0.307169	-0.078617
41407	-7.104305	4.949299	11.306795	-0.921510	-0.228410	-0.304401	-0.077381
41408	-6.927760	5.127500	11.345319	-0.922017	-0.230304	-0.301939	-0.075352
41409	-6.297809	5.315635	10.068696	-0.922397	-0.231597	-0.300445	-0.072653
41410	-5.818890	5.012294	8.865893	-0.922503	-0.232160	-0.300410	-0.069599
41411	-5.713259	5.399162	8.338521	-0.922137	-0.232167	-0.302186	-0.066677
41412	-6.330287	5.865296	8.532832	-0.921353	-0.231323	-0.305761	-0.064105
41413	-7.076983	5.977220	9.406528	-0.920206	-0.229831	-0.310725	-0.062036
41414	-8.108403	6.232222	9.929187	-0.918643	-0.228401	-0.316650	-0.060504
41415	-7.981079	6.504914	9.397555	-0.916894	-0.226441	-0.323194	-0.059793
41416	-7.593375	6.007317	8.457513	-0.914958	-0.223460	-0.330645	-0.059935
41417	-6.965571	5.424659	7.342454	-0.912507	-0.219971	-0.339513	-0.060616
41418	-6.889942	5.019983	7.106295	-0.909058	-0.216963	-0.350390	-0.061374
41419	-6.978673	5.425380	7.401620	-0.904643	-0.214531	-0.363002	-0.061866
41420	-7.701397	4.494717	7.288505	-0.899626	-0.211152	-0.377012	-0.062847
41421	-8.767416	4.444052	7.895929	-0.893830	-0.207944	-0.392197	-0.063322
41422	-8.885107	4.238245	8.118619	-0.887841	-0.204089	-0.407483	-0.063596
41423	-8.769290	3.865926	6.400756	-0.881317	-0.199277	-0.423634	-0.064059
41424	-8.684264	3.382009	6.411674	-0.874372	-0.193128	-0.440472	-0.064499
41425	-8.204388	2.299993	4.952804	-0.866869	-0.185147	-0.458333	-0.064727
41426	-7.951179	0.767992	3.155241	-0.859074	-0.175111	-0.476547	-0.065051
41427	-7.689940	1.274605	2.052306	-0.850171	-0.164641	-0.495903	-0.064678
41428	-7.557883	0.751446	0.764156	-0.840120	-0.152814	-0.516390	-0.064710
41429	-7.967188	-0.369136	-0.806661	-0.828669	-0.140476	-0.537959	-0.064610
41430	-8.563225	-1.245961	-0.307095	-0.817361	-0.126341	-0.558251	-0.065686
41431	-9.354558	-1.872029	0.546569	-0.804948	-0.114810	-0.578557	-0.064406
41432	-9.682262	-2.098670	1.699138	-0.792393	-0.106363	-0.597615	-0.060471
41433	-8.411817	-0.693538	1.296673	-0.779321	-0.101234	-0.616032	-0.053988
41434	-6.297775	1.306585	1.955066	-0.766276	-0.098042	-0.633282	-0.046503
41435	-4.722963	2.548018	1.779935	-0.753684	-0.093961	-0.649242	-0.040213
41436	-4.690534	2.318709	2.889846	-0.741089	-0.089587	-0.664471	-0.035221
41437	-6.580553	0.998503	4.509030	-0.728618	-0.086602	-0.678704	-0.031254
41438	-8.433150	-0.193549	5.280753	-0.717490	-0.087053	-0.690584	-0.026896
41439	-9.835931	1.056406	5.502976	-0.709465	-0.090512	-0.698577	-0.021386
41440	-7.642702	3.515794	4.670073	-0.704727	-0.094115	-0.703029	-0.015869
41441	-7.205891	4.261471	3.791463	-0.701877	-0.093971	-0.705943	-0.013517
41442	-7.923787	3.570191	3.791852	-0.700744	-0.091216	-0.707445	-0.012600
41443	-8.724854	2.147443	3.135168	-0.699919	-0.089774	-0.708485	-0.010151
41444	-11.361021	1.903025	2.050893	-0.700984	-0.090378	-0.707385	-0.007755
41445	-12.463967	2.681542	1.927875	-0.705111	-0.093424	-0.702886	-0.006487
41446	-11.868880	2.849305	2.467141	-0.710857	-0.098204	-0.696420	-0.006127
41447	-11.869874	3.959639	1.752719	-0.717116	-0.105721	-0.688880	-0.003436
41448	-11.933310	6.553423	-0.415915	-0.725189	-0.114539	-0.678956	0.000744
41449	-10.879460	8.272177	-0.719920	-0.733913	-0.121443	-0.668292	0.003120
41450	-10.464474	7.670557	0.136216	-0.742261	-0.122326	-0.658850	0.001103
41451	-11.110241	3.922818	0.065268	-0.751656	-0.116607	-0.649159	-0.002882
41452	-10.084487	1.004575	0.455980	-0.761730	-0.108063	-0.638794	-0.005607
41453	-9.375840	0.804127	0.211402	-0.771280	-0.099268	-0.628663	-0.007480
41454	-8.301466	2.310300	-1.554918	-0.779946	-0.092237	-0.618959	-0.008174
41455	-7.035906	3.328739	-1.018194	-0.787648	-0.087454	-0.609831	-0.008311
41456	-7.132941	3.758986	0.096368	-0.794430	-0.083116	-0.601565	-0.009613
41457	-7.832950	3.435677	0.885084	-0.800860	-0.075803	-0.593870	-0.014009
41458	-7.664033	2.318186	1.033087	-0.806476	-0.066277	-0.587215	-0.019564
41459	-6.854191	2.258876	1.632270	-0.810495	-0.055091	-0.582596	-0.025389
41460	-5.651659	3.040586	1.147570	-0.814384	-0.041035	-0.577920	-0.033226
41461	-5.225614	3.552809	1.622498	-0.816988	-0.024189	-0.574488	-0.043695
41462	-6.706430	3.353990	1.745930	-0.818116	-0.002957	-0.572231	-0.056827
41463	-9.547777	2.235220	3.320485	-0.819987	0.024226	-0.567259	-0.072467
41464	-7.928310	0.833190	3.087717	-0.821681	0.058446	-0.559765	-0.089932
41465	-5.039686	-3.176832	1.019904	-0.819960	0.092981	-0.554783	-0.105998
41466	-4.740951	-6.458776	1.137970	-0.815522	0.122042	-0.553072	-0.118922
41467	-8.239777	-10.123762	4.691062	-0.810599	0.149132	-0.550576	-0.132493
41468	-11.961101	-10.949458	-0.854036	-0.804624	0.156443	-0.557005	-0.133613
41469	-15.258894	-4.547662	-4.450994	-0.801740	0.149705	-0.563659	-0.130725
41470	-13.653139	4.597059	-2.036070	-0.802246	0.141172	-0.565343	-0.129843
41471	-8.642844	6.499320	4.264691	-0.802605	0.144597	-0.562869	-0.134519
41472	-7.013065	3.155927	6.864326	-0.797390	0.167844	-0.559668	-0.150895
41473	-13.427350	-3.749499	12.258289	-0.788137	0.202156	-0.554387	-0.175011
41474	-18.009106	-10.457073	1.019273	-0.777561	0.226888	-0.552438	-0.196807
41475	-12.367183	-7.570900	-3.905621	-0.772331	0.235025	-0.550066	-0.213764
41476	-5.668513	-1.323961	1.769815	-0.768721	0.241062	-0.547268	-0.226837
41477	-8.442260	0.337750	1.651844	-0.761771	0.254115	-0.545102	-0.240818
41478	-13.617548	1.667607	1.966959	-0.754099	0.272596	-0.539712	-0.256390
41479	-15.380122	1.031993	2.263254	-0.744698	0.297124	-0.530301	-0.275543
41480	-13.608294	-2.771367	0.805550	-0.732896	0.328547	-0.516117	-0.297562
41481	-10.839248	-9.296601	0.350315	-0.720396	0.361271	-0.498992	-0.318621
41482	-9.935878	-10.963812	-0.141472	-0.708500	0.390923	-0.481748	-0.336342
41483	-10.691958	-9.766204	-1.570337	-0.696883	0.416571	-0.465168	-0.352762
41484	-11.389673	-3.688728	0.294310	-0.684465	0.436959	-0.450565	-0.370897
41485	-10.885952	-3.947702	1.767833	-0.672527	0.451343	-0.438028	-0.390036
41486	-7.410183	-5.007531	2.451999	-0.660107	0.465514	-0.424849	-0.408728
41487	-2.665521	-1.861185	1.639476	-0.648162	0.476330	-0.417517	-0.422701
41488	-4.964826	6.025601	3.173645	-0.634730	0.486681	-0.409432	-0.438891
41489	-2.692891	5.519365	4.285329	-0.619655	0.501957	-0.390892	-0.459641
41490	0.902770	-3.915635	4.628757	-0.603380	0.518704	-0.371230	-0.478609
41491	0.762628	-11.189506	8.460211	-0.591040	0.529882	-0.360553	-0.489793
41492	-2.364439	-14.509842	11.157056	-0.586421	0.534063	-0.362091	-0.489671
41493	-10.635765	-8.263759	12.035316	-0.586090	0.532202	-0.372685	-0.484113
41494	-15.230097	-4.110468	7.411580	-0.587590	0.524287	-0.384138	-0.481974
41495	-11.571424	-2.286865	4.115977	-0.592572	0.512080	-0.391590	-0.483001
41496	-7.984112	-1.634429	3.184659	-0.598892	0.499321	-0.396539	-0.484525
41497	-7.134521	-3.291904	5.344075	-0.605918	0.487446	-0.399352	-0.485570
41498	-5.787345	-6.005907	1.660070	-0.610729	0.481166	-0.398083	-0.486847
41499	-8.139274	-4.305124	-1.079595	-0.614410	0.479929	-0.396167	-0.484995
41500	-13.401627	5.645131	-1.206974	-0.615855	0.481522	-0.393660	-0.483623
41501	-11.621866	11.568212	-3.890901	-0.613058	0.487384	-0.385336	-0.487989
41502	-10.903153	6.912604	-4.753749	-0.608268	0.494400	-0.376189	-0.494025
41503	-9.744497	-0.733187	-1.161050	-0.604042	0.498131	-0.371678	-0.498852
41504	-8.323559	-6.305621	1.937644	-0.600013	0.499755	-0.373067	-0.501050
41505	-9.668029	-4.171200	2.551542	-0.597421	0.499918	-0.375794	-0.501945
41506	-7.719645	-3.056950	4.215475	-0.598726	0.499327	-0.376993	-0.500075
41507	-6.610772	-2.700719	4.667215	-0.601485	0.500274	-0.375288	-0.497091
41508	-9.073300	-1.333837	6.295177	-0.604783	0.500615	-0.374027	-0.493686
41509	-11.494574	-0.616830	2.982772	-0.608552	0.499687	-0.373214	-0.490601
41510	-12.007094	-0.589038	0.178121	-0.611429	0.498303	-0.373369	-0.488307
41511	-10.505569	-0.662922	-0.951083	-0.613668	0.497265	-0.375132	-0.485197
41512	-8.573575	-0.340532	-0.481466	-0.614654	0.498353	-0.377611	-0.480890
41513	-8.675577	0.160553	0.769883	-0.614304	0.501788	-0.378801	-0.476811
41514	-9.428016	1.013509	3.035783	-0.612677	0.506150	-0.378394	-0.474612
41515	-10.711459	0.312621	4.707149	-0.610112	0.510021	-0.377369	-0.474589
41516	-11.014368	-1.097197	5.016398	-0.608209	0.511677	-0.376397	-0.476019
41517	-9.645511	-2.085835	5.686741	-0.607604	0.511128	-0.376380	-0.477392
41518	-8.778470	-1.387057	6.105986	-0.607930	0.509544	-0.376571	-0.478519
41519	-8.601772	-1.182668	6.450090	-0.609681	0.507490	-0.375880	-0.479018
41520	-8.691562	-1.492787	6.836421	-0.612547	0.505085	-0.374785	-0.478761
41521	-8.212940	-2.833659	5.075676	-0.614900	0.503293	-0.374806	-0.477614
41522	-7.275822	-5.950670	3.999715	-0.618371	0.500455	-0.379651	-0.472258
41523	-6.695048	-5.654161	3.040835	-0.622211	0.497009	-0.388916	-0.463229
41524	-8.388277	-4.178245	2.378022	-0.626276	0.492533	-0.402914	-0.450389
41525	-9.359034	-1.896219	2.330922	-0.629809	0.487685	-0.419150	-0.435681
41526	-8.926282	-0.490150	0.757466	-0.632494	0.483210	-0.435639	-0.420331
41527	-7.793855	-0.169733	0.172162	-0.634926	0.478618	-0.452886	-0.403345
41528	-7.298302	-1.442064	0.105373	-0.636272	0.474727	-0.470203	-0.385618
41529	-6.927690	-3.927529	1.563372	-0.637238	0.470227	-0.488418	-0.366419
41530	-6.567952	-6.490951	4.523999	-0.640158	0.461379	-0.510812	-0.341173
41531	-5.636355	-11.614436	-4.279646	-0.642164	0.448037	-0.537244	-0.313461
41532	-9.438203	-14.855107	-7.965721	-0.645487	0.430127	-0.561848	-0.287514
41533	-13.820689	-7.711194	-5.335018	-0.653677	0.405855	-0.585988	-0.254178
41534	-9.824691	-6.036574	-3.006666	-0.662014	0.378299	-0.609161	-0.218060
41535	-8.048877	-5.811513	-5.606575	-0.664497	0.347277	-0.636815	-0.179747
41536	-7.403858	-0.362754	-5.654348	-0.663002	0.319048	-0.660928	-0.147685
41537	-5.880278	0.517812	-3.022842	-0.657641	0.295162	-0.681989	-0.123605
41538	-7.265459	-2.168766	-2.347242	-0.650669	0.269431	-0.702291	-0.104038
41539	-9.213068	-1.257510	-4.305997	-0.643860	0.243027	-0.720379	-0.086238
41540	-10.806438	-0.599789	-2.028515	-0.638080	0.219127	-0.734705	-0.071042
41541	-7.115233	-3.774863	0.064078	-0.633608	0.199381	-0.745289	-0.057728
41542	-7.338414	-6.118859	-0.388403	-0.628821	0.185561	-0.753602	-0.047279
41543	-8.216730	-6.858401	-1.456390	-0.626666	0.173287	-0.758956	-0.035325
41544	-7.395268	-4.070857	-1.345382	-0.625134	0.163843	-0.762744	-0.024175
41545	-8.659760	-4.025217	-1.911406	-0.623500	0.159363	-0.765240	-0.016099
41546	-8.753554	-3.824235	-4.374497	-0.620110	0.158456	-0.768275	-0.010409
41547	-8.053223	-2.370517	-4.765512	-0.615354	0.155821	-0.772675	-0.005618
41548	-10.374381	-2.324121	-4.545120	-0.609134	0.150888	-0.778577	-0.002319
41549	-14.306281	-3.220979	-3.836021	-0.603352	0.141761	-0.784768	0.003105
41550	-12.809041	-2.156371	-2.482982	-0.598869	0.130917	-0.789993	0.011316
41551	-9.502691	-0.784270	-1.684820	-0.594115	0.122264	-0.794822	0.018342
41552	-7.564651	-1.031918	-1.361393	-0.588651	0.116581	-0.799642	0.021710
41553	-7.399163	-0.895588	-1.334906	-0.583233	0.113032	-0.804106	0.021828
41554	-8.488955	-0.460839	-0.312820	-0.578439	0.110296	-0.807993	0.019756
41555	-9.967287	-0.493065	0.641588	-0.574658	0.108191	-0.811062	0.015560
41556	-12.102560	-1.596247	0.958173	-0.571111	0.106739	-0.813842	0.010014
41557	-12.255361	-1.867495	-0.138783	-0.567575	0.105437	-0.816535	0.003499
41558	-11.070526	-1.951310	-0.971781	-0.564987	0.102782	-0.818669	-0.002638
41559	-11.636514	-2.793361	-0.858471	-0.564371	0.097917	-0.819664	-0.006941
41560	-12.222605	-3.172963	-0.900296	-0.566367	0.091318	-0.819023	-0.009561
41561	-12.319608	-2.749460	-1.252595	-0.570084	0.083373	-0.817272	-0.010941
41562	-13.139439	-1.668921	-1.812865	-0.574957	0.074024	-0.814752	-0.011170
41563	-13.243622	0.543192	-1.834998	-0.580985	0.063840	-0.811340	-0.010432
41564	-12.308254	2.566230	-1.034246	-0.587583	0.054299	-0.807278	-0.010014
41565	-11.416705	3.227245	0.363654	-0.594502	0.045051	-0.802771	-0.009795
41566	-10.911727	2.843732	1.039972	-0.602330	0.035751	-0.797378	-0.010465
41567	-10.680595	1.830234	0.178417	-0.611481	0.026670	-0.790707	-0.012750
41568	-10.940106	0.607778	-1.844511	-0.621950	0.018509	-0.782669	-0.016268
41569	-10.311566	0.059284	-3.385292	-0.633096	0.010597	-0.773747	-0.019792
41570	-9.739049	-0.531608	-3.292951	-0.643821	0.001996	-0.764862	-0.021817
41571	-9.194091	-1.030816	-2.682056	-0.653926	-0.007602	-0.756212	-0.021601
41572	-8.995417	-1.434696	-2.844769	-0.663146	-0.018139	-0.748028	-0.019056
41573	-9.031837	-1.296033	-3.645685	-0.671434	-0.029707	-0.740336	-0.013991
41574	-9.522890	-0.352171	-3.636080	-0.679592	-0.040853	-0.732419	-0.006944
41575	-9.273077	-0.667138	-4.712342	-0.689434	-0.046522	-0.722849	-0.002198
41576	-8.162091	-3.868208	-2.496759	-0.696515	-0.053342	-0.715534	0.005630
41577	-8.260141	-4.031385	-1.319480	-0.698239	-0.062918	-0.712923	0.015644
41578	-7.508136	-2.793467	-4.112872	-0.699516	-0.074051	-0.710159	0.029473
41579	-8.048852	-2.215876	-5.483448	-0.699960	-0.085837	-0.707557	0.045302
41580	-8.778602	-0.978913	-5.564142	-0.699314	-0.099464	-0.705014	0.063420
41581	-8.875029	0.299545	-5.118113	-0.697738	-0.113487	-0.702593	0.081519
41582	-8.452286	-0.111885	-5.026896	-0.695711	-0.126784	-0.700175	0.098315
41583	-8.844074	-1.398307	-4.372562	-0.692231	-0.141912	-0.697935	0.116464
41584	-9.911908	-1.316706	-4.306870	-0.686663	-0.160848	-0.695355	0.138214
41585	-9.756793	0.846568	-4.778764	-0.679324	-0.182072	-0.692206	0.161926
41586	-9.545138	2.915862	-4.665686	-0.670578	-0.203469	-0.688903	0.185304
41587	-9.292948	4.172246	-2.465199	-0.662745	-0.223139	-0.684214	0.206953
41588	-8.833448	3.619841	-2.602424	-0.654982	-0.238782	-0.680899	0.224408
41589	-8.663023	1.207794	-3.650107	-0.646804	-0.251405	-0.679135	0.239198
41590	-7.980140	-1.043288	-4.522724	-0.637031	-0.264100	-0.677975	0.254546
41591	-7.474522	-1.792835	-6.512441	-0.625651	-0.277835	-0.676992	0.270279
41592	-7.646814	-1.157335	-7.589445	-0.612906	-0.293014	-0.676292	0.284811
41593	-8.271112	0.220908	-7.383515	-0.599310	-0.309525	-0.675030	0.298925
41594	-9.307298	1.168369	-6.193398	-0.584538	-0.326663	-0.673918	0.312156
41595	-9.551191	3.035997	-4.541520	-0.569552	-0.343127	-0.672136	0.325743
41596	-9.479461	4.238781	-4.207703	-0.555110	-0.356789	-0.671964	0.336182
41597	-10.207604	3.667269	-5.645368	-0.541674	-0.367899	-0.672726	0.344498
41598	-9.925317	4.593214	-4.970054	-0.530032	-0.377084	-0.673419	0.351257
41599	-10.229939	4.748080	-2.963019	-0.520902	-0.383465	-0.674938	0.355069
41600	-11.258892	3.704265	-2.364875	-0.515570	-0.385714	-0.677652	0.355245
41601	-11.787616	2.199229	-2.184261	-0.512701	-0.385265	-0.680807	0.353851
41602	-12.172249	0.374304	-1.729861	-0.511043	-0.383409	-0.683008	0.354023
41603	-11.182174	-2.087732	-1.371879	-0.510416	-0.379634	-0.685140	0.354875
41604	-10.224631	-3.951826	-2.016977	-0.510470	-0.374813	-0.687126	0.356080
41605	-9.868293	-2.875218	-2.641048	-0.509222	-0.373778	-0.686704	0.359750
41606	-10.548846	-0.679196	-2.216898	-0.508686	-0.376755	-0.680765	0.368583
41607	-10.774055	-0.298385	-0.267522	-0.507215	-0.381371	-0.674067	0.378051
41608	-11.119966	-1.766741	0.033064	-0.507287	-0.383947	-0.667944	0.386128
41609	-10.416223	-3.067196	0.625369	-0.507741	-0.385898	-0.661966	0.393806
41610	-10.635566	-2.922811	0.916065	-0.508100	-0.388390	-0.655189	0.402138
41611	-9.428984	-2.480426	0.586035	-0.509252	-0.389812	-0.648369	0.410277
41612	-8.467338	-3.174085	0.673187	-0.511080	-0.389505	-0.642834	0.416950
41613	-8.951949	-4.837916	-0.163545	-0.512099	-0.389194	-0.638379	0.422794
41614	-8.567198	-5.336373	-1.842091	-0.511152	-0.390521	-0.633735	0.429648
41615	-8.125360	-4.264311	-1.272901	-0.507563	-0.394002	-0.629211	0.437305
41616	-9.689848	-3.329027	-1.277327	-0.502502	-0.398562	-0.625052	0.444915
41617	-10.145218	-2.154621	-1.455858	-0.496828	-0.403530	-0.620945	0.452496
41618	-9.558789	-0.865830	-1.164934	-0.490878	-0.408649	-0.616982	0.459759
41619	-9.115750	-0.656766	-0.581090	-0.485682	-0.413242	-0.613647	0.465598
41620	-9.103637	-0.932121	-0.646200	-0.481087	-0.417499	-0.610800	0.470291
41621	-9.092684	-1.398027	-0.375274	-0.477094	-0.421004	-0.608803	0.473810
41622	-9.068753	-2.193774	-0.509947	-0.473121	-0.424077	-0.607568	0.476630
41623	-8.506896	-2.337146	-0.579048	-0.468788	-0.427293	-0.606973	0.478792
41624	-8.545639	-2.678981	-0.470784	-0.464039	-0.430962	-0.606740	0.480422
41625	-8.887169	-2.952407	-0.575330	-0.458560	-0.435546	-0.606349	0.482041
41626	-9.091598	-2.751156	-0.548777	-0.452780	-0.440730	-0.605559	0.483782
41627	-8.849044	-2.456980	-0.462478	-0.447025	-0.446123	-0.604826	0.485107
41628	-8.945000	-2.393159	-0.379658	-0.441006	-0.452066	-0.604100	0.486017
41629	-8.984190	-2.262895	-0.627818	-0.434653	-0.458593	-0.602926	0.487082
41630	-8.766448	-2.184059	-0.951994	-0.428155	-0.465348	-0.601832	0.487784
41631	-8.686289	-2.233168	-1.071489	-0.422327	-0.471729	-0.600956	0.487816
41632	-8.624047	-2.850129	-1.142570	-0.416445	-0.478503	-0.600050	0.487389
41633	-8.729938	-3.232014	-1.347177	-0.410328	-0.486035	-0.598280	0.487301
41634	-9.010588	-3.174709	-2.267976	-0.404246	-0.493967	-0.595766	0.487487
41635	-9.219107	-3.202327	-2.877502	-0.397808	-0.502365	-0.592109	0.488656
41636	-9.119979	-3.243737	-2.570632	-0.390943	-0.511162	-0.587485	0.490650
41637	-8.596133	-3.035365	-2.333801	-0.383703	-0.520384	-0.582499	0.492613
41638	-8.146394	-2.188505	-3.027979	-0.376525	-0.529638	-0.577644	0.494005
41639	-8.424641	-1.446795	-3.400828	-0.369922	-0.538648	-0.572727	0.494975
41640	-8.975975	-0.910264	-3.042265	-0.364005	-0.547395	-0.567726	0.495525
41641	-9.488640	-0.906093	-2.825193	-0.359025	-0.555659	-0.562882	0.495487
41642	-10.106502	-1.376888	-2.632042	-0.355486	-0.563034	-0.558176	0.495036
41643	-9.996935	-1.556944	-2.318341	-0.353376	-0.569313	-0.553464	0.494657
41644	-9.552107	-1.460133	-2.132033	-0.352261	-0.574641	-0.549187	0.494059
41645	-9.042175	-1.193558	-2.008333	-0.352002	-0.579322	-0.545309	0.493070
41646	-8.547364	-1.400495	-1.882461	-0.352200	-0.583821	-0.541786	0.491504
41647	-8.578335	-2.377423	-2.302011	-0.353066	-0.588240	-0.538413	0.489315
41648	-8.879472	-3.443762	-2.647973	-0.354644	-0.592611	-0.535100	0.486526
41649	-9.463102	-3.657743	-2.296288	-0.356655	-0.597022	-0.531120	0.484018
41650	-9.679240	-2.863388	-1.521103	-0.358999	-0.601401	-0.526309	0.482116
41651	-9.788737	-1.856062	-0.672676	-0.361738	-0.605623	-0.520852	0.480707
41652	-9.565586	-0.842573	-0.301913	-0.365431	-0.609227	-0.515324	0.479316
41653	-9.388618	0.004674	-0.893106	-0.370416	-0.611909	-0.510499	0.477231
41654	-9.373135	0.859407	-1.754154	-0.376889	-0.613388	-0.506557	0.474459
41655	-9.779932	1.400976	-1.925851	-0.384405	-0.614051	-0.503100	0.471238
41656	-10.208340	1.437651	-1.245666	-0.393158	-0.613651	-0.499895	0.467937
41657	-11.121898	1.252950	-0.639667	-0.403555	-0.612082	-0.497161	0.464037
41658	-12.047822	0.555479	-0.256739	-0.415791	-0.609414	-0.493962	0.460145
41659	-12.011008	-0.361337	-0.633190	-0.430391	-0.605170	-0.489410	0.457177
41660	-12.047362	-0.524118	-1.145747	-0.445732	-0.600364	-0.482708	0.455938
41661	-12.780053	0.146883	-0.829257	-0.457675	-0.597168	-0.473456	0.458000
41662	-13.282024	2.645680	0.757253	-0.466311	-0.595637	-0.462326	0.462629
41663	-12.043900	3.667273	1.971517	-0.474540	-0.594030	-0.450725	0.467747
41664	-10.379599	2.454973	1.339157	-0.479937	-0.594245	-0.438442	0.473606
41665	-9.785171	1.782499	-0.208609	-0.482199	-0.596392	-0.424379	0.481355
41666	-10.212829	0.684979	-0.876768	-0.482737	-0.599344	-0.409519	0.489944
41667	-10.624643	-0.716816	-0.839262	-0.481456	-0.602526	-0.394897	0.499218
41668	-9.076425	-1.177392	-0.485566	-0.477113	-0.605886	-0.380690	0.510236
41669	-7.835243	-1.344993	0.158220	-0.469153	-0.609945	-0.367655	0.522200
41670	-7.757762	-1.945067	0.745085	-0.458098	-0.614711	-0.355377	0.534774
41671	-7.732354	-2.397942	0.753959	-0.444127	-0.620019	-0.343191	0.548222
41672	-7.778565	-2.542621	0.215859	-0.427551	-0.625752	-0.331612	0.561843
41673	-8.611584	-2.523585	-0.532506	-0.410006	-0.630915	-0.321130	0.575080
41674	-9.699441	-2.173912	-1.183867	-0.393060	-0.634462	-0.310949	0.588449
41675	-9.759548	-1.580649	-2.038760	-0.376528	-0.636708	-0.300088	0.602310
41676	-9.557285	-1.056638	-2.421477	-0.358971	-0.638902	-0.288131	0.616380
41677	-9.912541	-0.719861	-2.300410	-0.339852	-0.641320	-0.274919	0.630578
41678	-10.315342	-0.175801	-1.868246	-0.319474	-0.643667	-0.260472	0.644812
41679	-10.898622	0.427411	-1.197268	-0.298206	-0.646138	-0.245569	0.658237
41680	-11.484710	0.764815	-0.705260	-0.276450	-0.648450	-0.230822	0.670678
41681	-11.691388	0.844830	-0.652558	-0.254090	-0.649945	-0.215559	0.683040
41682	-11.516743	1.238184	-0.867666	-0.231542	-0.650140	-0.199006	0.695775
41683	-11.469767	1.919270	-1.441229	-0.210157	-0.648959	-0.181957	0.708222
41684	-11.568334	2.208318	-1.769108	-0.189958	-0.647329	-0.164544	0.719587
41685	-10.939947	2.439558	-1.347577	-0.169922	-0.645681	-0.145825	0.730039
41686	-10.265665	3.122316	-1.206838	-0.152429	-0.643265	-0.128127	0.739296
41687	-9.792247	3.499112	-1.484564	-0.137596	-0.639270	-0.112022	0.748232
41688	-9.286940	3.907608	-0.491667	-0.125004	-0.634433	-0.097364	0.756564
41689	-8.873812	4.193811	0.178913	-0.115092	-0.629191	-0.085475	0.763915
41690	-8.562473	3.919615	0.823694	-0.107554	-0.624661	-0.076642	0.769647
41691	-8.489080	2.742878	0.876958	-0.102223	-0.620631	-0.070344	0.774222
41692	-8.546664	1.798722	0.173605	-0.098585	-0.616850	-0.065484	0.778132
41693	-8.402186	1.407322	-0.444082	-0.096608	-0.612122	-0.062453	0.782351
41694	-7.916157	1.421558	-0.120515	-0.095380	-0.607565	-0.060893	0.786167
41695	-7.632223	1.459186	0.896208	-0.094528	-0.604184	-0.060743	0.788883
41696	-7.722473	1.384525	1.534562	-0.093624	-0.602209	-0.061274	0.790458
41697	-7.706661	1.449007	1.486777	-0.092848	-0.601066	-0.062219	0.791345
41698	-7.490952	1.361291	1.306194	-0.092511	-0.600298	-0.063455	0.791870
41699	-7.452168	0.823821	1.328677	-0.092198	-0.599608	-0.064513	0.792343
41700	-7.569863	0.337315	1.900539	-0.091217	-0.599074	-0.065116	0.792812
41701	-7.515236	0.259480	2.385063	-0.089713	-0.599008	-0.066379	0.792928
41702	-7.217743	0.624391	2.571510	-0.088027	-0.599964	-0.069283	0.792145
41703	-7.244335	0.981938	2.949865	-0.085952	-0.603012	-0.073566	0.789669
41704	-8.033792	1.011693	3.285190	-0.083511	-0.607805	-0.078495	0.785772
41705	-8.768174	1.134375	3.398435	-0.081314	-0.612816	-0.083239	0.781611
41706	-9.175080	1.088430	3.201274	-0.078917	-0.617587	-0.086027	0.777791
41707	-10.175017	0.757635	2.478705	-0.075179	-0.622735	-0.085438	0.774112
41708	-11.159043	0.223767	1.925424	-0.070280	-0.628461	-0.082380	0.770267
41709	-11.415067	0.064327	2.068677	-0.064597	-0.634698	-0.079533	0.765937
41710	-11.561848	0.413180	2.801177	-0.058226	-0.641161	-0.077886	0.761220
41711	-12.893651	0.976521	1.594912	-0.052275	-0.649118	-0.077855	0.754885
41712	-14.818710	1.531369	0.950088	-0.049929	-0.656878	-0.082040	0.747856
41713	-14.636889	0.867333	1.191857	-0.048181	-0.662075	-0.084877	0.743055
41714	-12.736727	0.589619	-0.027499	-0.044116	-0.667850	-0.084087	0.738214
41715	-9.950264	0.217959	-0.480559	-0.038844	-0.674468	-0.082904	0.732606
41716	-7.507541	-0.779779	-1.174602	-0.034727	-0.681433	-0.084625	0.726141
41717	-7.963328	-1.524106	-1.012144	-0.034791	-0.687365	-0.092159	0.719601
41718	-9.460372	-2.117023	0.076461	-0.037686	-0.691432	-0.102017	0.714208
41719	-9.872247	-2.398435	1.857758	-0.039226	-0.694609	-0.109818	0.709873
41720	-9.674466	-1.711506	1.799462	-0.039352	-0.697801	-0.116244	0.705700
41721	-9.766462	-1.628527	-0.270148	-0.040420	-0.701263	-0.123433	0.700971
41722	-9.409752	-1.945101	-2.387745	-0.041392	-0.704462	-0.129870	0.696530
41723	-8.990142	-2.169019	-2.814496	-0.041055	-0.707553	-0.133897	0.692644
41724	-8.747420	-2.368612	-2.045081	-0.039672	-0.710731	-0.135761	0.689098
41725	-8.669520	-2.967418	-1.457722	-0.037905	-0.714067	-0.136799	0.685534
41726	-8.809128	-3.418851	-2.050716	-0.035911	-0.717449	-0.137750	0.681911
41727	-9.259537	-2.855198	-2.642361	-0.033357	-0.720761	-0.138483	0.678391
41728	-9.439438	-1.792049	-2.370300	-0.030833	-0.723619	-0.139284	0.675296
41729	-9.577999	-1.026897	-1.648751	-0.028633	-0.726138	-0.140572	0.672416
41730	-9.741311	-0.537326	-1.045414	-0.027357	-0.728268	-0.142785	0.669694
41731	-9.852911	-0.622965	-0.954612	-0.027373	-0.729998	-0.146230	0.667061
41732	-9.949918	-1.023494	-1.049371	-0.028681	-0.731336	-0.150938	0.664487
41733	-9.899491	-1.516845	-0.982415	-0.030750	-0.732293	-0.156392	0.662075
41734	-9.465878	-1.902660	-0.884327	-0.033048	-0.732954	-0.162025	0.659874
41735	-8.962170	-2.059094	-1.085648	-0.035321	-0.733515	-0.167418	0.657784
41736	-8.695692	-2.276835	-1.865122	-0.038038	-0.734212	-0.172798	0.655459
41737	-8.700911	-2.062559	-2.195803	-0.040555	-0.735155	-0.177639	0.652953
41738	-8.974554	-2.236020	-2.133033	-0.042768	-0.736433	-0.182170	0.650117
41739	-9.197243	-2.207019	-2.280326	-0.044280	-0.737693	-0.186042	0.647485
41740	-9.452112	-1.814811	-2.062815	-0.045892	-0.738805	-0.189612	0.645065
41741	-9.601488	-1.436779	-1.907162	-0.047448	-0.739793	-0.193008	0.642809
41742	-9.560967	-1.364337	-1.820178	-0.048763	-0.740567	-0.196138	0.640869
41743	-9.303921	-1.454784	-1.953027	-0.050103	-0.741190	-0.199055	0.639143
