// Start Time: Unknown
// Update Rate: 60.0Hz
// Filter Profile: human (46.1)
// Option Flags: AHS Disabled ICC Disabled 
// Firmware Version: 4.3.5
PacketCounter	Acc_X	Acc_Y	Acc_Z	Quat_q0	Quat_q1	Quat_q2	Quat_q3
39183	-0.959986	1.699783	9.714424	-0.798580	-0.038745	-0.089628	-0.593916
39184	-0.882753	1.741607	9.629381	-0.798633	-0.038864	-0.089687	-0.593827
39185	-1.013304	1.836710	9.599748	-0.798627	-0.039073	-0.089966	-0.593779
39186	-1.123884	1.727897	9.731508	-0.798619	-0.039334	-0.090197	-0.593738
39187	-0.952418	1.659505	9.664020	-0.798664	-0.039588	-0.090357	-0.593637
39188	-0.973150	1.714868	9.697471	-0.798718	-0.039786	-0.090630	-0.593508
39189	-1.049249	1.749605	9.778899	-0.798781	-0.039822	-0.090760	-0.593402
39190	-1.086018	1.760660	9.699807	-0.798807	-0.039740	-0.090783	-0.593369
39191	-1.034154	1.690215	9.712236	-0.798862	-0.039706	-0.090879	-0.593283
39192	-1.004836	1.756578	9.631709	-0.798966	-0.039653	-0.090960	-0.593134
39193	-1.015254	1.582184	9.771245	-0.799028	-0.039646	-0.091225	-0.593010
39194	-0.998863	1.798613	9.743557	-0.799101	-0.039777	-0.091471	-0.592865
39195	-1.007359	1.864834	9.660575	-0.799161	-0.039725	-0.091801	-0.592736
39196	-1.154638	1.821071	9.666890	-0.799216	-0.039588	-0.092065	-0.592630
39197	-1.092165	1.782575	9.693132	-0.799248	-0.039578	-0.092365	-0.592541
39198	-1.043212	1.737566	9.780748	-0.799256	-0.039661	-0.092746	-0.592465
39199	-0.989356	1.722878	9.835093	-0.799254	-0.039807	-0.093118	-0.592400
39200	-1.068694	1.870413	9.809341	-0.799255	-0.039955	-0.093482	-0.592331
39201	-1.101802	1.976795	9.802774	-0.799300	-0.039931	-0.093599	-0.592254
39202	-1.147671	1.897641	9.736568	-0.799325	-0.039803	-0.093587	-0.592230
39203	-1.064812	1.857792	9.791945	-0.799321	-0.039878	-0.093775	-0.592201
39204	-1.099273	1.897094	9.733289	-0.799261	-0.040019	-0.094035	-0.592231
39205	-1.172804	1.913587	9.805021	-0.799174	-0.040126	-0.094148	-0.592323
39206	-0.976744	1.850872	9.725888	-0.799087	-0.040141	-0.094162	-0.592437
39207	-1.032937	1.895836	9.758526	-0.799020	-0.040005	-0.094144	-0.592540
39208	-1.105263	1.863259	9.800981	-0.798930	-0.039963	-0.094061	-0.592678
39209	-1.050377	1.860287	9.677645	-0.798828	-0.040057	-0.094030	-0.592813
39210	-1.016789	1.916190	9.620167	-0.798703	-0.040102	-0.094025	-0.592979
39211	-0.989250	1.931659	9.739913	-0.798552	-0.040176	-0.094182	-0.593153
39212	-1.104945	1.888879	9.700714	-0.798412	-0.040015	-0.094079	-0.593369
39213	-1.069945	1.759289	9.732801	-0.798320	-0.040050	-0.094066	-0.593492
39214	-0.975039	1.864169	9.540566	-0.798267	-0.039967	-0.093957	-0.593586
39215	-1.038641	1.866135	9.683549	-0.798082	-0.039932	-0.094133	-0.593810
39216	-1.047229	1.794400	9.685679	-0.797911	-0.039814	-0.094241	-0.594029
39217	-1.026732	1.698881	9.600981	-0.797724	-0.039622	-0.094517	-0.594250
39218	-1.125901	1.594702	9.738278	-0.797586	-0.039422	-0.094622	-0.594432
39219	-0.996538	1.663840	9.705266	-0.797503	-0.039622	-0.094924	-0.594482
39220	-0.938928	1.686699	9.637226	-0.797462	-0.039738	-0.095296	-0.594469
39221	-1.027939	1.789992	9.654127	-0.797392	-0.039937	-0.095824	-0.594465
39222	-1.080534	1.923591	9.572187	-0.797280	-0.039963	-0.096411	-0.594519
39223	-1.321282	1.910013	9.529307	-0.797035	-0.040012	-0.097138	-0.594726
39224	-1.169449	1.610116	9.839757	-0.796799	-0.039867	-0.097697	-0.594959
39225	-0.965047	1.592848	9.819740	-0.796704	-0.039949	-0.098178	-0.595003
39226	-1.028476	1.637596	9.750511	-0.796629	-0.040022	-0.098889	-0.594980
39227	-1.016120	1.825741	9.667245	-0.796565	-0.039995	-0.099463	-0.594972
39228	-1.031669	1.679196	9.362910	-0.796341	-0.040111	-0.100521	-0.595086
39229	-1.151684	1.508252	9.265256	-0.795907	-0.040429	-0.102068	-0.595381
39230	-1.104314	1.190483	9.421424	-0.795326	-0.041091	-0.104340	-0.595719
39231	-1.330044	1.425136	9.577250	-0.794754	-0.041929	-0.106689	-0.596008
39232	-1.180578	1.579985	9.738486	-0.794345	-0.042788	-0.108939	-0.596085
39233	-1.192662	2.055113	9.619581	-0.794173	-0.043017	-0.110756	-0.595963
39234	-1.195649	2.188532	9.612440	-0.794073	-0.042468	-0.112149	-0.595875
39235	-1.164831	1.881094	9.278885	-0.793854	-0.041603	-0.113527	-0.595968
39236	-1.108567	1.536801	8.971713	-0.793366	-0.041017	-0.116112	-0.596159
39237	-1.571830	1.821879	9.058282	-0.792616	-0.040947	-0.119963	-0.596400
39238	-1.439193	2.302518	9.280403	-0.791937	-0.040461	-0.123396	-0.596634
39239	-1.314782	2.060024	9.256948	-0.791481	-0.039444	-0.126595	-0.596636
39240	-1.137803	1.855252	9.075788	-0.791256	-0.038259	-0.129800	-0.596325
39241	-1.425844	1.920893	8.937324	-0.790960	-0.036932	-0.133811	-0.595914
39242	-1.912207	2.204798	9.116264	-0.790632	-0.035356	-0.137601	-0.595581
39243	-1.766746	2.368453	9.516383	-0.790513	-0.033468	-0.141195	-0.595006
39244	-1.419218	2.212531	9.374955	-0.790517	-0.031349	-0.144636	-0.594290
39245	-1.813051	2.394753	9.305046	-0.790574	-0.029211	-0.148129	-0.593462
39246	-2.246466	2.507288	9.717457	-0.790691	-0.026715	-0.151419	-0.592594
39247	-2.439233	2.682872	10.160315	-0.791019	-0.024175	-0.153895	-0.591626
39248	-2.141565	2.600216	10.239511	-0.791519	-0.021637	-0.155697	-0.590583
39249	-2.408960	2.595731	10.392501	-0.792096	-0.019511	-0.156981	-0.589543
39250	-2.555297	2.565915	10.617548	-0.792617	-0.017624	-0.157386	-0.588793
39251	-2.419648	2.202805	10.230607	-0.792821	-0.016687	-0.157890	-0.588411
39252	-2.485166	2.161985	9.970405	-0.792816	-0.016489	-0.158612	-0.588229
39253	-2.442088	2.273497	9.901323	-0.792652	-0.017456	-0.159845	-0.588089
39254	-2.243607	2.540748	9.517859	-0.792273	-0.018885	-0.161402	-0.588129
39255	-2.074975	2.370279	9.067693	-0.791679	-0.020598	-0.163774	-0.588216
39256	-2.652456	2.597828	8.916659	-0.790914	-0.022413	-0.166656	-0.588369
39257	-2.376123	2.530427	9.178775	-0.790230	-0.022959	-0.168535	-0.588732
39258	-2.004248	2.042345	8.862957	-0.789584	-0.023339	-0.170518	-0.589012
39259	-1.849234	1.847159	8.349761	-0.788939	-0.023119	-0.172872	-0.589200
39260	-1.934645	1.583031	8.264763	-0.788329	-0.022567	-0.175911	-0.589137
39261	-1.948646	1.663065	8.071214	-0.787774	-0.021820	-0.180175	-0.588619
39262	-1.992543	2.158685	7.951321	-0.787242	-0.020861	-0.186128	-0.587513
39263	-2.779375	2.487915	8.070473	-0.786311	-0.018313	-0.192253	-0.586872
39264	-2.983387	2.565387	7.531630	-0.785803	-0.014335	-0.196825	-0.586146
39265	-2.304961	2.188231	7.414672	-0.785510	-0.009057	-0.202272	-0.584789
39266	-2.390324	2.089841	7.655302	-0.785477	-0.003408	-0.208504	-0.582701
39267	-2.413400	2.268320	8.061575	-0.785502	0.002693	-0.215772	-0.580018
39268	-3.801887	1.903313	7.589088	-0.784844	0.009321	-0.223219	-0.578019
39269	-3.555515	2.284762	7.269215	-0.784545	0.016171	-0.230748	-0.575312
39270	-3.702830	2.498452	7.893052	-0.784239	0.023541	-0.240121	-0.571626
39271	-3.470640	2.660032	8.272571	-0.784105	0.031231	-0.249360	-0.567472
39272	-3.284832	2.140895	7.788093	-0.783897	0.039334	-0.259349	-0.562758
39273	-4.607052	1.337563	7.026893	-0.783052	0.047691	-0.271064	-0.557745
39274	-6.576887	1.672363	6.507495	-0.782033	0.054890	-0.282074	-0.553033
39275	-4.855488	3.519921	7.342180	-0.781182	0.062993	-0.293858	-0.547207
39276	-4.423489	2.687034	7.859754	-0.779458	0.072928	-0.305646	-0.541948
39277	-4.285639	2.033843	7.339814	-0.777311	0.081781	-0.318281	-0.536467
39278	-5.775276	1.457551	6.341010	-0.774316	0.090241	-0.333192	-0.530353
39279	-8.520746	0.593336	5.529517	-0.770831	0.098052	-0.347358	-0.524927
39280	-6.736432	2.708372	6.064818	-0.768801	0.103054	-0.362655	-0.516533
39281	-5.980957	2.698475	7.365266	-0.764869	0.109943	-0.380576	-0.507986
39282	-6.252641	2.268504	6.542389	-0.760597	0.115871	-0.397885	-0.499753
39283	-6.598405	2.307886	6.225430	-0.755516	0.121150	-0.416547	-0.490924
39284	-8.158183	2.727537	5.540647	-0.749309	0.128394	-0.434966	-0.482550
39285	-9.015239	1.469442	4.085670	-0.743058	0.135999	-0.450834	-0.475519
39286	-7.733151	2.915756	4.756804	-0.738072	0.141510	-0.466995	-0.465984
39287	-7.945135	1.788492	5.291462	-0.731289	0.149678	-0.483977	-0.456705
39288	-9.347283	1.582336	5.482630	-0.725273	0.155037	-0.501838	-0.445085
39289	-10.739645	3.218881	6.241028	-0.719128	0.160701	-0.518244	-0.434112
39290	-11.421294	2.787833	5.197540	-0.711975	0.168931	-0.531466	-0.426729
39291	-10.142629	3.326606	4.060635	-0.705419	0.176464	-0.543473	-0.419383
39292	-9.183559	2.680910	3.918314	-0.697232	0.185043	-0.555970	-0.412946
39293	-10.630090	1.469228	4.131954	-0.689282	0.191620	-0.570132	-0.403883
39294	-11.547861	3.008848	5.846582	-0.683692	0.195347	-0.583704	-0.392040
39295	-11.398702	3.238797	6.033132	-0.678363	0.202093	-0.592782	-0.384175
39296	-10.822158	2.883405	4.077946	-0.673107	0.209771	-0.598891	-0.379807
39297	-10.155629	2.661416	2.681257	-0.667757	0.217860	-0.603838	-0.376851
39298	-10.408779	1.889222	2.683616	-0.662246	0.223979	-0.610345	-0.372481
39299	-10.515188	2.075323	3.881094	-0.658901	0.226576	-0.617049	-0.365737
39300	-10.282712	2.908703	5.036754	-0.656919	0.229140	-0.621577	-0.359991
39301	-10.116894	2.480176	4.513296	-0.655361	0.232483	-0.623919	-0.356622
39302	-10.432675	1.435580	3.612120	-0.654786	0.234633	-0.625093	-0.354205
39303	-10.714723	0.405906	3.431844	-0.655999	0.234971	-0.625300	-0.351360
39304	-10.358097	-0.473312	2.596383	-0.659027	0.232756	-0.625799	-0.346242
39305	-10.492221	-0.542981	2.076398	-0.663071	0.228345	-0.627388	-0.338496
39306	-10.427868	0.163185	2.073677	-0.667949	0.223578	-0.628407	-0.330094
39307	-10.246894	0.344118	2.139956	-0.673123	0.218652	-0.628934	-0.321774
39308	-10.212744	0.956344	2.039975	-0.678117	0.213772	-0.629123	-0.314107
39309	-10.297823	0.089562	1.375644	-0.683200	0.209127	-0.628609	-0.307172
39310	-10.158340	-0.420048	1.317443	-0.688549	0.204496	-0.627723	-0.300077
39311	-9.747379	-0.767994	1.440128	-0.693975	0.199820	-0.626738	-0.292696
39312	-9.404831	-0.847086	1.779798	-0.699339	0.195861	-0.625329	-0.285531
39313	-9.593406	-1.149841	1.690175	-0.704385	0.192350	-0.623774	-0.278836
39314	-9.727282	-1.831615	1.376438	-0.709754	0.187331	-0.622659	-0.271021
39315	-9.691057	-1.816090	1.505224	-0.715486	0.180608	-0.622041	-0.261774
39316	-9.790309	-1.616550	1.700946	-0.721444	0.173703	-0.621122	-0.252098
39317	-9.700695	-1.515710	1.644054	-0.727725	0.166542	-0.619779	-0.241979
39318	-9.835119	-1.022053	2.115348	-0.733952	0.160025	-0.617948	-0.232047
39319	-9.819354	-1.265940	1.579431	-0.740019	0.154622	-0.615406	-0.223024
39320	-9.895962	-1.108196	1.535700	-0.746036	0.148346	-0.613051	-0.213523
39321	-9.404075	-0.832876	1.836277	-0.751444	0.142289	-0.610836	-0.204856
39322	-9.218996	-0.728820	1.589291	-0.755798	0.136913	-0.609254	-0.197064
39323	-8.974784	-1.310186	1.323382	-0.759413	0.131738	-0.608284	-0.189547
39324	-8.909075	-1.505433	2.175920	-0.762692	0.127543	-0.607135	-0.182812
39325	-8.733646	-1.349966	2.059330	-0.765987	0.123638	-0.605675	-0.176452
39326	-8.465874	-1.144010	1.938978	-0.768978	0.118013	-0.604917	-0.169767
39327	-8.474354	-1.034234	2.367670	-0.771042	0.113051	-0.604772	-0.164207
39328	-8.996981	-0.893355	1.839987	-0.772484	0.108268	-0.605097	-0.159387
39329	-9.287174	-0.797301	1.554623	-0.774092	0.103676	-0.604976	-0.155038
39330	-9.388212	-0.359925	2.389376	-0.775642	0.098951	-0.604891	-0.150653
39331	-9.624377	-0.419814	2.238844	-0.777341	0.095249	-0.604129	-0.147301
39332	-9.518701	-0.368295	2.048083	-0.778830	0.092429	-0.603154	-0.145209
39333	-9.409962	-0.095608	1.721548	-0.779686	0.089490	-0.602862	-0.143661
39334	-9.477465	0.284556	2.167885	-0.779791	0.087566	-0.603210	-0.142814
39335	-9.228983	0.436619	1.945954	-0.780077	0.086004	-0.603165	-0.142392
39336	-8.697072	0.129469	1.429514	-0.780452	0.084133	-0.603021	-0.142059
39337	-8.920892	-0.117569	2.025757	-0.780154	0.081681	-0.603811	-0.141777
39338	-9.665578	-0.004916	2.840513	-0.779398	0.079997	-0.604875	-0.142356
39339	-9.665663	0.095954	2.763186	-0.778358	0.079255	-0.605900	-0.144093
39340	-9.566523	-0.212177	2.265432	-0.776939	0.079191	-0.607181	-0.146376
39341	-9.624109	-0.462174	2.086162	-0.775333	0.078792	-0.608795	-0.148388
39342	-9.721173	0.166063	2.345359	-0.773994	0.077368	-0.610407	-0.149499
39343	-9.865033	0.781738	2.720492	-0.772654	0.075959	-0.611957	-0.150812
39344	-10.319668	0.602424	2.969352	-0.771503	0.075385	-0.612907	-0.153117
39345	-10.681615	0.237448	3.105650	-0.770250	0.075298	-0.613688	-0.156308
39346	-11.073100	0.811909	3.027436	-0.768687	0.076009	-0.614432	-0.160672
39347	-11.380872	1.259856	1.908125	-0.766978	0.075845	-0.615369	-0.165267
39348	-11.813786	1.280062	1.352451	-0.765104	0.075158	-0.616515	-0.169931
39349	-11.918689	1.934299	1.235598	-0.763072	0.073258	-0.618100	-0.174089
39350	-12.168853	3.032954	0.899795	-0.760743	0.070394	-0.620166	-0.178073
39351	-12.136103	3.981165	0.897979	-0.758338	0.068527	-0.621937	-0.182815
39352	-11.537802	4.673985	0.137196	-0.755436	0.069262	-0.623433	-0.189341
39353	-10.725183	4.506837	-0.405586	-0.751429	0.071243	-0.625538	-0.197436
39354	-10.125714	4.323299	0.360618	-0.746547	0.074502	-0.627931	-0.206930
39355	-9.343012	4.851976	0.614728	-0.741288	0.078710	-0.629857	-0.218122
39356	-8.589580	5.223229	0.083494	-0.735117	0.083171	-0.631833	-0.231241
39357	-8.893433	5.055380	0.060478	-0.727433	0.086395	-0.634928	-0.245445
39358	-9.584168	4.610287	0.122142	-0.718914	0.088347	-0.638447	-0.260275
39359	-9.897098	4.417895	0.300154	-0.710297	0.090343	-0.641190	-0.276028
39360	-9.060069	4.958292	0.962142	-0.701512	0.093737	-0.642719	-0.293270
39361	-8.818313	5.090174	0.951373	-0.692043	0.097615	-0.643737	-0.311688
39362	-9.097660	4.608145	0.627269	-0.681750	0.099943	-0.645178	-0.330113
39363	-9.763819	3.680512	0.406372	-0.671169	0.101006	-0.646295	-0.348759
39364	-10.017399	3.494309	0.575472	-0.660741	0.101958	-0.646603	-0.367328
39365	-9.158947	2.995968	0.871527	-0.650303	0.103739	-0.646265	-0.385598
39366	-8.736351	3.795284	1.746081	-0.639022	0.106140	-0.645871	-0.404024
39367	-8.619512	4.018204	1.461168	-0.626943	0.108667	-0.645109	-0.423045
39368	-8.721722	4.000785	1.180931	-0.614291	0.109435	-0.644971	-0.441229
39369	-9.335274	3.161465	1.296359	-0.601422	0.109299	-0.644697	-0.459032
39370	-9.091790	3.158983	1.642292	-0.588781	0.108786	-0.644143	-0.476006
39371	-8.651489	3.327616	2.270193	-0.576146	0.108886	-0.643400	-0.492174
39372	-8.215068	3.182286	2.411418	-0.563519	0.109637	-0.642252	-0.507876
39373	-7.873406	2.830233	2.082430	-0.551454	0.109027	-0.641297	-0.522254
39374	-7.811431	3.123641	2.233462	-0.539665	0.107046	-0.641815	-0.534207
39375	-8.250450	3.776184	2.548895	-0.528310	0.105027	-0.642501	-0.545023
39376	-8.051621	3.769076	2.735535	-0.517542	0.103712	-0.642036	-0.556044
39377	-7.563624	3.950276	2.629782	-0.506973	0.102738	-0.641660	-0.566300
39378	-7.184083	3.520253	2.746066	-0.496437	0.102337	-0.641249	-0.576087
39379	-6.934047	3.544665	2.670489	-0.486613	0.101169	-0.641614	-0.584212
39380	-7.256258	4.500511	2.932906	-0.477337	0.100284	-0.642124	-0.591413
39381	-7.461835	4.222293	2.921723	-0.468812	0.099684	-0.641897	-0.598537
39382	-7.482745	4.390122	2.942526	-0.460894	0.099400	-0.641712	-0.604898
39383	-7.476758	4.552607	2.946630	-0.453322	0.099709	-0.641335	-0.610938
39384	-7.016923	4.397633	3.060060	-0.445935	0.100171	-0.641351	-0.616260
39385	-6.983860	4.457936	3.074043	-0.438976	0.100289	-0.641951	-0.620597
39386	-6.983852	4.488393	3.172277	-0.432643	0.099931	-0.642629	-0.624389
39387	-6.984308	4.382017	3.170740	-0.426818	0.099173	-0.642872	-0.628257
39388	-6.976790	3.746297	2.891344	-0.421370	0.098004	-0.643028	-0.631947
39389	-7.032011	4.189232	2.854824	-0.416337	0.096092	-0.644526	-0.634047
39390	-7.286400	4.812168	3.221068	-0.411540	0.094214	-0.646460	-0.635490
39391	-7.296151	5.171044	3.456555	-0.407399	0.092156	-0.648448	-0.636435
39392	-7.390236	5.689649	3.637482	-0.403956	0.089834	-0.650557	-0.636808
39393	-7.326232	5.884824	3.494156	-0.401370	0.086918	-0.652539	-0.636821
39394	-8.024490	6.219701	3.355883	-0.399680	0.083771	-0.654187	-0.636615
39395	-7.905262	5.839933	2.802847	-0.399301	0.080264	-0.655379	-0.636077
39396	-7.321033	5.869672	2.307641	-0.399468	0.076144	-0.657801	-0.633976
39397	-6.837181	6.486877	2.164509	-0.400109	0.071559	-0.660857	-0.630920
39398	-6.524325	6.988277	1.908154	-0.401342	0.066466	-0.664257	-0.627113
39399	-6.157876	7.640275	1.521752	-0.403419	0.061459	-0.667252	-0.623097
39400	-6.196555	7.942781	1.136533	-0.406268	0.057529	-0.669846	-0.618824
39401	-6.346948	7.916544	0.868404	-0.410268	0.055532	-0.671528	-0.614529
39402	-6.909659	7.477396	0.814307	-0.415303	0.055809	-0.672602	-0.609931
39403	-7.241867	7.106391	0.749425	-0.421640	0.057805	-0.673161	-0.604759
39404	-7.125644	7.133279	0.880765	-0.429123	0.061436	-0.673381	-0.598863
39405	-6.980297	6.719535	0.895620	-0.437875	0.066259	-0.673735	-0.591572
39406	-6.960792	6.468672	1.108502	-0.448484	0.072473	-0.674594	-0.581836
39407	-7.924304	5.953296	1.001081	-0.461261	0.080317	-0.675893	-0.569172
39408	-9.863856	5.968317	0.314425	-0.475668	0.089371	-0.675506	-0.556277
39409	-9.437561	5.623914	-0.514509	-0.491140	0.097963	-0.673799	-0.543304
39410	-8.626963	5.036608	-0.356918	-0.506575	0.105663	-0.673517	-0.527818
39411	-8.735966	3.920175	0.145019	-0.522196	0.112414	-0.674625	-0.509466
39412	-9.675718	3.489309	0.409600	-0.539036	0.117776	-0.676228	-0.488144
39413	-10.823935	3.643046	0.227861	-0.557635	0.121850	-0.676831	-0.464861
39414	-11.759743	3.783871	-0.135585	-0.577566	0.124494	-0.675302	-0.441458
39415	-11.865794	4.173942	-0.620343	-0.597469	0.125193	-0.672693	-0.418140
39416	-11.332342	4.454523	-0.721317	-0.617399	0.124628	-0.669308	-0.394098
39417	-11.046615	3.644963	-0.389918	-0.637004	0.123643	-0.665274	-0.369255
39418	-11.220956	2.754897	-0.334369	-0.656164	0.121323	-0.660789	-0.343639
39419	-11.414091	2.725885	-0.071682	-0.674865	0.117481	-0.655175	-0.318592
39420	-11.257020	2.665763	-0.281700	-0.692810	0.111703	-0.648469	-0.294998
39421	-10.702755	3.435632	0.392148	-0.709525	0.105261	-0.640791	-0.273643
39422	-10.025518	2.563587	0.564376	-0.724897	0.099583	-0.632133	-0.254980
39423	-9.683713	2.467294	0.245948	-0.738581	0.093857	-0.623791	-0.237853
39424	-9.709071	1.266169	0.010612	-0.751296	0.087292	-0.615301	-0.222123
39425	-9.463240	0.723190	0.319576	-0.762976	0.080196	-0.607186	-0.206785
39426	-9.197197	1.273073	0.463906	-0.773850	0.072932	-0.598913	-0.192717
39427	-8.928107	1.658492	0.449823	-0.783611	0.064822	-0.591152	-0.179698
39428	-8.912337	1.784882	0.776168	-0.792497	0.057244	-0.583482	-0.167987
39429	-8.896561	1.350325	0.943832	-0.800590	0.051466	-0.575705	-0.158024
39430	-8.831877	0.816360	1.019359	-0.807784	0.047343	-0.568200	-0.149641
39431	-8.741924	0.243856	0.971532	-0.813920	0.043894	-0.561628	-0.142060
39432	-8.372770	0.169043	1.235209	-0.819101	0.039912	-0.556244	-0.134436
39433	-7.561391	0.922998	2.204419	-0.823286	0.036239	-0.551842	-0.127893
39434	-7.092733	1.192442	2.447124	-0.826584	0.033190	-0.548146	-0.123258
39435	-7.235073	0.790091	2.331846	-0.829020	0.030787	-0.545226	-0.120444
39436	-7.882072	0.210729	2.050269	-0.831205	0.028193	-0.542577	-0.117960
39437	-7.865402	0.225686	2.260232	-0.833275	0.025387	-0.540174	-0.114974
39438	-7.632608	0.357577	2.550300	-0.835118	0.023216	-0.538004	-0.112208
39439	-7.380755	0.710366	2.773910	-0.836664	0.021470	-0.536174	-0.109771
39440	-7.047579	1.077064	3.076469	-0.837820	0.020079	-0.534736	-0.108226
39441	-6.745035	1.230920	3.979655	-0.838843	0.019400	-0.533089	-0.108547
39442	-6.769142	0.979914	3.990527	-0.839437	0.019448	-0.531767	-0.110412
39443	-7.747755	0.400755	3.770663	-0.839507	0.020200	-0.531062	-0.113105
39444	-8.187769	0.155305	4.291010	-0.839248	0.020754	-0.530786	-0.116185
39445	-8.295321	0.401632	5.024239	-0.838554	0.021226	-0.531012	-0.120011
39446	-8.467780	0.452896	5.167414	-0.837585	0.021560	-0.531491	-0.124512
39447	-9.041908	0.215815	5.386202	-0.836163	0.022331	-0.532446	-0.129745
39448	-9.813825	0.124152	5.864028	-0.833705	0.022720	-0.534963	-0.135039
39449	-10.381178	-0.212470	5.660355	-0.830199	0.023111	-0.538893	-0.140821
39450	-10.475750	-0.194950	4.373305	-0.826496	0.021822	-0.543189	-0.146198
39451	-11.232112	0.982784	3.360352	-0.822844	0.017658	-0.547832	-0.149983
39452	-12.153244	2.834292	3.012413	-0.819721	0.011547	-0.552225	-0.151567
39453	-11.922834	5.745794	3.028888	-0.817731	0.007407	-0.555001	-0.152431
39454	-10.575490	6.668858	2.117515	-0.816018	0.007960	-0.556545	-0.155912
39455	-10.756804	5.622718	0.775808	-0.812980	0.009151	-0.559159	-0.162237
39456	-11.771607	5.001616	0.450809	-0.808402	0.008355	-0.563512	-0.169915
39457	-12.400038	5.597641	0.664365	-0.802462	0.007012	-0.569316	-0.178561
39458	-12.618626	6.518991	1.161116	-0.795656	0.008119	-0.575673	-0.188326
39459	-12.649456	6.415004	0.976906	-0.788117	0.012376	-0.582243	-0.199276
39460	-12.916781	5.504178	0.138723	-0.779132	0.017949	-0.589941	-0.211189
39461	-13.305695	5.009922	0.031035	-0.768896	0.023370	-0.598639	-0.223349
39462	-12.961396	5.419987	1.072691	-0.758739	0.028840	-0.606966	-0.234681
39463	-11.082872	6.221214	1.565938	-0.748995	0.037071	-0.613985	-0.246282
39464	-9.973324	6.701570	1.489862	-0.738867	0.046712	-0.620151	-0.259437
39465	-10.009520	6.133036	1.356249	-0.727405	0.057127	-0.626019	-0.275170
39466	-10.129227	5.293831	1.650265	-0.715615	0.066918	-0.630827	-0.292362
39467	-9.760736	4.190523	1.936217	-0.704604	0.077071	-0.633186	-0.310916
39468	-8.892185	3.066826	1.509266	-0.694002	0.087220	-0.633616	-0.330584
39469	-8.319476	2.656258	1.562195	-0.683942	0.094253	-0.633647	-0.349044
39470	-7.832486	2.924632	1.795988	-0.673533	0.099092	-0.634130	-0.366624
39471	-7.609111	2.681800	1.513091	-0.662788	0.104877	-0.633430	-0.385330
39472	-7.003973	2.464258	0.946810	-0.652083	0.110666	-0.632092	-0.403733
39473	-6.854913	2.576444	1.323402	-0.641500	0.114015	-0.631891	-0.419752
39474	-7.178991	2.712841	1.665782	-0.630576	0.115322	-0.632770	-0.434369
39475	-7.753891	2.458383	0.974544	-0.619469	0.116405	-0.633473	-0.448798
39476	-8.112863	2.634748	0.427994	-0.608207	0.117856	-0.633963	-0.462910
39477	-7.998960	2.775359	0.617033	-0.596210	0.119445	-0.635401	-0.475953
39478	-8.023983	3.506263	1.229427	-0.583409	0.120771	-0.638753	-0.486871
39479	-8.149979	3.831460	1.790614	-0.570165	0.124390	-0.640984	-0.498576
39480	-8.169947	3.038619	1.726366	-0.556627	0.129921	-0.641115	-0.512112
39481	-8.088279	3.079466	1.734167	-0.543485	0.134537	-0.641004	-0.525012
39482	-8.322792	2.669287	1.551210	-0.530578	0.138218	-0.641359	-0.536695
39483	-8.389358	2.135659	1.781962	-0.518059	0.140701	-0.642791	-0.546478
39484	-8.445651	3.393477	2.595729	-0.506055	0.143041	-0.645133	-0.554302
39485	-8.200097	3.678373	3.073238	-0.494433	0.146765	-0.646221	-0.562489
39486	-7.727277	3.043020	2.967189	-0.483574	0.150080	-0.647072	-0.570026
39487	-7.403319	3.382812	3.042123	-0.473692	0.152503	-0.647871	-0.576733
39488	-7.308310	3.154750	3.119121	-0.464384	0.154458	-0.648440	-0.583109
39489	-7.105555	3.333694	3.297694	-0.456155	0.155859	-0.649211	-0.588350
39490	-6.861138	3.203704	3.281785	-0.449068	0.157622	-0.649442	-0.593059
39491	-6.666971	3.246266	3.140274	-0.443233	0.159028	-0.649959	-0.596496
39492	-6.627589	3.528767	2.889607	-0.438723	0.160099	-0.650270	-0.599199
39493	-6.501763	3.583952	2.649933	-0.435471	0.160810	-0.650783	-0.600822
39494	-6.857532	4.057171	2.323807	-0.433565	0.161339	-0.651131	-0.601681
39495	-7.328264	4.720694	1.973270	-0.433133	0.162113	-0.651171	-0.601740
39496	-8.552243	5.186433	1.513171	-0.433659	0.164175	-0.650611	-0.601408
39497	-9.842379	5.667068	1.018215	-0.435404	0.167077	-0.649832	-0.600189
39498	-9.937629	6.329009	0.924255	-0.438009	0.170342	-0.649085	-0.598181
39499	-9.423451	6.503527	0.842889	-0.441083	0.173103	-0.648660	-0.595585
39500	-9.070643	7.260535	0.809124	-0.444284	0.174738	-0.649095	-0.592245
39501	-9.209275	8.059516	0.872340	-0.447974	0.174909	-0.650375	-0.587995
39502	-9.557119	8.529826	1.034613	-0.452064	0.174738	-0.650951	-0.584266
39503	-9.856501	8.468411	1.204107	-0.455993	0.174722	-0.651014	-0.581140
39504	-9.756913	7.389374	1.237333	-0.459663	0.174891	-0.649957	-0.579378
39505	-8.676731	6.163003	1.078303	-0.463305	0.174034	-0.649336	-0.577429
39506	-7.645517	5.566464	1.359786	-0.466888	0.171589	-0.650147	-0.574353
39507	-7.666569	5.187348	2.085885	-0.470458	0.167940	-0.651956	-0.570455
39508	-8.428687	4.733851	2.336587	-0.474838	0.163452	-0.653202	-0.566692
39509	-8.792883	3.837760	2.016724	-0.480501	0.158144	-0.654163	-0.562299
39510	-8.881772	3.381871	1.621850	-0.487402	0.151432	-0.656161	-0.555842
39511	-8.627146	3.401841	1.309910	-0.495456	0.142641	-0.659699	-0.546785
39512	-8.137558	3.979013	0.846229	-0.504854	0.131493	-0.663574	-0.536192
39513	-7.768029	4.926511	0.258379	-0.515236	0.118438	-0.666920	-0.525093
39514	-7.630370	5.795066	-0.630150	-0.526194	0.104171	-0.669452	-0.513909
39515	-7.742283	6.437258	-1.496229	-0.537309	0.089412	-0.671361	-0.502573
39516	-7.730359	7.105235	-1.963703	-0.548014	0.075451	-0.672336	-0.491887
39517	-7.431482	7.532214	-2.540511	-0.557942	0.062848	-0.672291	-0.482468
39518	-6.654770	7.591467	-2.989569	-0.566831	0.051234	-0.672099	-0.473668
39519	-6.269728	7.820409	-2.968006	-0.574362	0.039810	-0.672831	-0.464566
39520	-6.364079	8.752279	-2.598284	-0.580716	0.028896	-0.673950	-0.455769
39521	-6.471891	9.262096	-2.179207	-0.586234	0.019812	-0.674011	-0.449051
39522	-6.376065	9.276046	-2.202253	-0.590866	0.012737	-0.673222	-0.444396
39523	-6.427075	9.123425	-2.431547	-0.594351	0.007186	-0.672534	-0.440902
39524	-6.465277	9.085451	-2.262397	-0.596654	0.002877	-0.672151	-0.438417
39525	-6.472476	9.167911	-1.665847	-0.597911	-0.000320	-0.671769	-0.437297
39526	-6.310204	8.429005	-1.380676	-0.598442	-0.002297	-0.670690	-0.438219
39527	-6.382079	7.729487	-1.280024	-0.598114	-0.003816	-0.669475	-0.440510
39528	-6.640129	7.395679	-1.100512	-0.596679	-0.005099	-0.668882	-0.443334
39529	-6.908883	7.150713	-0.665163	-0.594304	-0.005874	-0.668940	-0.446416
39530	-6.933464	6.997327	-0.322755	-0.591644	-0.006056	-0.669054	-0.449764
39531	-6.593906	7.088829	0.038653	-0.588900	-0.005377	-0.668815	-0.453712
39532	-6.322537	6.839235	0.146517	-0.586067	-0.003913	-0.668173	-0.458317
39533	-6.265385	6.533488	0.120118	-0.583075	-0.001644	-0.667377	-0.463281
39534	-6.494556	6.282355	0.039253	-0.579794	0.001547	-0.666752	-0.468271
39535	-6.848788	6.505465	-0.091012	-0.576573	0.004951	-0.666662	-0.472336
39536	-6.845664	6.542909	0.241432	-0.573360	0.009067	-0.666723	-0.476084
39537	-7.150059	6.416252	0.474178	-0.569829	0.013893	-0.667020	-0.479777
39538	-7.450977	6.462352	0.484891	-0.566207	0.019304	-0.667115	-0.483729
39539	-7.538019	6.556106	0.675654	-0.562406	0.025114	-0.667206	-0.487755
39540	-7.885287	6.365505	0.650087	-0.558676	0.031174	-0.667235	-0.491637
39541	-7.991291	6.171383	0.598638	-0.555311	0.037356	-0.667081	-0.495214
39542	-7.923117	5.887136	0.671010	-0.552298	0.043899	-0.666626	-0.498647
39543	-7.887571	5.645704	0.793452	-0.549442	0.050474	-0.666371	-0.501513
39544	-7.916077	5.529606	0.767338	-0.546871	0.056979	-0.665975	-0.504145
39545	-8.021315	5.456857	0.790818	-0.544407	0.063269	-0.665638	-0.506502
39546	-8.190104	5.715962	0.738390	-0.542044	0.069204	-0.665316	-0.508679
39547	-8.083108	5.851364	0.784353	-0.539723	0.075178	-0.664748	-0.511036
39548	-7.889411	5.466984	0.752260	-0.537211	0.081284	-0.663922	-0.513813
39549	-7.682959	5.157409	0.728745	-0.534479	0.087152	-0.663380	-0.516395
39550	-7.609434	5.177297	0.886454	-0.531658	0.092787	-0.663015	-0.518788
39551	-7.658158	5.367790	0.998316	-0.528969	0.098230	-0.662505	-0.521181
39552	-7.546436	5.105087	0.995653	-0.526363	0.103721	-0.661611	-0.523884
39553	-7.513116	4.790643	0.889791	-0.523592	0.109149	-0.660898	-0.526452
39554	-7.750449	5.090255	0.817931	-0.520776	0.114560	-0.660401	-0.528714
39555	-8.141859	5.360597	0.987978	-0.518002	0.119970	-0.660016	-0.530717
39556	-8.419712	5.383878	0.999306	-0.515373	0.125421	-0.659414	-0.532760
39557	-8.480494	5.344869	0.915384	-0.512811	0.131058	-0.658502	-0.534999
39558	-8.268463	5.277520	1.000643	-0.510070	0.136491	-0.657803	-0.537116
39559	-8.052712	5.353737	1.039055	-0.507088	0.141651	-0.657390	-0.539106
39560	-8.247590	5.582201	1.122195	-0.503857	0.146667	-0.657084	-0.541164
39561	-8.395577	5.560070	1.123608	-0.500363	0.151493	-0.656781	-0.543439
39562	-8.398761	5.577565	1.195663	-0.496696	0.155859	-0.656866	-0.545462
39563	-8.331954	5.426594	1.275055	-0.492970	0.159971	-0.656774	-0.547757
39564	-8.236889	5.208814	1.168959	-0.489392	0.163648	-0.656280	-0.550464
39565	-8.014924	5.228791	0.946928	-0.485895	0.166820	-0.655889	-0.553070
39566	-7.723766	5.644600	0.949549	-0.482411	0.169864	-0.655757	-0.555346
39567	-7.743740	5.737383	1.036173	-0.478838	0.173061	-0.655394	-0.557873
39568	-7.749821	5.392138	0.974581	-0.475159	0.176490	-0.654729	-0.560718
39569	-7.946518	5.097718	0.864031	-0.471181	0.179855	-0.654321	-0.563476
39570	-8.072297	5.101710	1.004760	-0.466955	0.183077	-0.654206	-0.566083
39571	-8.173517	5.243366	1.342877	-0.462532	0.186170	-0.654437	-0.568433
39572	-8.371629	5.184677	1.361253	-0.458278	0.188890	-0.654563	-0.570832
39573	-8.562529	5.016044	1.407441	-0.454254	0.191430	-0.654550	-0.573212
39574	-8.808676	4.902759	1.394384	-0.450640	0.193715	-0.654570	-0.575271
39575	-8.880846	4.911260	1.420121	-0.447543	0.195536	-0.654832	-0.576773
39576	-8.841460	4.936223	1.518075	-0.444949	0.196988	-0.655229	-0.577834
39577	-8.880486	4.985226	1.447378	-0.442990	0.198205	-0.655486	-0.578630
39578	-8.741345	4.998861	1.315852	-0.441626	0.199050	-0.655877	-0.578940
39579	-8.594931	5.021007	1.377443	-0.440862	0.199579	-0.656415	-0.578730
39580	-8.550652	5.093745	1.532882	-0.440877	0.199775	-0.656716	-0.578309
39581	-8.316019	4.907319	1.381985	-0.441682	0.199503	-0.656802	-0.577691
39582	-8.113108	4.718132	1.264288	-0.443107	0.198944	-0.657064	-0.576494
39583	-8.138576	4.765913	1.273024	-0.445126	0.198226	-0.657532	-0.574649
39584	-8.501611	4.687076	1.204465	-0.447706	0.197625	-0.657773	-0.572572
39585	-8.630133	4.583039	1.019586	-0.450890	0.197168	-0.657851	-0.570136
39586	-8.715640	4.498287	1.050168	-0.454599	0.196458	-0.658305	-0.566902
39587	-8.638817	4.672463	1.255315	-0.458788	0.195357	-0.658823	-0.563295
39588	-8.623822	4.573678	1.439714	-0.463287	0.193961	-0.659144	-0.559708
39589	-8.720118	4.381471	1.368668	-0.468156	0.192049	-0.659429	-0.555968
39590	-9.016005	4.336891	1.167883	-0.473337	0.189643	-0.659769	-0.551990
39591	-9.125937	4.283216	1.016727	-0.478867	0.186961	-0.660047	-0.547786
39592	-9.335852	4.266650	0.875409	-0.484625	0.184342	-0.660204	-0.543404
39593	-9.431501	4.421678	0.826521	-0.490499	0.181696	-0.660458	-0.538695
39594	-9.772716	4.543632	0.932569	-0.496340	0.178782	-0.660706	-0.533996
39595	-10.014273	4.125585	1.067459	-0.501891	0.175426	-0.661214	-0.529271
39596	-10.392644	4.223430	0.999200	-0.507620	0.171131	-0.661934	-0.524290
39597	-10.036719	4.830718	0.960879	-0.513845	0.166054	-0.662402	-0.519243
39598	-9.428642	5.215663	0.990315	-0.520518	0.160420	-0.662620	-0.514064
39599	-8.762536	5.224001	0.801135	-0.527871	0.154656	-0.661829	-0.509329
39600	-8.162437	4.720486	0.629915	-0.535621	0.148646	-0.660700	-0.504470
39601	-8.009368	4.392900	0.502658	-0.543650	0.142464	-0.659733	-0.498900
39602	-8.362350	4.149607	0.235147	-0.551944	0.136562	-0.658777	-0.492668
39603	-8.386475	4.009350	-0.012229	-0.560630	0.130855	-0.657918	-0.485505
39604	-8.426123	4.114216	0.098152	-0.569598	0.125655	-0.657360	-0.477123
39605	-8.311311	4.318450	0.485395	-0.578953	0.120989	-0.657158	-0.467245
39606	-8.308089	4.113756	0.920038	-0.588802	0.117183	-0.656786	-0.456303
39607	-8.473996	3.383270	1.175266	-0.599276	0.114260	-0.655980	-0.444413
39608	-8.856896	2.611264	1.230211	-0.610357	0.112027	-0.654750	-0.431527
39609	-9.191301	1.688538	1.135176	-0.621797	0.110114	-0.653423	-0.417470
39610	-9.436877	1.079095	1.075154	-0.633340	0.108139	-0.652616	-0.401595
39611	-9.636017	0.570527	0.961921	-0.644804	0.106188	-0.652357	-0.383904
39612	-9.750826	0.177108	0.935717	-0.656248	0.104114	-0.652707	-0.363966
39613	-9.777408	0.143426	0.952828	-0.667628	0.101846	-0.653610	-0.341607
39614	-10.160940	0.355962	0.591699	-0.678860	0.099233	-0.654362	-0.317982
39615	-9.422356	0.704061	0.534816	-0.689759	0.096525	-0.654574	-0.294019
39616	-8.960610	0.713199	0.108543	-0.700044	0.093041	-0.655058	-0.268666
39617	-8.829715	0.832302	-0.217078	-0.709657	0.089015	-0.655892	-0.241390
39618	-9.286090	0.506614	-0.213702	-0.718713	0.084388	-0.656594	-0.212637
39619	-9.861830	-0.486005	-0.110247	-0.727097	0.078647	-0.657164	-0.182430
39620	-10.399629	-0.378866	-0.627781	-0.734880	0.071445	-0.657119	-0.151796
39621	-10.308417	0.639708	-0.968748	-0.741386	0.064084	-0.656760	-0.122091
39622	-10.014228	1.005455	-1.215484	-0.746077	0.056468	-0.656786	-0.093881
39623	-9.733120	1.091434	-1.062624	-0.749142	0.047555	-0.657307	-0.066883
39624	-9.568031	0.942813	-0.566314	-0.750915	0.037181	-0.658071	-0.041074
39625	-9.918950	0.713134	-0.516024	-0.751300	0.025191	-0.659267	-0.016760
39626	-10.264568	1.384813	-0.594189	-0.750641	0.012144	-0.660582	0.004699
39627	-10.558114	1.524829	-0.721709	-0.749021	-0.000628	-0.662164	0.022501
39628	-10.961203	0.818325	-0.346925	-0.746885	-0.013633	-0.663742	0.037729
39629	-11.057787	0.151344	-0.044622	-0.744600	-0.026668	-0.665022	0.051050
39630	-11.293911	-0.273370	0.113803	-0.742231	-0.040092	-0.665950	0.063218
39631	-11.401814	-0.497992	0.093439	-0.739822	-0.053397	-0.666556	0.074265
39632	-11.330890	-0.764006	0.373478	-0.737438	-0.066093	-0.666895	0.084070
39633	-11.042142	-1.017395	0.658753	-0.735371	-0.078181	-0.666719	0.092752
39634	-10.405130	-1.445096	0.662230	-0.733584	-0.090416	-0.665916	0.101169
39635	-9.831000	-1.602735	0.525058	-0.731800	-0.103868	-0.664469	0.110276
39636	-9.378091	-1.821814	0.398961	-0.729833	-0.118412	-0.662487	0.120140
39637	-9.218710	-1.741224	0.249611	-0.727731	-0.133883	-0.659797	0.130962
39638	-9.218948	-1.585845	0.132206	-0.725740	-0.149769	-0.656140	0.142655
39639	-9.304364	-1.165199	0.076927	-0.723800	-0.165662	-0.651641	0.155028
39640	-9.606071	-0.882193	-0.109018	-0.722000	-0.180515	-0.646612	0.167400
39641	-9.847448	-0.739827	-0.329992	-0.720170	-0.194358	-0.641154	0.180283
39642	-9.999848	-0.656647	-0.320625	-0.718138	-0.207171	-0.635469	0.193744
39643	-10.129533	-0.458517	-0.368100	-0.715835	-0.219020	-0.629680	0.207638
39644	-10.288229	-0.283091	-0.339797	-0.713224	-0.230080	-0.623984	0.221400
39645	-10.436553	0.138891	-0.488107	-0.710392	-0.240698	-0.618274	0.234830
39646	-10.226510	0.950089	-0.559728	-0.707338	-0.250954	-0.612554	0.247935
39647	-10.025007	1.668622	-0.479448	-0.704065	-0.261196	-0.606580	0.261019
39648	-9.995366	2.204951	-0.467151	-0.700887	-0.270749	-0.600460	0.273680
39649	-9.843431	2.260113	-0.428098	-0.698248	-0.278918	-0.594343	0.285327
39650	-9.809093	1.987749	-0.411140	-0.695872	-0.286264	-0.588325	0.296122
39651	-9.974015	2.080083	-0.384315	-0.693758	-0.292830	-0.582331	0.306335
39652	-9.815178	2.173675	-0.278495	-0.692005	-0.298599	-0.576352	0.315890
39653	-9.653112	1.889873	-0.126176	-0.690646	-0.303432	-0.570556	0.324658
39654	-9.638826	1.621599	-0.120137	-0.689534	-0.307419	-0.564950	0.332969
39655	-9.532281	1.557767	-0.148137	-0.688548	-0.310496	-0.559962	0.340495
39656	-9.888475	1.812730	-0.022067	-0.687918	-0.312128	-0.555924	0.346833
39657	-10.098910	1.554197	0.259092	-0.687809	-0.311908	-0.553005	0.351877
39658	-9.984281	1.029253	0.660783	-0.688051	-0.310371	-0.551009	0.355872
39659	-9.587942	0.356532	0.981600	-0.688315	-0.307978	-0.550007	0.358977
39660	-9.351329	0.177824	1.274111	-0.688346	-0.305274	-0.549758	0.361600
39661	-9.104087	0.057839	1.447964	-0.688092	-0.302613	-0.549905	0.364088
39662	-9.034899	0.237693	1.603839	-0.687594	-0.299911	-0.550589	0.366224
39663	-9.093491	0.115797	1.918626	-0.686962	-0.297323	-0.551588	0.368011
39664	-9.263388	-0.107958	2.295026	-0.686069	-0.295258	-0.552710	0.369654
39665	-9.292023	-0.189834	2.620099	-0.685349	-0.293017	-0.554019	0.370811
39666	-9.131916	-0.238722	3.002829	-0.685176	-0.290258	-0.555483	0.371111
39667	-9.054984	-0.407458	2.757141	-0.685162	-0.287922	-0.556914	0.370812
39668	-9.231635	-0.613188	2.568772	-0.685053	-0.286352	-0.558107	0.370433
39669	-9.329642	-0.752360	3.046631	-0.685518	-0.284535	-0.559066	0.369526
39670	-9.383341	-0.906866	2.808579	-0.685570	-0.283636	-0.560220	0.368373
39671	-9.756745	-1.038086	2.261492	-0.685195	-0.283422	-0.561316	0.367565
39672	-9.691078	-1.270903	2.311576	-0.684434	-0.283658	-0.562130	0.367556
39673	-9.492586	-1.298942	2.427931	-0.682820	-0.284700	-0.563078	0.368301
39674	-9.353935	-1.367830	2.667058	-0.680642	-0.286321	-0.564186	0.369379
39675	-9.351314	-1.066487	2.950421	-0.678267	-0.288404	-0.565168	0.370624
39676	-9.360120	-1.099528	2.879703	-0.676043	-0.290605	-0.566028	0.371654
39677	-9.376620	-1.064030	2.550505	-0.673758	-0.293153	-0.566678	0.372811
39678	-9.417188	-1.376240	2.366349	-0.671342	-0.295910	-0.567253	0.374115
39679	-9.451452	-1.604486	2.056284	-0.668422	-0.299286	-0.567554	0.376194
39680	-9.385786	-1.233975	1.831413	-0.664967	-0.303814	-0.567100	0.379360
39681	-9.124907	-0.013039	1.935109	-0.661343	-0.309219	-0.566244	0.382591
39682	-9.483505	0.818928	1.864842	-0.658337	-0.314394	-0.565233	0.385046
39683	-9.875406	0.529329	1.662240	-0.656331	-0.318244	-0.564055	0.387029
39684	-9.918834	-0.400741	1.351120	-0.654551	-0.321966	-0.562537	0.389170
39685	-10.112669	-0.677966	0.938135	-0.652315	-0.326200	-0.560559	0.392240
39686	-10.237408	0.059093	0.829336	-0.649522	-0.330958	-0.558223	0.396201
39687	-10.151966	1.049582	1.252139	-0.646987	-0.335037	-0.556196	0.399755
39688	-10.061625	1.329147	1.447648	-0.645555	-0.337297	-0.554928	0.401925
39689	-10.062451	1.182385	1.493702	-0.645111	-0.338416	-0.553893	0.403124
39690	-10.143373	0.375908	1.573098	-0.645388	-0.338790	-0.552981	0.403618
39691	-10.117710	-0.439837	1.439419	-0.645681	-0.339291	-0.551821	0.404317
39692	-9.955599	-0.822129	1.338446	-0.645449	-0.340358	-0.550535	0.405541
39693	-9.751352	-0.474366	1.394231	-0.644814	-0.341913	-0.549021	0.407291
39694	-9.536312	0.033109	1.637748	-0.644266	-0.343268	-0.547665	0.408842
39695	-9.568353	0.035362	2.067537	-0.644019	-0.344301	-0.546471	0.409958
39696	-9.546386	-0.315797	2.072200	-0.644334	-0.344638	-0.545389	0.410621
39697	-9.460482	-0.431558	1.765650	-0.644581	-0.345232	-0.544152	0.411374
39698	-9.692844	-0.485410	1.633523	-0.644537	-0.346400	-0.542689	0.412393
39699	-9.575582	-0.627459	1.731912	-0.644174	-0.347879	-0.540911	0.414046
39700	-9.405870	-0.567837	1.676432	-0.643677	-0.349182	-0.539476	0.415593
39701	-9.473566	-0.457093	1.639921	-0.642903	-0.350739	-0.538233	0.417089
39702	-9.550023	-0.050161	1.558034	-0.642213	-0.352258	-0.536733	0.418801
39703	-9.585517	0.517088	1.956224	-0.641814	-0.353695	-0.535111	0.420275
39704	-9.647126	0.185015	1.902657	-0.642193	-0.354054	-0.533760	0.421110
39705	-9.755494	-0.288527	1.539235	-0.642896	-0.353891	-0.532771	0.421428
39706	-9.871690	-0.244921	1.611907	-0.643823	-0.353592	-0.531500	0.421869
39707	-9.848275	0.238605	1.946532	-0.644968	-0.353314	-0.530005	0.422233
39708	-9.804060	0.077856	2.417076	-0.646835	-0.352144	-0.528625	0.422082
39709	-9.619551	-0.330638	2.442982	-0.649372	-0.350133	-0.527426	0.421359
39710	-9.373833	-0.677936	2.076264	-0.652147	-0.348081	-0.526202	0.420304
39711	-9.321713	-0.522143	2.119653	-0.654364	-0.347450	-0.524364	0.419677
39712	-9.324365	-0.906552	2.330799	-0.656358	-0.347528	-0.522051	0.419382
39713	-9.394141	-0.839744	2.390610	-0.658058	-0.348122	-0.519362	0.419565
39714	-9.113538	-0.669390	2.549526	-0.659653	-0.348863	-0.516587	0.419869
39715	-8.979684	-0.496928	2.583342	-0.661461	-0.349266	-0.513980	0.419889
39716	-8.948431	-0.885638	2.383514	-0.663125	-0.349772	-0.511433	0.419954
39717	-9.381450	-0.867584	2.014400	-0.664556	-0.350644	-0.508627	0.420371
39718	-9.800958	-0.654760	2.129488	-0.665463	-0.352279	-0.505505	0.421336
39719	-10.086011	0.322211	2.718411	-0.666529	-0.353592	-0.502371	0.422298
39720	-10.139170	0.195800	2.776219	-0.668091	-0.353565	-0.500052	0.422605
39721	-9.981332	0.286610	2.396833	-0.669758	-0.352796	-0.498355	0.422613
39722	-9.851943	-0.046046	2.276674	-0.670854	-0.352540	-0.496758	0.422968
39723	-9.504060	-0.228588	2.561002	-0.671250	-0.353048	-0.494989	0.423989
39724	-9.044491	0.040663	2.724011	-0.671279	-0.353878	-0.493254	0.425270
39725	-8.638757	-0.144509	2.688800	-0.671362	-0.354308	-0.491849	0.426408
39726	-8.671992	-0.393719	2.358685	-0.671152	-0.354917	-0.490471	0.427817
39727	-8.965259	-0.493079	2.174955	-0.670374	-0.356137	-0.488842	0.429882
39728	-9.322289	0.060233	2.259862	-0.669113	-0.357903	-0.486861	0.432620
39729	-9.486693	0.451430	2.407268	-0.667758	-0.359550	-0.484798	0.435652
39730	-9.339840	0.775939	2.282987	-0.666738	-0.360455	-0.483171	0.438268
39731	-9.213850	0.963759	2.315242	-0.666048	-0.360694	-0.481878	0.440538
39732	-9.275274	0.566679	2.323183	-0.665745	-0.360092	-0.480977	0.442469
39733	-9.437213	0.138921	2.247969	-0.665359	-0.359316	-0.480079	0.444651
39734	-9.531845	0.177499	2.354662	-0.664932	-0.358318	-0.479226	0.447007
39735	-9.655515	0.564646	2.597581	-0.664252	-0.357633	-0.478319	0.449531
39736	-9.600104	0.684085	2.869291	-0.663641	-0.356655	-0.477677	0.451888
39737	-9.544051	0.512671	2.885254	-0.663186	-0.355181	-0.477497	0.453901
39738	-9.587525	0.536070	2.799896	-0.662653	-0.353776	-0.477420	0.455855
39739	-9.503803	0.434373	2.917838	-0.661921	-0.352677	-0.477262	0.457930
39740	-9.377826	0.534272	2.888875	-0.661011	-0.351856	-0.477069	0.460073
39741	-9.195997	0.552812	2.917003	-0.660018	-0.351273	-0.476767	0.462251
39742	-9.028736	0.561245	2.940165	-0.659186	-0.350573	-0.476388	0.464356
39743	-9.095498	0.622595	2.953546	-0.658485	-0.349735	-0.476085	0.466290
39744	-9.253692	0.549210	3.096585	-0.657991	-0.348808	-0.475725	0.468045
39745	-9.364734	0.423552	3.304415	-0.657751	-0.347768	-0.475343	0.469542
39746	-9.639730	0.207369	3.346870	-0.657684	-0.346630	-0.475081	0.470741
39747	-9.794238	-0.119456	3.441543	-0.657549	-0.345804	-0.474719	0.471901
39748	-10.146921	-0.114100	3.540713	-0.657313	-0.345434	-0.474317	0.472905
39749	-10.476971	-0.019862	3.682803	-0.657156	-0.345349	-0.473843	0.473659
39750	-10.527133	0.014124	3.748084	-0.657134	-0.345271	-0.473367	0.474222
39751	-10.314771	-0.060763	3.741794	-0.657202	-0.345113	-0.473042	0.474567
39752	-10.160568	-0.075129	3.729826	-0.657252	-0.345015	-0.472858	0.474752
39753	-10.046065	-0.031449	3.849619	-0.657165	-0.345268	-0.472625	0.474921
39754	-10.004424	-0.016219	4.190261	-0.657117	-0.345444	-0.472433	0.475050
39755	-9.911117	-0.156599	4.143245	-0.657084	-0.345443	-0.472398	0.475132
39756	-9.797586	-0.272002	3.906653	-0.656837	-0.345717	-0.472300	0.475371
39757	-9.606069	-0.225847	3.915805	-0.656239	-0.346610	-0.471809	0.476034
39758	-9.342847	-0.096666	4.114914	-0.655456	-0.347825	-0.470987	0.477040
39759	-9.106795	-0.043869	3.894666	-0.654758	-0.348766	-0.470176	0.478110
39760	-9.035407	0.179481	3.711191	-0.653934	-0.349813	-0.469272	0.479358
39761	-9.005400	0.283567	3.896755	-0.653012	-0.350960	-0.467980	0.481038
39762	-8.890545	0.238789	4.098787	-0.652113	-0.351895	-0.466675	0.482839
39763	-8.697844	-0.012166	4.025049	-0.651321	-0.352564	-0.465447	0.484601
39764	-8.504974	-0.238794	3.716801	-0.650375	-0.353405	-0.464111	0.486537
39765	-8.398695	-0.352599	3.735852	-0.649131	-0.354547	-0.462490	0.488906
39766	-8.368298	-0.538252	3.766671	-0.647470	-0.356114	-0.460433	0.491902
39767	-8.329013	-0.343429	3.702244	-0.645442	-0.358168	-0.457944	0.495385
39768	-8.283072	-0.020902	3.928644	-0.643026	-0.360712	-0.455163	0.499230
39769	-8.168565	-0.071621	4.091510	-0.640579	-0.362899	-0.452392	0.503293
