// Start Time: Unknown
// Update Rate: 60.0Hz
// Filter Profile: human (46.1)
// Option Flags: AHS Disabled ICC Disabled 
// Firmware Version: 4.3.5
PacketCounter	Acc_X	Acc_Y	Acc_Z	Quat_q0	Quat_q1	Quat_q2	Quat_q3
40913	-10.511990	0.212653	-2.244366	0.638696	0.085092	0.758968	-0.093779
40914	-9.643660	-1.265030	-3.247826	0.639296	0.085638	0.758345	-0.094234
40915	-9.256281	-1.306491	-2.636344	0.637696	0.087438	0.759201	-0.096498
40916	-9.782660	-0.457856	-1.811559	0.636378	0.089130	0.759798	-0.098927
40917	-9.778205	-0.305787	-2.055187	0.635284	0.090222	0.760312	-0.100999
40918	-9.762034	0.313763	-1.774205	0.634583	0.090569	0.760653	-0.102513
40919	-9.513281	0.270828	-2.179024	0.634329	0.089933	0.760895	-0.102848
40920	-9.490302	0.092864	-2.036694	0.634185	0.089372	0.761077	-0.102877
40921	-9.623693	-0.427348	-1.865335	0.634046	0.089080	0.761245	-0.102745
40922	-9.719337	-0.635941	-1.695176	0.633825	0.089305	0.761379	-0.102917
40923	-9.826300	-0.773601	-1.457840	0.633498	0.090428	0.761392	-0.103855
40924	-9.765795	-0.498618	-1.398477	0.633161	0.091934	0.761293	-0.105298
40925	-9.713157	-0.195232	-1.636819	0.632984	0.093372	0.761048	-0.106859
40926	-9.571013	0.031714	-1.768121	0.632905	0.094121	0.760885	-0.107824
40927	-9.726601	0.193223	-1.587211	0.632846	0.094331	0.760839	-0.108308
40928	-9.716123	0.263600	-1.595408	0.633147	0.093662	0.760735	-0.107863
40929	-9.595454	0.029786	-1.747764	0.633513	0.092737	0.760651	-0.107104
40930	-9.688853	-0.301382	-1.720285	0.633872	0.091955	0.760542	-0.106427
40931	-9.726360	-0.648412	-1.786633	0.634522	0.091008	0.760236	-0.105551
40932	-9.788738	-0.934288	-1.407339	0.634727	0.090473	0.760201	-0.105026
40933	-9.695322	-0.899163	-1.477816	0.635285	0.090119	0.759822	-0.104695
40934	-9.606927	-0.787472	-1.811516	0.635743	0.090120	0.759442	-0.104678
40935	-9.616277	-0.553343	-2.065258	0.636113	0.090532	0.759033	-0.105039
40936	-9.573962	-0.500957	-2.005631	0.636393	0.090775	0.758752	-0.105161
40937	-9.543767	-0.372858	-1.867102	0.636744	0.090879	0.758437	-0.105220
40938	-9.518454	-0.403461	-1.971577	0.636879	0.090925	0.758317	-0.105232
40939	-9.624786	-0.417231	-1.960558	0.637148	0.090842	0.758121	-0.105083
40940	-9.539588	-0.688264	-2.170948	0.637263	0.090823	0.758050	-0.104916
40941	-9.672571	-0.669871	-1.673835	0.637138	0.091049	0.758097	-0.105133
40942	-9.562834	-0.775730	-1.997619	0.637226	0.090848	0.758065	-0.105014
40943	-9.635385	-0.666488	-1.862780	0.636966	0.090967	0.758236	-0.105247
40944	-9.510646	-0.557132	-1.939400	0.636850	0.090952	0.758323	-0.105336
40945	-9.569056	-0.425149	-1.832187	0.636371	0.091287	0.758628	-0.105748
40946	-9.626471	-0.273732	-1.734850	0.636071	0.091388	0.758847	-0.105898
40947	-9.624191	-0.353524	-1.886326	0.635753	0.091357	0.759101	-0.106005
40948	-9.600060	-0.344422	-1.833288	0.635324	0.091173	0.759489	-0.105962
40949	-9.551618	-0.472215	-1.789351	0.634831	0.090889	0.759953	-0.105836
40950	-9.613601	-0.438151	-1.652015	0.634318	0.090599	0.760420	-0.105797
40951	-9.558857	-0.422038	-1.807688	0.633845	0.090044	0.760912	-0.105567
40952	-9.659830	-0.467904	-1.822945	0.633153	0.089780	0.761512	-0.105621
40953	-9.592974	-0.578122	-1.900251	0.632508	0.089428	0.762079	-0.105693
40954	-9.629468	-0.600932	-1.584860	0.631704	0.089065	0.762792	-0.105668
40955	-9.494235	-0.526923	-1.786266	0.631161	0.088477	0.763347	-0.105403
40956	-9.652191	-0.450032	-1.719990	0.630256	0.088173	0.764126	-0.105423
40957	-9.645674	-0.398175	-1.763540	0.629417	0.087874	0.764861	-0.105362
40958	-9.772570	-0.553194	-1.604798	0.628668	0.087710	0.765475	-0.105509
40959	-9.640150	-0.508618	-1.648629	0.628246	0.087090	0.765932	-0.105215
40960	-9.667363	-0.427165	-1.492583	0.627712	0.086813	0.766398	-0.105238
40961	-9.721909	-0.368536	-1.488160	0.627442	0.086834	0.766592	-0.105416
40962	-9.746229	-0.237224	-1.612463	0.627227	0.087044	0.766710	-0.105663
40963	-9.692302	-0.253551	-1.744760	0.627072	0.086687	0.766947	-0.105161
40964	-9.599032	-0.367213	-1.721704	0.626922	0.086250	0.767173	-0.104765
40965	-9.579643	-0.417229	-1.767647	0.626819	0.085741	0.767364	-0.104399
40966	-9.544292	-0.460435	-1.908938	0.626618	0.085645	0.767530	-0.104461
40967	-9.718975	-0.575856	-1.790901	0.626362	0.085760	0.767695	-0.104689
40968	-9.749604	-0.670798	-1.782459	0.626186	0.085389	0.767916	-0.104427
40969	-9.695833	-0.671995	-1.603118	0.626054	0.085107	0.768078	-0.104255
40970	-9.562053	-0.695629	-1.891911	0.625967	0.084822	0.768215	-0.104007
40971	-9.667962	-0.592310	-1.715531	0.625794	0.084904	0.768322	-0.104181
40972	-9.687985	-0.593767	-1.720885	0.625752	0.085046	0.768321	-0.104334
40973	-9.813575	-0.576219	-1.541984	0.625857	0.085147	0.768236	-0.104239
40974	-9.855173	-0.610301	-1.294419	0.625988	0.085073	0.768212	-0.103691
40975	-9.766674	-0.660946	-1.438483	0.626683	0.084979	0.767750	-0.102993
40976	-9.626042	-0.650316	-1.653144	0.627314	0.084961	0.767342	-0.102198
40977	-9.494268	-0.768043	-1.804971	0.628012	0.085011	0.766883	-0.101307
40978	-9.375269	-0.815352	-1.892280	0.628467	0.085322	0.766569	-0.100602
40979	-9.468884	-0.671656	-1.727891	0.628775	0.085590	0.766380	-0.099886
40980	-9.462729	-0.467906	-2.171976	0.629160	0.085525	0.766198	-0.098912
40981	-9.559375	-0.317218	-2.237751	0.629167	0.085287	0.766376	-0.097684
40982	-9.565846	-0.659800	-2.112180	0.629134	0.084543	0.766713	-0.095890
40983	-9.411237	-1.006780	-2.140925	0.628776	0.083181	0.767441	-0.093572
40984	-9.531279	-1.001693	-1.990377	0.628245	0.082037	0.768227	-0.091683
40985	-9.493819	-0.895504	-2.154109	0.627375	0.081112	0.769244	-0.089922
40986	-9.712886	-0.724562	-2.044121	0.626302	0.080465	0.770354	-0.088464
40987	-9.685484	-0.683328	-2.019870	0.625316	0.079643	0.771439	-0.086717
40988	-9.621697	-0.602927	-1.907170	0.624341	0.078579	0.772556	-0.084746
40989	-9.548905	-0.702291	-2.076258	0.623418	0.077339	0.773675	-0.082439
40990	-9.592084	-0.814755	-2.014483	0.622182	0.076651	0.774936	-0.080552
40991	-9.396370	-0.807621	-2.048252	0.620705	0.075955	0.776385	-0.078630
40992	-9.604466	-0.634956	-1.844761	0.618812	0.075415	0.778113	-0.076970
40993	-9.558914	-0.564895	-1.813255	0.617001	0.074874	0.779781	-0.075143
40994	-9.559285	-0.630266	-1.667187	0.615164	0.074683	0.781391	-0.073644
40995	-9.581914	-0.428683	-1.715711	0.613634	0.074665	0.782730	-0.072198
40996	-9.656223	-0.193680	-1.813980	0.611950	0.074647	0.784190	-0.070644
40997	-9.632207	0.143147	-2.058023	0.610859	0.074456	0.785218	-0.068852
40998	-9.454418	-0.004369	-2.437878	0.609714	0.074468	0.786254	-0.067136
40999	-9.343975	-0.176195	-2.372393	0.608426	0.074578	0.787385	-0.065424
41000	-9.424908	-0.280970	-2.168275	0.607102	0.075113	0.788467	-0.064071
41001	-9.742632	-0.100624	-2.481545	0.605824	0.075507	0.789546	-0.062387
41002	-9.591830	0.112127	-2.288597	0.604585	0.076214	0.790568	-0.060590
41003	-9.616201	0.298073	-2.255720	0.604210	0.075965	0.791098	-0.057650
41004	-9.255695	0.415138	-3.113758	0.604238	0.075144	0.791385	-0.054412
41005	-9.044672	0.800140	-3.172259	0.604017	0.073969	0.791893	-0.050962
41006	-9.122762	0.666579	-3.520583	0.603966	0.071808	0.792391	-0.046751
41007	-9.091230	0.814124	-3.746647	0.604029	0.069214	0.792807	-0.042604
41008	-8.952024	0.885164	-3.724189	0.603774	0.066099	0.793511	-0.037794
41009	-9.221282	0.438245	-3.406249	0.603494	0.062775	0.794208	-0.032983
41010	-9.271642	0.136877	-2.875007	0.602738	0.060943	0.795027	-0.030431
41011	-9.411971	0.339443	-2.223498	0.601526	0.061162	0.795934	-0.030260
41012	-9.800586	0.099538	-1.589920	0.600506	0.063085	0.796491	-0.031857
41013	-9.886234	0.673594	-1.431151	0.599713	0.066126	0.796726	-0.034645
41014	-9.525212	1.152020	-1.947045	0.599375	0.070417	0.796435	-0.038500
41015	-9.400067	1.509649	-2.402333	0.599083	0.074921	0.796020	-0.042874
41016	-9.337454	1.357134	-2.349417	0.598669	0.079516	0.795621	-0.047536
41017	-9.149265	1.418829	-2.077607	0.598172	0.083865	0.795251	-0.052272
41018	-9.208574	1.316162	-2.083463	0.597665	0.088163	0.794833	-0.057139
41019	-9.533473	0.235628	-1.774626	0.597631	0.092529	0.793969	-0.062357
41020	-9.454650	-0.531004	-1.082290	0.597662	0.098338	0.792644	-0.069608
41021	-9.651840	0.226754	-0.679955	0.597269	0.105987	0.791097	-0.078753
41022	-10.041710	0.944234	-0.928695	0.597311	0.114281	0.788868	-0.088577
41023	-9.841722	2.042625	-0.865082	0.597904	0.122154	0.786076	-0.098354
41024	-9.501418	2.926132	-1.113861	0.599558	0.128981	0.782612	-0.106827
41025	-9.012800	3.380647	-1.865276	0.602176	0.134629	0.778716	-0.113404
41026	-9.291687	3.121557	-2.163309	0.604157	0.140589	0.775203	-0.119536
41027	-9.469998	2.112162	-1.845270	0.606969	0.145445	0.771151	-0.125538
41028	-9.205254	0.706966	-2.784266	0.609771	0.148436	0.767399	-0.131317
41029	-9.003634	0.155830	-3.301632	0.612143	0.150241	0.764052	-0.137601
41030	-8.501218	0.135346	-4.233438	0.614034	0.150993	0.761284	-0.143563
41031	-8.620696	0.417147	-4.233849	0.613805	0.152531	0.760014	-0.149521
41032	-9.252525	1.235702	-3.168398	0.613243	0.154262	0.758821	-0.155972
41033	-8.821940	1.179244	-4.216768	0.612475	0.155685	0.757771	-0.162542
41034	-9.239141	1.206316	-4.083524	0.609374	0.159952	0.757095	-0.172875
41035	-10.030950	0.733670	-3.647713	0.605294	0.164661	0.756704	-0.184133
41036	-10.751547	-0.428006	-2.364049	0.600712	0.170729	0.755760	-0.197035
41037	-11.424318	-1.691931	-1.300558	0.596072	0.177584	0.754068	-0.211052
41038	-12.480611	-2.328074	-1.143732	0.592004	0.186734	0.750246	-0.227581
41039	-13.540510	-2.735721	-0.503862	0.589551	0.197385	0.743868	-0.245215
41040	-14.665482	-2.081673	0.140077	0.589134	0.209735	0.734264	-0.264175
41041	-13.646769	-1.828656	0.144129	0.592317	0.221507	0.721145	-0.282922
41042	-11.036917	-2.520501	-0.612859	0.596737	0.234232	0.705132	-0.303032
41043	-9.879232	-3.526776	-1.243700	0.600709	0.248990	0.686677	-0.325004
41044	-9.873656	-4.637623	-0.616356	0.603207	0.266606	0.666042	-0.348498
41045	-9.857812	-4.613481	-0.812492	0.604885	0.284735	0.644070	-0.371772
41046	-9.548352	-3.721588	-1.599732	0.604790	0.302535	0.622772	-0.393518
41047	-8.453946	-1.257652	-1.268836	0.601677	0.322368	0.602024	-0.414283
41048	-6.985753	3.467307	0.879181	0.599711	0.338791	0.585939	-0.426900
41049	-6.022739	3.639253	-0.811653	0.605040	0.342203	0.579907	-0.424890
41050	-5.851846	1.428806	-3.337851	0.608672	0.344732	0.578039	-0.420176
41051	-7.008234	-0.478241	-3.116000	0.611427	0.346236	0.579333	-0.413099
41052	-6.810552	-1.839368	-4.952833	0.615987	0.345592	0.579574	-0.406472
41053	-8.163943	-0.009949	-2.257830	0.615370	0.349333	0.581219	-0.401833
41054	-10.061649	-0.698711	2.362142	0.615362	0.350247	0.585375	-0.394958
41055	-9.488745	-5.393868	0.208455	0.616719	0.348802	0.589193	-0.388390
41056	-8.730666	-8.244228	1.155684	0.612562	0.350633	0.592354	-0.388510
41057	-8.640384	-7.041710	3.199362	0.606257	0.353475	0.592745	-0.395173
41058	-9.366144	-4.459642	2.227312	0.601528	0.353048	0.595088	-0.399237
41059	-10.409334	-4.589228	-0.048923	0.596154	0.354091	0.596827	-0.403754
41060	-12.314951	-2.357544	2.288954	0.588831	0.358173	0.596696	-0.411028
41061	-14.234543	1.128847	3.459334	0.588826	0.356698	0.593425	-0.417009
41062	-11.921782	4.967342	3.396117	0.591457	0.359142	0.583953	-0.424494
41063	-9.733615	5.354992	3.741978	0.601542	0.356421	0.575338	-0.424379
41064	-6.233143	-4.514627	-2.749916	0.611407	0.350438	0.568882	-0.423967
41065	-8.496035	0.543382	0.271733	0.606114	0.358009	0.561309	-0.435188
41066	-9.166902	2.155559	1.601881	0.608838	0.357092	0.556187	-0.438701
41067	-9.906677	4.307977	2.981488	0.605129	0.362977	0.549976	-0.446758
41068	-10.669141	7.715667	4.985908	0.608208	0.358603	0.548182	-0.448312
41069	-8.409610	5.063352	2.276144	0.613569	0.349986	0.548255	-0.447726
41070	-7.208570	4.730944	3.834432	0.618702	0.340245	0.550772	-0.445076
41071	-6.860136	4.665344	2.232855	0.624596	0.328241	0.553791	-0.442102
41072	-6.445897	3.060525	1.932282	0.631445	0.312688	0.558910	-0.437177
41073	-7.443214	0.431726	3.445045	0.634940	0.300941	0.563795	-0.434075
41074	-9.891860	-1.011955	3.773040	0.637586	0.290498	0.569104	-0.430366
41075	-10.096980	-1.146196	3.027824	0.638613	0.280663	0.575035	-0.427477
41076	-8.785575	2.218997	5.122547	0.638249	0.270062	0.582751	-0.424390
41077	-8.254697	1.994840	4.844936	0.638632	0.256412	0.593431	-0.417423
41078	-7.781364	-0.449016	3.663409	0.637569	0.244944	0.604923	-0.409361
41079	-8.230426	-0.849730	3.057967	0.634702	0.237420	0.616811	-0.400411
41080	-10.997131	0.748282	3.519376	0.630583	0.232911	0.629360	-0.389903
41081	-15.378719	2.236105	4.727625	0.627359	0.224068	0.644291	-0.375637
41082	-15.302615	1.111826	3.057075	0.627403	0.205670	0.661453	-0.355731
41083	-11.262996	0.113400	-2.103532	0.628867	0.182393	0.678380	-0.333256
41084	-7.825848	0.312369	-7.561135	0.629108	0.159514	0.694864	-0.309746
41085	-6.871757	-1.550944	-6.496312	0.628639	0.129784	0.715891	-0.274715
41086	-5.583448	-3.354586	-9.613589	0.629380	0.096425	0.734174	-0.235737
41087	-3.952030	-3.159332	-8.765407	0.623226	0.068486	0.752257	-0.202507
41088	-4.305074	-3.685965	-8.836904	0.615348	0.037289	0.769812	-0.165364
41089	-4.091060	-3.831002	-10.945034	0.603007	0.006953	0.787296	-0.128450
41090	-6.163434	-3.073506	-9.362335	0.586357	-0.019741	0.804132	-0.095741
41091	-9.414982	-3.543190	-7.875705	0.569317	-0.043838	0.818356	-0.065192
41092	-9.807565	-7.318073	-8.640442	0.557419	-0.067941	0.826890	-0.030354
41093	-9.274063	-14.606437	-7.665550	0.547587	-0.086831	0.832231	0.000661
41094	-11.121232	-14.480354	-6.043337	0.539388	-0.095224	0.836601	0.009585
41095	-13.235984	-9.859846	-7.711715	0.533717	-0.100052	0.839672	0.009327
41096	-13.387048	-5.492114	-7.867504	0.529601	-0.102283	0.842056	0.001637
41097	-11.946763	-1.747940	-6.901667	0.527305	-0.103352	0.843343	-0.006415
41098	-10.673637	1.485485	-6.032057	0.527461	-0.103333	0.843168	-0.013239
41099	-10.708193	1.225511	-5.611138	0.529755	-0.101548	0.841887	-0.016570
41100	-11.474690	-1.140900	-7.622404	0.534862	-0.097003	0.839101	-0.020525
41101	-11.925017	-3.304094	-8.289397	0.542677	-0.087370	0.834813	-0.030901
41102	-11.517029	-4.905069	-9.501734	0.553086	-0.071526	0.828589	-0.049195
41103	-11.635236	-2.595797	-7.925662	0.563815	-0.049675	0.820645	-0.078652
41104	-11.141218	-2.517391	-9.547566	0.575829	-0.027813	0.810178	-0.106111
41105	-10.911718	-3.401223	-7.394763	0.586277	-0.000385	0.797818	-0.140592
41106	-10.597710	-2.950288	-6.576637	0.598189	0.030002	0.780603	-0.178684
41107	-10.365313	-2.236430	-5.903991	0.609423	0.061298	0.759737	-0.218280
41108	-9.025415	-2.235589	-7.707295	0.622372	0.089737	0.734270	-0.255828
41109	-7.081895	-2.583772	-7.958055	0.632283	0.118838	0.706744	-0.294294
41110	-5.726944	-2.443383	-7.382963	0.638622	0.147351	0.677743	-0.333337
41111	-4.137310	-1.111153	-7.128068	0.640230	0.176596	0.647265	-0.374122
41112	-3.793087	-0.153778	-6.064087	0.639756	0.200355	0.618611	-0.409744
41113	-3.100103	-0.730202	-6.617722	0.637211	0.220640	0.591416	-0.442162
41114	-2.083232	2.759613	-2.945844	0.631681	0.238716	0.567659	-0.470911
41115	-0.698280	-0.304320	-5.589805	0.628109	0.247796	0.551709	-0.489585
41116	-1.297495	2.577606	-5.263693	0.612239	0.269560	0.534768	-0.516259
41117	-5.980402	10.834119	4.749190	0.597367	0.286636	0.523539	-0.535630
41118	-11.022523	10.190090	7.837332	0.590851	0.290682	0.526051	-0.538209
41119	-15.996777	4.719085	13.329482	0.589907	0.288633	0.531892	-0.534596
41120	-12.554642	-2.342214	8.963015	0.593027	0.280738	0.537740	-0.529473
41121	-11.366924	-3.962943	8.033144	0.590670	0.286108	0.532671	-0.534333
41122	-8.667720	-1.437900	8.622188	0.587247	0.299834	0.521300	-0.541745
41123	-5.326126	3.242019	3.575278	0.580677	0.318102	0.511514	-0.547703
41124	-3.889616	10.319501	1.530663	0.571880	0.334168	0.510603	-0.548242
41125	-8.083105	7.257842	5.497648	0.568926	0.335533	0.526057	-0.535729
41126	-15.110334	2.130681	8.264645	0.567807	0.331023	0.546970	-0.518500
41127	-18.805012	-3.035492	7.461797	0.572485	0.319509	0.568822	-0.496605
41128	-11.376124	-8.265403	0.370478	0.579849	0.306992	0.586605	-0.474790
41129	-3.815665	-11.435667	-3.895602	0.577775	0.307455	0.598027	-0.462613
41130	-4.153246	-3.704585	-2.468693	0.558534	0.326170	0.605456	-0.463762
41131	-9.263594	4.963818	0.653630	0.535944	0.344882	0.612444	-0.467689
41132	-13.436040	7.919558	1.977414	0.525314	0.345997	0.627064	-0.459480
41133	-13.738649	4.960634	-0.023865	0.524181	0.335138	0.644568	-0.444354
41134	-8.579362	0.729515	-1.246057	0.532832	0.313837	0.664083	-0.420226
41135	-7.376765	-4.369048	-4.015501	0.537898	0.296196	0.682792	-0.395889
41136	-9.294034	-6.624891	-3.980990	0.532695	0.289167	0.696936	-0.383273
41137	-9.336935	-1.705876	-1.524286	0.521139	0.289110	0.707180	-0.380428
41138	-10.529472	3.037696	0.536425	0.509426	0.289035	0.716597	-0.378725
41139	-11.124415	4.536710	1.276371	0.506488	0.279341	0.728355	-0.367340
41140	-12.250911	1.256870	-0.134325	0.506735	0.268548	0.737351	-0.356954
41141	-15.330733	1.871981	3.907275	0.508381	0.257481	0.743535	-0.349869
41142	-16.642323	1.154196	2.842328	0.517495	0.242020	0.745872	-0.342491
41143	-17.335012	-0.760518	4.456980	0.528641	0.229944	0.743319	-0.339325
41144	-15.483100	-3.381626	2.761318	0.545542	0.215089	0.738310	-0.333196
41145	-13.100608	-4.877326	-0.007077	0.561632	0.202010	0.731595	-0.329439
41146	-11.340086	-3.139512	-0.890682	0.577098	0.193772	0.720412	-0.332289
41147	-10.673116	-4.267717	-1.939344	0.596139	0.180648	0.709644	-0.329226
41148	-10.086771	-6.285077	-4.001401	0.617473	0.165174	0.697843	-0.323204
41149	-11.713239	-7.131310	-2.400039	0.635712	0.151407	0.688672	-0.314129
41150	-10.637196	-1.876473	-2.304499	0.654872	0.140991	0.678005	-0.302612
41151	-9.112757	3.497970	-2.073927	0.673240	0.138977	0.664662	-0.292675
41152	-9.080809	3.555758	-3.088767	0.694146	0.134120	0.650379	-0.277814
41153	-9.913982	-1.712138	-4.819142	0.714327	0.131741	0.634133	-0.265061
41154	-11.941605	-5.072655	-2.315538	0.732553	0.133757	0.615799	-0.257424
41155	-10.776297	-4.112499	1.707083	0.753337	0.134339	0.593394	-0.249640
41156	-7.838644	-3.225019	0.419517	0.776004	0.132058	0.568814	-0.238390
41157	-5.688842	-2.457319	-1.365870	0.795643	0.136449	0.542950	-0.231384
41158	-5.558887	-0.569666	-0.260444	0.813437	0.143731	0.515579	-0.227682
41159	-4.318000	0.636151	0.450481	0.832240	0.145160	0.487216	-0.221190
41160	-2.565983	-0.225716	0.251896	0.851579	0.138826	0.459694	-0.210290
41161	-0.252831	-0.472702	-1.366891	0.870403	0.130345	0.431503	-0.198024
41162	1.937368	1.189430	-2.814909	0.887605	0.120107	0.404408	-0.184894
41163	0.934802	0.750120	1.493315	0.901516	0.121763	0.375266	-0.177814
41164	-0.950185	1.949147	5.455712	0.913161	0.130574	0.346887	-0.169580
41165	0.133389	-5.743414	-4.239996	0.927689	0.119603	0.320608	-0.149331
41166	-0.836592	-6.048175	-1.816964	0.934793	0.135674	0.295041	-0.143894
41167	-11.274860	20.589724	19.292221	0.935447	0.184564	0.264672	-0.144303
41168	-17.073549	3.135800	1.185222	0.954162	0.134181	0.240965	-0.116218
41169	-1.993002	-10.788898	4.285033	0.962509	0.134039	0.210017	-0.107252
41170	-1.677772	-1.332235	4.817321	0.968101	0.141144	0.180877	-0.100709
41171	-8.545383	7.505789	8.700323	0.970918	0.155292	0.153800	-0.097719
41172	-9.124862	3.982364	11.784381	0.979030	0.132985	0.125708	-0.089510
41173	-7.070340	-4.202762	8.011800	0.984485	0.119419	0.096289	-0.085184
41174	-7.748412	-1.315723	11.814669	0.987344	0.116664	0.066623	-0.084283
41175	-7.125045	2.328632	10.055758	0.988919	0.115841	0.036795	-0.085239
41176	-5.563654	11.849288	12.953164	0.990022	0.110370	0.006406	-0.087378
41177	-1.249080	7.499299	12.806520	0.992775	0.075494	-0.023497	-0.090254
41178	3.538739	-3.909208	11.030596	0.993106	0.045011	-0.052702	-0.094532
41179	6.617429	-2.601136	12.018697	0.991439	0.038907	-0.077498	-0.097612
41180	7.441880	6.606603	16.841750	0.989639	0.033316	-0.097942	-0.099555
41181	8.935015	0.186390	15.464360	0.988313	0.008266	-0.111902	-0.103187
41182	8.943484	-6.007183	15.811910	0.987175	-0.003665	-0.119174	-0.106159
41183	7.655852	-3.919312	18.499251	0.986801	-0.005009	-0.120159	-0.108442
41184	6.584036	-2.681606	18.527099	0.987077	-0.005044	-0.114715	-0.111777
41185	4.575222	-3.623932	19.161704	0.987763	-0.003459	-0.103836	-0.116322
41186	3.648356	-3.370922	17.759420	0.988612	0.003331	-0.088276	-0.121827
41187	1.677441	-1.410566	17.516822	0.989128	0.008755	-0.069403	-0.129356
41188	1.082770	-3.060482	14.066682	0.989050	0.011615	-0.048733	-0.138815
41189	0.445445	-1.720670	12.310213	0.988218	0.019870	-0.026909	-0.149351
41190	0.011014	-0.647211	10.610988	0.986615	0.030076	-0.004663	-0.160200
41191	-0.273518	1.798463	10.191983	0.984068	0.045341	0.017737	-0.170997
41192	-0.340239	2.818910	9.039406	0.980845	0.057226	0.041022	-0.181622
41193	-1.312903	3.544909	7.843441	0.976553	0.071728	0.065197	-0.192223
41194	-2.071012	3.944273	7.924839	0.971645	0.082871	0.090427	-0.202143
41195	-2.958703	3.601940	7.609808	0.965805	0.095090	0.116106	-0.211418
41196	-4.397664	3.566888	7.716097	0.959360	0.105840	0.142019	-0.219673
41197	-5.213754	1.773272	6.943996	0.952097	0.116827	0.167839	-0.227360
41198	-6.096260	1.784354	7.777539	0.943168	0.133077	0.192738	-0.235749
41199	-7.801913	2.847566	8.178482	0.933184	0.148952	0.217399	-0.244374
41200	-8.700740	1.118259	6.870520	0.922921	0.158890	0.242323	-0.253478
41201	-9.390959	-0.877681	6.074805	0.911621	0.167124	0.267449	-0.263605
41202	-10.145746	-0.323573	6.415244	0.898208	0.178203	0.292254	-0.275778
41203	-10.572595	1.895827	7.242381	0.885339	0.182897	0.318167	-0.285471
41204	-8.916696	2.337113	6.642950	0.874226	0.180363	0.343993	-0.291320
41205	-5.071791	2.040213	4.205075	0.864047	0.173577	0.369736	-0.294262
41206	-0.034817	0.977823	2.702502	0.852560	0.170134	0.393984	-0.298283
41207	3.363239	-0.106853	2.696883	0.839949	0.171132	0.416518	-0.302841
41208	2.820111	-1.608413	2.068224	0.825417	0.178489	0.438297	-0.307774
41209	-0.367063	-0.381162	2.304888	0.808643	0.194506	0.458365	-0.313313
41210	-3.391742	0.560225	1.211672	0.793403	0.207876	0.477824	-0.314618
41211	-4.650564	-1.765149	-0.047385	0.778871	0.218877	0.496648	-0.314315
41212	-4.191084	-2.630748	-2.297208	0.764984	0.228153	0.512489	-0.316387
41213	-3.079918	-4.485696	-7.700504	0.748546	0.240073	0.528169	-0.321064
41214	-3.938183	-3.925487	-7.170342	0.726120	0.257909	0.547800	-0.325804
41215	-5.814681	-2.205008	-6.542041	0.700277	0.281167	0.566780	-0.330633
41216	-11.721020	4.841393	-3.801107	0.666480	0.310109	0.586006	-0.340930
41217	-19.806007	12.282873	7.834465	0.643440	0.326483	0.600230	-0.345134
41218	-23.091617	8.210540	8.727622	0.635020	0.318124	0.620123	-0.333158
41219	-22.373532	-3.929368	8.820201	0.635173	0.306049	0.631755	-0.322140
41220	-23.379617	-7.723154	12.160017	0.632914	0.311145	0.626854	-0.331153
41221	-16.125941	-6.915306	4.928875	0.640593	0.307256	0.615743	-0.340726
41222	-7.045826	-14.009748	-9.231408	0.649046	0.302757	0.598558	-0.358896
41223	-3.792075	-6.963337	-9.977258	0.632854	0.325576	0.578388	-0.398702
41224	-7.445398	1.186063	-9.461648	0.606024	0.356554	0.558615	-0.439947
41225	-10.557966	16.015300	-2.668700	0.571412	0.393989	0.536145	-0.480427
41226	-13.362299	23.025750	2.502803	0.562495	0.399210	0.530751	-0.492477
41227	-10.615200	12.095944	5.080991	0.560153	0.396470	0.531434	-0.496606
41228	-8.054626	8.591317	6.261836	0.564011	0.386467	0.535520	-0.495734
41229	-6.699067	3.414035	5.325099	0.572507	0.369897	0.542794	-0.490700
41230	-3.059348	2.061053	3.683231	0.578546	0.356275	0.546102	-0.490027
41231	-2.176837	1.860585	4.052511	0.579808	0.347532	0.550696	-0.489672
41232	-3.508554	4.177613	2.454302	0.576667	0.344664	0.554126	-0.491535
41233	-7.725132	8.086441	4.263519	0.569954	0.343240	0.561408	-0.492097
41234	-10.656675	4.783119	3.779672	0.568810	0.335774	0.571038	-0.487469
41235	-11.459011	2.332262	-0.798147	0.568204	0.328569	0.579979	-0.482504
41236	-8.249219	4.845079	-3.205804	0.569162	0.317844	0.591190	-0.474894
41237	-8.255287	2.783963	-1.711637	0.569764	0.302351	0.611972	-0.457650
41238	-10.361102	-1.454225	-2.756273	0.568552	0.286774	0.635336	-0.436873
41239	-12.828492	-3.177901	-3.601860	0.562466	0.277184	0.656625	-0.419099
41240	-12.679419	-1.927858	-0.553854	0.555351	0.270531	0.674905	-0.403611
41241	-11.318354	-2.038195	-0.347879	0.550497	0.260331	0.694268	-0.383630
41242	-10.742648	-2.172946	-1.690499	0.546564	0.248815	0.712138	-0.363620
41243	-10.806574	-2.481258	-2.194735	0.545580	0.230860	0.731203	-0.338213
41244	-9.239454	-5.965471	-1.800507	0.549397	0.205853	0.750091	-0.305207
41245	-7.169987	-9.310885	-5.720315	0.552817	0.181899	0.765299	-0.274998
41246	-8.082988	-9.687576	-5.987276	0.549756	0.162470	0.779464	-0.252602
41247	-8.038057	-10.235823	-5.440459	0.547317	0.144495	0.792010	-0.228661
41248	-7.272980	-8.019286	-6.074178	0.544884	0.129625	0.802546	-0.205472
41249	-6.603937	-2.985856	-6.511299	0.542538	0.116615	0.810333	-0.188188
41250	-7.961087	-2.971336	-6.032496	0.540842	0.098038	0.819334	-0.163005
41251	-8.720658	-7.305534	-9.217959	0.539043	0.079941	0.826841	-0.139197
41252	-8.538797	-5.965803	-8.801665	0.534091	0.071569	0.832109	-0.131219
41253	-9.087678	-1.690263	-8.171693	0.527624	0.068117	0.836578	-0.130805
41254	-11.373030	-0.364362	-7.777217	0.521759	0.061645	0.841696	-0.124563
41255	-13.158293	-2.854395	-7.452580	0.518347	0.052648	0.846102	-0.112500
41256	-14.396933	-8.556441	-7.430787	0.515804	0.045667	0.849393	-0.101940
41257	-12.927787	-10.549000	-7.769851	0.516109	0.045190	0.848971	-0.104102
41258	-11.419793	-7.591446	-6.700647	0.516928	0.050286	0.846552	-0.116650
41259	-10.544129	-4.881034	-6.492890	0.518907	0.057401	0.842346	-0.133768
41260	-9.999502	-3.235865	-6.245127	0.520937	0.067031	0.836878	-0.154167
41261	-10.338650	-2.464844	-5.968187	0.523211	0.077465	0.830687	-0.173808
41262	-9.881156	-4.360030	-5.976696	0.526224	0.090223	0.822889	-0.194425
41263	-10.672913	-5.579042	-4.422451	0.531288	0.105096	0.812144	-0.217048
41264	-9.901766	-7.399805	-5.395504	0.539048	0.120861	0.797462	-0.242639
41265	-9.314023	-7.684997	-5.488095	0.547301	0.138491	0.778830	-0.273322
41266	-9.933258	-7.518679	-5.186189	0.555951	0.157791	0.756191	-0.306914
41267	-9.360419	-6.770186	-6.851921	0.565276	0.177982	0.729245	-0.342034
41268	-9.471883	-7.048960	-7.865815	0.574961	0.196628	0.700003	-0.375170
41269	-8.234034	-6.335827	-11.599565	0.582580	0.218976	0.664997	-0.412832
41270	-8.380814	0.101702	-9.954790	0.580690	0.253128	0.621562	-0.460853
41271	-7.186118	5.044958	-6.596210	0.576903	0.283898	0.577335	-0.503258
41272	-4.794205	7.206450	-3.828353	0.577694	0.297985	0.547574	-0.526913
41273	-1.897032	0.307458	-2.821397	0.587121	0.292027	0.536451	-0.531253
41274	2.046431	-7.034927	-8.118682	0.591710	0.289589	0.520247	-0.543470
41275	1.632943	-3.560107	-4.575582	0.579906	0.305589	0.495503	-0.569913
41276	-2.303853	-2.299717	0.322519	0.568234	0.322780	0.469949	-0.593357
41277	-4.723284	-2.741173	-0.765523	0.551098	0.345741	0.437186	-0.620985
41278	-4.596893	5.440071	-2.538393	0.517321	0.386125	0.391622	-0.655682
41279	-11.419090	22.231222	9.760513	0.497622	0.408513	0.360250	-0.675062
41280	-12.909532	13.198081	4.798791	0.495618	0.414032	0.343864	-0.681688
41281	-14.486828	7.641365	8.857728	0.504966	0.404422	0.338911	-0.683076
41282	-10.248380	-4.999238	3.628745	0.521350	0.381453	0.338473	-0.684196
41283	-4.248567	-14.024452	-0.373783	0.520941	0.374563	0.324106	-0.695182
41284	-6.176625	0.950240	5.172009	0.493160	0.399884	0.284403	-0.718332
41285	-16.365659	18.047692	17.082814	0.485369	0.403543	0.265083	-0.728904
41286	-13.652264	1.338541	1.717573	0.490290	0.391556	0.260115	-0.733921
41287	-3.862285	-0.649356	4.485786	0.495649	0.382472	0.255004	-0.736899
41288	-2.896055	2.487320	4.896568	0.490661	0.386663	0.245058	-0.741411
41289	-9.242578	7.270389	10.259632	0.488506	0.387991	0.244633	-0.742280
41290	-10.441071	0.747793	5.465000	0.490046	0.385988	0.250314	-0.740412
41291	-9.752947	4.196977	5.150979	0.486773	0.392381	0.247177	-0.740266
41292	-8.211648	3.052088	2.978942	0.490090	0.393043	0.253299	-0.735641
41293	-8.314171	1.447242	4.569879	0.491194	0.398545	0.256992	-0.730648
41294	-9.418523	-0.371655	6.733147	0.495059	0.400408	0.265287	-0.724026
41295	-9.700113	-3.094030	6.415185	0.498255	0.402036	0.272610	-0.718188
41296	-8.621356	-3.051874	6.497028	0.498969	0.404298	0.277634	-0.714488
41297	-7.541672	-1.238033	6.604527	0.498526	0.405558	0.282813	-0.712047
41298	-7.208858	-1.165999	5.853747	0.498989	0.404402	0.289515	-0.709683
41299	-6.524692	-0.294135	4.877659	0.497581	0.405937	0.293108	-0.708318
41300	-6.368914	2.838307	4.733593	0.495307	0.410182	0.294374	-0.706941
41301	-6.145734	7.222774	5.350520	0.493771	0.415921	0.297545	-0.703325
41302	-7.335108	8.374358	5.118287	0.496617	0.418439	0.308002	-0.695280
41303	-8.120919	5.544918	4.871176	0.500436	0.419390	0.321118	-0.685973
41304	-7.621195	5.824752	4.975479	0.504065	0.419753	0.336800	-0.675494
41305	-8.265996	6.201085	3.015076	0.508029	0.419951	0.356002	-0.662427
41306	-8.505973	6.626255	1.775630	0.512752	0.419403	0.377880	-0.646833
41307	-8.779255	9.265382	1.065006	0.519022	0.416921	0.405202	-0.626582
41308	-9.365654	8.501152	-1.828172	0.527610	0.410389	0.437971	-0.601157
41309	-9.714854	8.479230	-3.512015	0.536176	0.400663	0.474542	-0.571660
41310	-10.314011	8.522367	-3.493361	0.547350	0.384485	0.514358	-0.536670
41311	-9.891886	6.930809	-4.619066	0.560824	0.359862	0.556363	-0.496423
41312	-8.063329	3.604695	-7.532087	0.577683	0.322822	0.600844	-0.448392
41313	-5.114009	-2.903306	-13.352510	0.597525	0.270415	0.647244	-0.388477
41314	-2.897501	-10.511424	-16.313997	0.605193	0.223830	0.686498	-0.335204
41315	-2.937211	-10.476442	-11.576617	0.602983	0.181953	0.722310	-0.285611
41316	-3.999428	-12.219312	-8.898491	0.595564	0.140586	0.755957	-0.232526
41317	-6.415636	-6.846732	-8.356804	0.582463	0.111467	0.779830	-0.200440
41318	-6.766451	-4.724042	-7.503667	0.572424	0.082598	0.798682	-0.166180
41319	-6.777003	-10.747177	-5.443878	0.563886	0.053206	0.814009	-0.128806
41320	-7.576996	-9.933899	-2.694469	0.555995	0.032855	0.823688	-0.106437
41321	-8.815118	-8.716604	-5.465884	0.550286	0.016959	0.830051	-0.088954
41322	-11.934046	-7.041458	-4.598407	0.545540	0.009166	0.833864	-0.083511
41323	-12.748969	-4.251937	-3.852871	0.544544	0.004165	0.834769	-0.081329
41324	-11.399761	-2.516799	-5.650774	0.546719	0.001345	0.833650	-0.078258
41325	-12.743147	-2.109764	-6.231400	0.548845	0.001865	0.832236	-0.078418
41326	-14.045176	-0.173596	-7.117246	0.550471	0.006302	0.830442	-0.085489
41327	-14.021269	1.993439	-6.427646	0.552826	0.010177	0.828412	-0.089517
41328	-14.113846	-0.516357	-7.229276	0.555362	0.009763	0.827292	-0.084059
41329	-13.919083	-2.903873	-7.648295	0.556934	0.011836	0.826322	-0.082923
41330	-13.611967	-3.068229	-7.532854	0.557266	0.015134	0.825758	-0.085727
41331	-12.742371	-3.049916	-6.599134	0.557552	0.018303	0.825143	-0.089101
41332	-12.851905	-3.443552	-5.223843	0.557073	0.022002	0.824884	-0.093553
41333	-12.327293	-3.969723	-5.353947	0.557225	0.025315	0.824159	-0.098091
41334	-13.309319	-3.638817	-3.067685	0.556517	0.031562	0.823227	-0.107658
41335	-14.441413	-2.525455	-0.906530	0.557995	0.037766	0.820531	-0.118089
41336	-14.323318	-3.072860	0.168832	0.563134	0.042100	0.815570	-0.126311
41337	-13.445934	-4.733694	0.185364	0.571358	0.044446	0.808751	-0.132273
41338	-12.551715	-7.185691	-0.412872	0.582830	0.046577	0.799126	-0.139773
41339	-11.275004	-7.154521	-1.085106	0.595289	0.052619	0.786542	-0.155605
41340	-10.688576	-4.589407	-1.898411	0.610468	0.060967	0.770140	-0.174631
41341	-9.652361	-3.499261	-3.713229	0.627236	0.069514	0.751451	-0.192521
41342	-7.787381	-2.467625	-6.131804	0.645483	0.076634	0.730726	-0.208611
41343	-5.982956	-2.889417	-5.515347	0.660372	0.086405	0.711049	-0.225503
41344	-6.093466	-3.790452	-5.369082	0.672935	0.097238	0.691784	-0.243182
41345	-6.650476	-4.558265	-4.843614	0.681557	0.110596	0.673650	-0.263524
41346	-5.882979	-3.206621	-5.397723	0.689088	0.124867	0.654530	-0.284879
41347	-3.803516	-1.476004	-5.381826	0.693740	0.142818	0.635096	-0.308190
41348	-2.847814	1.769468	-4.190462	0.693691	0.168530	0.614289	-0.336213
41349	-1.773483	8.087716	-1.299189	0.690454	0.195201	0.595173	-0.361856
41350	-2.908862	8.987598	1.446735	0.693425	0.196636	0.590341	-0.363309
41351	-4.545584	3.006869	0.132898	0.699034	0.183768	0.595473	-0.350703
41352	-6.172543	0.229554	3.293492	0.704609	0.170966	0.600539	-0.337120
41353	-6.100859	-1.847423	5.141567	0.710458	0.162188	0.601173	-0.327927
41354	-6.752219	-5.596101	10.828950	0.717785	0.150174	0.599185	-0.321263
41355	-5.158056	-8.945260	4.799559	0.729581	0.123100	0.600763	-0.302724
41356	-3.882607	-13.272114	-5.041334	0.734746	0.119638	0.599325	-0.294353
41357	-7.796155	-7.644254	2.087248	0.730007	0.144607	0.597041	-0.299533
41358	-14.105442	-3.066732	6.267133	0.731065	0.163183	0.592804	-0.295801
41359	-14.065808	4.174238	3.666348	0.730058	0.194267	0.580177	-0.304418
41360	-8.444076	13.919080	-2.261377	0.730368	0.215220	0.569984	-0.308807
41361	-8.456166	10.761191	5.573465	0.739254	0.212061	0.566990	-0.295053
41362	-7.597157	4.035604	2.370605	0.750911	0.194797	0.567883	-0.275130
41363	-11.258595	-3.946084	3.816163	0.762164	0.172532	0.570818	-0.252002
41364	-15.959240	-9.636039	-0.437142	0.772568	0.157881	0.568746	-0.233967
41365	-13.631980	-5.953590	-2.284012	0.776452	0.168116	0.558706	-0.238134
41366	-9.388458	1.686411	3.107675	0.777789	0.184545	0.548010	-0.246320
41367	-8.859686	0.749247	2.321672	0.785971	0.180261	0.540984	-0.238937
41368	-8.798678	0.573766	-0.752531	0.788108	0.193442	0.531591	-0.242643
41369	-10.772569	10.490671	4.514044	0.789328	0.207760	0.522794	-0.245935
41370	-11.453472	6.837519	0.875940	0.797431	0.200144	0.518519	-0.234915
41371	-10.873309	3.925921	1.552750	0.804096	0.196922	0.513116	-0.226635
41372	-9.467479	3.088378	0.409133	0.810819	0.193650	0.507559	-0.217845
41373	-9.004349	4.429998	2.261839	0.815785	0.194342	0.502477	-0.210340
41374	-9.878605	3.342649	4.419526	0.821736	0.190134	0.498822	-0.199440
41375	-10.054722	1.481485	3.882857	0.827444	0.186733	0.494094	-0.190628
41376	-9.696912	0.807790	5.557489	0.832727	0.182200	0.489520	-0.183685
41377	-8.490455	-0.330229	4.858620	0.838716	0.175038	0.484023	-0.177875
41378	-7.188707	-0.170718	5.217497	0.843716	0.170690	0.477893	-0.175005
41379	-7.334151	-0.181482	4.479060	0.848420	0.165810	0.472143	-0.172543
41380	-8.215480	0.958666	4.982887	0.852224	0.164407	0.465598	-0.172926
41381	-8.115355	2.340330	6.163137	0.857034	0.159384	0.458429	-0.173010
41382	-7.554521	0.722369	4.169471	0.863024	0.150334	0.450340	-0.172579
41383	-6.883010	0.554667	4.656509	0.868072	0.145932	0.441123	-0.174831
41384	-7.541284	0.447091	4.685023	0.873821	0.139485	0.431374	-0.175777
41385	-8.865728	-0.163862	5.269698	0.879147	0.135633	0.420642	-0.178225
41386	-9.459286	-0.337781	5.481497	0.885103	0.130062	0.408486	-0.181149
41387	-9.658633	-1.040517	5.032240	0.891701	0.122975	0.394403	-0.184913
41388	-10.418325	-1.968069	5.965993	0.898200	0.114354	0.380128	-0.188848
41389	-10.799668	-3.497927	5.602897	0.904453	0.106190	0.364800	-0.193934
41390	-10.954378	-1.895951	5.572318	0.909766	0.102459	0.348173	-0.201504
41391	-9.995722	0.605566	7.158739	0.914958	0.096785	0.331346	-0.209033
41392	-8.401597	1.571300	6.766293	0.920284	0.086433	0.315003	-0.215358
41393	-6.396471	1.096038	7.465141	0.925441	0.071743	0.299204	-0.221109
41394	-4.128043	-1.020460	7.578911	0.929964	0.057005	0.283337	-0.227240
41395	-2.773101	-2.345849	5.934138	0.933204	0.049059	0.266588	-0.235913
41396	-0.623443	2.572416	6.343195	0.935492	0.049287	0.249057	-0.245757
41397	2.525179	5.795280	7.201090	0.937741	0.047267	0.233605	-0.252659
41398	0.984879	5.590898	9.136932	0.940102	0.041079	0.222002	-0.255414
41399	-1.609767	3.602980	9.849527	0.943156	0.031711	0.211406	-0.254477
41400	-2.610640	0.561601	9.178458	0.946325	0.023967	0.201107	-0.251893
41401	-1.910036	-0.850085	7.941734	0.949467	0.020418	0.191027	-0.248203
41402	-2.571589	-0.194163	9.899495	0.952314	0.020770	0.181745	-0.244202
41403	-3.075164	-0.047890	10.554318	0.954858	0.022916	0.173303	-0.240180
41404	-3.157866	-0.166740	11.078377	0.957108	0.022272	0.166144	-0.236316
41405	-3.807846	-1.467825	11.061681	0.958883	0.019728	0.160297	-0.233364
41406	-4.130970	-3.195138	11.363932	0.960223	0.016378	0.155433	-0.231398
41407	-3.211889	-3.370738	11.730992	0.961049	0.015655	0.151170	-0.230839
41408	-1.892473	-2.010123	12.156105	0.961389	0.016536	0.148128	-0.231335
41409	-1.748432	-1.135486	12.322933	0.961313	0.017235	0.146940	-0.232355
41410	-1.251570	-1.067780	11.870993	0.960854	0.018791	0.147518	-0.233760
41411	-1.298875	-0.667406	11.969137	0.960055	0.020860	0.150003	-0.235285
41412	-1.303965	-0.721539	11.620704	0.958926	0.023402	0.154060	-0.237021
41413	-1.525041	-0.960847	11.467335	0.957463	0.026533	0.159758	-0.238826
41414	-1.663445	-0.947731	11.272662	0.955680	0.030984	0.166796	-0.240614
41415	-2.418172	-0.752269	11.197981	0.953550	0.036973	0.175263	-0.242196
41416	-3.083206	-0.222431	11.043257	0.950994	0.044814	0.184939	-0.243722
41417	-3.984573	0.516894	11.120137	0.947932	0.053293	0.196091	-0.245219
41418	-4.875167	0.359627	10.826522	0.944371	0.060825	0.208887	-0.246637
41419	-5.574595	-0.037201	10.613549	0.940198	0.068091	0.222960	-0.248355
41420	-5.602734	0.250139	10.287156	0.935283	0.076080	0.237982	-0.250642
41421	-5.504533	1.070531	10.537219	0.929516	0.084167	0.254924	-0.252844
41422	-5.331890	1.457731	9.242218	0.922807	0.094090	0.272539	-0.255533
41423	-5.041116	2.068810	8.091649	0.915880	0.101729	0.291336	-0.256786
41424	-6.289783	0.792911	7.799380	0.908395	0.107370	0.312358	-0.256363
41425	-7.860912	1.085682	7.034918	0.899542	0.115336	0.334593	-0.256066
41426	-8.762276	1.156054	5.813770	0.889836	0.122564	0.358298	-0.254545
41427	-9.056859	0.998136	4.109731	0.879353	0.128984	0.382925	-0.251932
41428	-8.560422	1.090357	3.245477	0.868323	0.134068	0.407769	-0.248525
41429	-8.266364	1.106321	2.777328	0.856984	0.137079	0.432809	-0.243851
41430	-7.898059	0.846399	1.856320	0.845616	0.138139	0.457718	-0.237374
41431	-7.679481	0.773596	1.131110	0.833873	0.139674	0.481929	-0.229982
41432	-7.249027	1.787901	1.670646	0.821654	0.141681	0.505852	-0.221190
41433	-7.254543	1.527604	1.729497	0.809329	0.139211	0.530918	-0.209122
41434	-7.242117	0.737191	1.289858	0.797343	0.132516	0.555377	-0.195550
41435	-7.254749	-0.701433	1.775161	0.785582	0.121410	0.579161	-0.180814
41436	-6.638306	-2.274513	2.897493	0.774162	0.109689	0.600506	-0.167431
41437	-5.631673	-0.535375	3.851387	0.761871	0.107591	0.619000	-0.157528
41438	-5.884622	2.643087	3.694694	0.750461	0.109065	0.635300	-0.145972
41439	-6.120159	0.746828	1.315321	0.741005	0.103351	0.651525	-0.125479
41440	-9.179914	-6.048853	2.609890	0.733154	0.088708	0.666900	-0.099300
41441	-11.176025	-9.547807	5.714675	0.725530	0.086926	0.676825	-0.089205
41442	-10.235633	-4.383928	6.905855	0.719886	0.095395	0.681451	-0.091040
41443	-7.305474	-7.042916	0.289058	0.719086	0.094445	0.683312	-0.084144
41444	-9.118779	-10.729062	-2.341781	0.712807	0.108443	0.686925	-0.090995
41445	-13.242042	-3.389661	-0.487873	0.700906	0.135721	0.691299	-0.111433
41446	-12.780724	4.290083	-0.325111	0.693530	0.159959	0.689512	-0.134169
41447	-10.240020	7.504533	0.360214	0.690799	0.165116	0.690019	-0.139312
41448	-8.674670	7.448283	-0.587336	0.689568	0.167500	0.690227	-0.141513
41449	-8.755746	6.025354	-1.293758	0.689488	0.164975	0.691556	-0.138349
41450	-9.472951	3.866818	-1.493750	0.688661	0.162729	0.693399	-0.135880
41451	-10.141404	3.151727	-2.077108	0.687670	0.157952	0.696299	-0.131642
41452	-10.183456	2.501294	-1.022822	0.686102	0.153426	0.699486	-0.128229
41453	-9.017200	2.649344	-0.264827	0.684688	0.148169	0.702707	-0.124303
41454	-9.196685	3.277752	0.575993	0.682654	0.142811	0.706533	-0.120000
41455	-9.180991	1.868803	0.070757	0.681062	0.136099	0.710352	-0.114157
41456	-9.181563	1.770805	0.003057	0.678205	0.130634	0.714781	-0.109821
41457	-9.632575	2.956880	0.847248	0.675045	0.123271	0.719941	-0.103936
41458	-9.496544	2.603602	1.005650	0.671748	0.112574	0.725959	-0.095214
41459	-9.313882	2.172312	1.304151	0.667959	0.100780	0.732332	-0.085815
41460	-9.127599	2.594064	2.145270	0.663827	0.089182	0.738593	-0.076556
41461	-9.079370	2.930263	3.285516	0.659509	0.077227	0.744662	-0.067536
41462	-10.310913	3.079011	4.705741	0.654625	0.065891	0.750661	-0.060265
41463	-11.136073	4.086363	5.158190	0.652404	0.053662	0.754137	-0.052595
41464	-12.513914	3.851024	5.113986	0.653768	0.040915	0.754306	-0.043995
41465	-13.633925	4.322907	6.705998	0.658913	0.027270	0.750978	-0.033507
41466	-16.655204	4.886697	9.651122	0.668034	0.010624	0.743809	-0.019124
41467	-18.522755	6.163761	11.900598	0.683719	-0.014137	0.729595	0.004461
41468	-20.788753	6.409763	11.770010	0.705451	-0.044481	0.706507	0.034758
41469	-24.871608	6.240413	9.993965	0.730448	-0.077853	0.674781	0.071097
41470	-27.167615	-0.238638	2.183006	0.753924	-0.117355	0.635711	0.117036
41471	-22.277672	-5.104361	-10.184508	0.777037	-0.144036	0.593295	0.153193
41472	-19.423772	-1.416808	1.741464	0.799111	-0.141588	0.560347	0.165485
41473	-22.145612	1.900914	2.532477	0.819438	-0.144888	0.522956	0.184513
41474	-31.429244	4.566892	6.541494	0.840339	-0.132306	0.485700	0.201048
41475	-24.011628	1.634357	6.462117	0.857458	-0.150070	0.433144	0.233733
41476	-17.772771	-5.028044	4.759058	0.875790	-0.150965	0.384224	0.250145
41477	-18.555774	6.634380	8.234618	0.893279	-0.139054	0.340450	0.258477
41478	-18.808590	8.521624	4.536390	0.905130	-0.154221	0.286290	0.273850
41479	-19.538318	11.015183	2.560896	0.914838	-0.174093	0.226428	0.285471
41480	-14.416056	6.920895	0.800949	0.915185	-0.222167	0.154079	0.298895
41481	-5.781476	-4.745048	-5.092233	0.908352	-0.272487	0.079839	0.307038
41482	-2.018864	-0.671911	-2.545271	0.908316	-0.285054	0.027465	0.304879
41483	-4.806538	9.567630	1.064319	0.899821	-0.310514	-0.028021	0.305152
41484	-3.692419	6.391400	-5.582978	0.880775	-0.350563	-0.083851	0.307098
41485	0.869176	5.356152	-7.079201	0.856964	-0.392539	-0.130166	0.307543
41486	2.822620	2.931842	-8.170887	0.830557	-0.434772	-0.165261	0.306328
41487	0.835699	-1.169965	-10.110566	0.804412	-0.473923	-0.191952	0.302446
41488	4.390473	0.612142	-8.050278	0.788221	-0.497071	-0.208531	0.296889
41489	6.526927	1.698202	-8.529071	0.778154	-0.514803	-0.215416	0.288184
41490	8.619939	6.028948	-7.319450	0.771020	-0.532169	-0.213753	0.276828
41491	10.300245	3.700045	-6.286386	0.762869	-0.555727	-0.203649	0.260239
41492	9.148951	-0.907391	-7.642559	0.754564	-0.582035	-0.184896	0.240169
41493	6.259277	-1.357406	-9.820079	0.742200	-0.613914	-0.159899	0.216058
41494	7.239473	-3.948507	-12.624880	0.727260	-0.644493	-0.132919	0.195075
41495	1.181451	-11.251530	-17.149343	0.701841	-0.686127	-0.103006	0.161366
41496	-10.720151	-28.111757	-13.565693	0.678178	-0.720478	-0.072755	0.125266
41497	-18.609460	-33.550942	-1.884535	0.662204	-0.742883	-0.046705	0.086192
41498	-29.422494	-43.882533	5.853769	0.657960	-0.750455	-0.030014	0.054815
41499	-21.757108	-28.723248	7.588919	0.670831	-0.739256	-0.036921	0.046083
41500	-4.532677	-2.041573	9.400078	0.703032	-0.707368	-0.055028	0.048473
41501	7.554396	18.353997	16.099593	0.715909	-0.693419	-0.062878	0.051868
41502	5.821973	6.811650	0.229141	0.710171	-0.699324	-0.063868	0.050244
41503	1.335489	-4.175250	-5.196088	0.696072	-0.713641	-0.061990	0.048561
41504	-6.485963	-16.878873	-2.906067	0.684637	-0.724410	-0.063602	0.049569
41505	-2.479456	-8.731626	-3.680263	0.682417	-0.725735	-0.068675	0.053843
41506	-2.154142	-10.103875	-4.165304	0.680577	-0.726713	-0.072332	0.058923
41507	-2.382393	-13.143054	-4.667412	0.677067	-0.729167	-0.075652	0.064592
41508	-0.643336	-11.423986	-4.113730	0.681640	-0.723773	-0.079543	0.072054
41509	0.735184	-8.664731	-0.477726	0.688402	-0.716401	-0.081312	0.079120
41510	-0.559298	-8.393977	0.815937	0.691195	-0.712764	-0.082169	0.086401
41511	-2.299898	-8.331451	4.671960	0.690457	-0.712680	-0.082431	0.092531
41512	-5.979387	-12.310674	6.347474	0.687813	-0.714092	-0.083451	0.100109
41513	-7.208520	-14.271001	3.050614	0.687890	-0.711415	-0.089960	0.112263
41514	-5.515822	-12.728360	1.394162	0.692593	-0.702488	-0.101107	0.128850
41515	-4.318180	-12.360162	0.439889	0.700904	-0.688186	-0.114672	0.148269
41516	-5.021845	-12.666877	0.842780	0.702008	-0.679517	-0.130187	0.168800
41517	-2.124000	-14.550684	-5.438840	0.700474	-0.672069	-0.147956	0.189124
41518	1.297809	-8.656756	-1.527581	0.707507	-0.655476	-0.162647	0.208161
41519	0.722353	-11.152090	-3.509205	0.717128	-0.635810	-0.175372	0.225204
41520	1.070729	-12.150993	-3.236093	0.724725	-0.619023	-0.185832	0.238852
41521	1.263966	-11.332835	-7.738193	0.732900	-0.602439	-0.192688	0.250592
41522	0.542546	-10.317415	-6.390783	0.745353	-0.579992	-0.195707	0.264115
41523	1.958736	-8.307327	-6.762099	0.759215	-0.556024	-0.195380	0.276144
41524	2.697055	-6.816261	-6.119657	0.776560	-0.528688	-0.189095	0.285809
41525	2.816102	-5.931604	-5.777680	0.797263	-0.497479	-0.176288	0.292931
41526	2.800035	-2.887203	-5.491583	0.821406	-0.461965	-0.156350	0.295693
41527	2.187767	-0.446750	-6.097163	0.847012	-0.424943	-0.128473	0.292386
41528	-0.969666	-2.504096	-7.126638	0.865682	-0.401240	-0.097370	0.283055
41529	-4.268003	-3.674069	-6.232326	0.887597	-0.366797	-0.061504	0.271752
41530	-5.673445	2.513142	-4.060378	0.910802	-0.323057	-0.019377	0.256318
41531	-6.724998	3.637978	0.170920	0.927617	-0.286282	0.023774	0.238754
41532	-6.668388	2.596054	2.497232	0.938941	-0.253895	0.068985	0.221739
41533	-6.849715	4.604259	6.174602	0.944774	-0.227105	0.116249	0.205699
41534	-7.028003	6.490914	5.876319	0.945571	-0.208564	0.161073	0.190926
41535	-7.159058	5.808271	10.866778	0.942946	-0.194878	0.203029	0.177915
41536	-7.438902	3.334970	10.129472	0.936610	-0.190599	0.241408	0.167795
41537	-8.058042	0.587861	10.020885	0.929747	-0.183158	0.277213	0.158671
41538	-8.597118	-0.299549	10.705893	0.921775	-0.177916	0.309745	0.150781
41539	-9.344570	-4.077975	9.543229	0.912831	-0.174153	0.340097	0.144029
41540	-9.860009	-4.886011	9.240782	0.905255	-0.160629	0.369790	0.134045
41541	-9.242025	-3.131277	8.956004	0.897916	-0.144260	0.397385	0.122561
41542	-12.022813	-1.715310	9.752416	0.891413	-0.121289	0.423399	0.106799
41543	-12.517716	-1.119391	8.444341	0.883076	-0.112867	0.444936	0.097311
41544	-13.191408	-4.008590	8.130448	0.875608	-0.100396	0.464579	0.086007
41545	-12.299885	-2.169703	11.503182	0.868621	-0.087947	0.481735	0.075465
41546	-11.071030	0.578048	12.176149	0.860684	-0.081835	0.497837	0.068439
41547	-9.978936	-0.181549	8.558093	0.851845	-0.082755	0.512987	0.066003
41548	-11.727458	-1.831139	7.398575	0.841950	-0.081604	0.529682	0.062433
41549	-13.814973	-3.912552	7.270935	0.832345	-0.085520	0.544062	0.062332
41550	-13.321882	-9.065436	6.476156	0.825401	-0.092617	0.553139	0.064593
41551	-11.722330	-10.127038	6.033364	0.821437	-0.088246	0.560308	0.059234
41552	-10.105503	-6.614871	5.782475	0.818549	-0.072584	0.567849	0.047514
41553	-8.288124	-3.512177	3.921818	0.815584	-0.048083	0.575746	0.032034
41554	-5.874277	-0.711888	2.494753	0.810731	-0.018403	0.584950	0.014519
41555	-4.863803	2.349892	1.466822	0.803111	0.010934	0.595722	-0.002810
41556	-8.591542	2.792446	-1.174740	0.791774	0.032577	0.609694	-0.017495
41557	-14.158237	4.433496	6.831457	0.780150	0.055892	0.622150	-0.034217
41558	-15.909612	8.622048	13.384365	0.774459	0.071399	0.627389	-0.038705
41559	-14.454873	8.185316	7.580612	0.771690	0.082838	0.629609	-0.034991
41560	-11.917207	11.239025	3.066182	0.765383	0.094007	0.635891	-0.031515
41561	-11.977798	10.400444	4.115815	0.759019	0.098579	0.643026	-0.026259
41562	-7.679362	4.046123	3.398082	0.756694	0.090985	0.647221	-0.015530
41563	-6.088646	-2.589215	-1.768064	0.754491	0.071390	0.652410	0.002618
41564	-9.212088	-6.720446	-3.496555	0.747264	0.063108	0.661430	0.011150
41565	-12.400797	-2.818068	0.919230	0.738025	0.069326	0.671154	0.008056
41566	-11.064247	-0.883796	-0.357781	0.730865	0.075164	0.678341	0.006323
41567	-8.623055	0.652237	-2.484475	0.722072	0.088523	0.686127	-0.002301
41568	-8.241422	5.103372	-0.904229	0.711582	0.105789	0.694442	-0.014511
41569	-8.988857	5.523876	-1.458227	0.704190	0.109437	0.701362	-0.015200
41570	-9.079754	2.999238	-2.369336	0.698751	0.108792	0.706891	-0.014745
41571	-11.649641	0.311703	-3.842617	0.694617	0.106267	0.711411	-0.010408
41572	-9.652150	1.489364	1.112856	0.688746	0.112279	0.716044	-0.017443
41573	-9.777221	1.785306	-0.381095	0.685443	0.113966	0.718941	-0.017417
41574	-8.460928	0.335718	-4.046710	0.682791	0.122553	0.719914	-0.022372
41575	-10.051278	3.000146	-1.478177	0.676848	0.138493	0.722136	-0.034861
41576	-11.942396	4.164590	-0.673094	0.674869	0.145439	0.722428	-0.038701
41577	-10.125932	1.127550	-3.891046	0.674370	0.150401	0.721710	-0.041709
41578	-9.665089	1.112608	-2.960568	0.671778	0.159373	0.721668	-0.050103
41579	-9.964048	1.283741	-1.904651	0.670605	0.164933	0.721116	-0.055484
41580	-9.439876	1.515651	-3.083810	0.670036	0.171080	0.719739	-0.061318
41581	-9.260095	1.772984	-2.165025	0.669112	0.179441	0.717950	-0.068099
41582	-8.956212	1.143681	-2.605092	0.668142	0.188833	0.715709	-0.075422
41583	-9.512858	1.194040	-3.241344	0.666791	0.199523	0.713041	-0.084579
41584	-10.423790	1.928421	-2.521913	0.665573	0.209746	0.710027	-0.094244
41585	-10.334507	2.518791	-1.437712	0.665807	0.218508	0.705939	-0.102983
41586	-9.394176	1.668466	-1.909534	0.667375	0.226538	0.700718	-0.110838
41587	-8.780159	1.748808	-2.306105	0.667863	0.237519	0.694916	-0.120975
41588	-8.759595	2.939183	-1.738868	0.668247	0.249349	0.688436	-0.131632
41589	-9.974322	3.647292	-1.478933	0.668754	0.260301	0.681826	-0.141861
41590	-10.613159	3.950714	-0.977298	0.670245	0.268992	0.674963	-0.151129
41591	-9.852183	3.831450	-0.493382	0.672876	0.274709	0.668238	-0.158840
41592	-8.767337	3.457194	-0.974442	0.676040	0.278310	0.661999	-0.165140
41593	-8.662485	2.825616	-1.368579	0.678805	0.281310	0.656373	-0.171062
41594	-9.175957	2.217229	-1.395130	0.681317	0.283687	0.651262	-0.176599
41595	-9.637407	1.886463	-0.988947	0.683529	0.286258	0.646052	-0.182925
41596	-9.456052	1.915426	-1.146209	0.686147	0.287884	0.640850	-0.188775
41597	-9.430400	1.950782	-1.100968	0.688086	0.290665	0.635356	-0.195891
41598	-9.247709	2.375959	-0.713079	0.690452	0.292790	0.629501	-0.203172
41599	-8.833057	2.260297	-0.752352	0.692470	0.295652	0.623208	-0.211392
41600	-8.457399	2.799655	-1.267469	0.694251	0.298501	0.617048	-0.219465
41601	-8.500154	3.081202	-1.318854	0.694963	0.302423	0.611326	-0.227703
41602	-8.498281	2.941142	-1.232976	0.695989	0.305729	0.605499	-0.235586
41603	-8.834724	2.119897	-0.533657	0.696169	0.309178	0.600454	-0.243336
41604	-9.564498	1.424546	0.187141	0.696308	0.311657	0.596051	-0.250497
41605	-9.946295	-0.006782	0.086384	0.696366	0.313198	0.592440	-0.256897
41606	-10.451406	-0.805028	-0.060815	0.695807	0.316314	0.588105	-0.264444
41607	-11.187126	-1.574070	0.301306	0.694959	0.319787	0.583856	-0.271810
41608	-11.499184	-3.135509	0.060961	0.693848	0.323753	0.578943	-0.280329
41609	-12.234054	-3.800523	0.518437	0.690614	0.331046	0.572746	-0.292273
41610	-12.650682	-3.127938	1.306269	0.685682	0.340942	0.565348	-0.306562
41611	-12.884186	-2.285655	1.580422	0.679938	0.352177	0.556527	-0.322387
41612	-12.147788	-0.735517	1.696016	0.673997	0.364187	0.545950	-0.339169
41613	-11.313933	0.296130	2.256763	0.668675	0.374976	0.534862	-0.355232
41614	-10.799475	0.824563	2.629623	0.664450	0.383572	0.523787	-0.370170
41615	-11.128448	1.601791	2.906271	0.660934	0.390578	0.512069	-0.385229
41616	-10.823095	1.972836	3.088581	0.659312	0.394336	0.500296	-0.399388
41617	-9.674202	0.723146	1.522665	0.657107	0.397883	0.488750	-0.413550
41618	-8.143624	0.656700	1.203630	0.650393	0.404859	0.478578	-0.429001
41619	-7.391439	1.642831	2.110424	0.642592	0.410642	0.471601	-0.442766
41620	-6.843499	0.555568	0.392502	0.635888	0.413323	0.468131	-0.453502
41621	-6.913535	0.081974	-0.883003	0.627017	0.418152	0.465445	-0.464069
41622	-7.972325	0.669342	-0.309773	0.617655	0.422460	0.465322	-0.472762
41623	-8.732234	0.417826	0.340609	0.609252	0.424687	0.467851	-0.479134
41624	-8.782382	-0.028426	0.166472	0.599670	0.428390	0.470339	-0.485448
41625	-9.120363	-0.769291	0.066637	0.587845	0.435226	0.471342	-0.492802
41626	-9.795322	-0.603477	1.700093	0.573737	0.444999	0.471133	-0.500835
41627	-9.802591	-1.211191	2.358611	0.564744	0.448120	0.474820	-0.504777
41628	-8.002695	-3.434670	-0.857150	0.559316	0.446834	0.480214	-0.506853
41629	-7.828365	-3.853846	-2.501722	0.546780	0.453551	0.481092	-0.513687
41630	-8.793822	-1.308606	-0.154287	0.528762	0.465499	0.479472	-0.523285
41631	-9.816168	-0.820293	-0.519770	0.513016	0.474500	0.478551	-0.531652
41632	-10.397891	-0.741015	-0.784832	0.494915	0.485680	0.474864	-0.541920
41633	-10.714711	0.314268	0.601962	0.477170	0.496619	0.470703	-0.551468
41634	-10.478880	-0.361621	0.169881	0.462178	0.504772	0.468236	-0.558884
41635	-10.001342	-0.440860	-0.185253	0.446569	0.512867	0.465390	-0.566530
41636	-9.670874	-0.564814	-0.138653	0.431273	0.520054	0.462826	-0.573882
41637	-9.411316	-1.108148	-0.277030	0.414131	0.528864	0.457984	-0.582279
41638	-9.820117	-1.047925	0.100655	0.395979	0.538972	0.450845	-0.591142
41639	-10.127045	-0.557273	0.443895	0.376697	0.550377	0.441012	-0.600577
41640	-10.212860	0.517889	-0.122966	0.357536	0.562030	0.429214	-0.609972
41641	-10.065936	1.148635	-0.339653	0.339218	0.572804	0.416467	-0.619178
41642	-9.180436	1.702496	0.890982	0.321792	0.582664	0.404222	-0.627341
41643	-9.014393	1.084149	0.543548	0.308234	0.590631	0.395605	-0.632173
41644	-8.979018	0.509915	0.902217	0.295376	0.598734	0.386501	-0.636308
41645	-9.451905	0.335611	1.344361	0.284726	0.605923	0.378281	-0.639289
41646	-9.837397	-0.088203	1.279308	0.274629	0.613243	0.368306	-0.642544
41647	-9.582508	0.111906	1.567354	0.266116	0.620733	0.356954	-0.645334
41648	-8.785934	0.351820	1.227849	0.258468	0.628816	0.344305	-0.647487
41649	-8.321111	2.526165	0.813269	0.249644	0.638551	0.330200	-0.648767
41650	-8.254143	3.905273	1.522774	0.246746	0.646730	0.322384	-0.645698
41651	-8.159838	2.726690	0.344325	0.248103	0.653743	0.318216	-0.640159
41652	-9.179330	4.059580	0.267946	0.250386	0.661930	0.315055	-0.632373
41653	-11.533251	1.558817	0.099518	0.257881	0.669163	0.319628	-0.619319
41654	-13.975688	-4.042667	0.666579	0.266059	0.672856	0.329944	-0.606312
41655	-15.611835	-7.061429	0.263172	0.270851	0.675257	0.339822	-0.595978
41656	-16.900926	-5.421743	-1.760857	0.263923	0.684334	0.339987	-0.588592
41657	-9.369036	3.033725	-1.272208	0.254047	0.696790	0.331920	-0.582900
41658	-6.489906	6.846089	-2.196722	0.260189	0.703410	0.333432	-0.571261
41659	-7.022513	-3.533024	-3.844347	0.270269	0.706352	0.335913	-0.561413
41660	-11.275583	-0.925232	-4.828522	0.262883	0.714460	0.330314	-0.557971
41661	-8.828035	5.043372	0.065681	0.258017	0.721425	0.323325	-0.555368
41662	-7.454202	-0.611148	-3.049423	0.266759	0.722591	0.325962	-0.548134
41663	-8.642309	-2.775626	-5.293440	0.259628	0.729547	0.319318	-0.546252
41664	-10.580255	4.043403	-2.329884	0.243092	0.738510	0.305383	-0.549773
41665	-9.332556	4.666786	-3.397039	0.247333	0.739884	0.302391	-0.547683
41666	-9.552515	1.365596	-4.126104	0.245054	0.744050	0.293827	-0.547726
41667	-8.748670	3.016716	-3.262072	0.241742	0.748475	0.283840	-0.548435
41668	-8.597561	1.164441	-4.367605	0.238199	0.752555	0.273583	-0.549614
41669	-8.808895	2.397318	-3.583215	0.232267	0.757227	0.262492	-0.551141
41670	-9.005844	2.735876	-3.399936	0.227410	0.761022	0.252505	-0.552605
41671	-9.251134	2.711322	-3.014710	0.223144	0.764277	0.243451	-0.553912
41672	-9.514103	2.289769	-2.744497	0.219918	0.767028	0.235789	-0.554714
41673	-9.565771	1.849933	-2.491394	0.217726	0.769137	0.229229	-0.555408
41674	-9.334540	1.171613	-2.751658	0.215313	0.771076	0.222899	-0.556236
41675	-9.229380	0.822415	-2.679940	0.212476	0.772929	0.216731	-0.557192
41676	-9.153826	0.234316	-2.659118	0.209042	0.774845	0.210367	-0.558268
41677	-8.894113	-0.171126	-3.030082	0.204306	0.777302	0.203006	-0.559329
41678	-9.049437	0.564171	-3.125620	0.197299	0.780728	0.194154	-0.560215
41679	-9.316191	1.498081	-2.786673	0.190132	0.784295	0.185168	-0.560753
41680	-9.169104	2.133318	-2.667486	0.182406	0.787691	0.176226	-0.561440
41681	-9.100362	2.679268	-2.925462	0.175962	0.790483	0.168640	-0.561903
41682	-9.340125	2.933224	-3.092171	0.170534	0.792807	0.162135	-0.562217
41683	-9.235538	2.487481	-3.105096	0.166966	0.794381	0.156965	-0.562533
41684	-8.974241	1.715319	-3.106833	0.163027	0.795960	0.151490	-0.562958
41685	-9.114680	1.281367	-2.692958	0.158421	0.797850	0.145523	-0.563171
41686	-9.043018	1.105230	-2.614088	0.152804	0.800088	0.138655	-0.563280
41687	-9.089846	0.979055	-2.868683	0.147067	0.802247	0.131726	-0.563399
41688	-9.019063	0.859895	-3.212506	0.140412	0.804514	0.124609	-0.563484
41689	-8.895941	1.595551	-3.254933	0.133840	0.806652	0.117999	-0.563449
41690	-8.953022	2.518332	-3.003424	0.128427	0.808475	0.112721	-0.563177
41691	-8.844390	2.738715	-2.971448	0.124444	0.810089	0.108958	-0.562492
41692	-8.870600	2.321450	-2.819652	0.120923	0.811846	0.106071	-0.561277
41693	-8.850765	1.768115	-2.563461	0.117962	0.813733	0.103885	-0.559582
41694	-9.124030	1.629410	-2.323666	0.115212	0.815734	0.102224	-0.557543
41695	-9.327181	1.839935	-2.171068	0.112512	0.817662	0.100969	-0.555495
41696	-9.422820	2.060647	-2.363877	0.109901	0.819505	0.100074	-0.553461
41697	-9.390488	1.793660	-2.653866	0.107776	0.821210	0.099739	-0.551408
41698	-9.291100	1.502856	-2.663687	0.106005	0.822823	0.099757	-0.549340
41699	-9.341833	1.404607	-2.450492	0.103871	0.824373	0.099634	-0.547443
41700	-9.293803	1.329625	-2.610364	0.101328	0.825767	0.099190	-0.545897
41701	-9.085247	0.977519	-3.242631	0.097999	0.827121	0.098202	-0.544632
41702	-8.847315	0.781092	-3.690198	0.094162	0.828597	0.097005	-0.543277
41703	-8.874615	0.684868	-3.771534	0.089600	0.830359	0.095621	-0.541602
41704	-9.057087	0.907052	-3.409222	0.084373	0.832186	0.094087	-0.539903
41705	-9.112038	1.027225	-3.456397	0.078220	0.834025	0.092160	-0.538322
41706	-9.100233	1.444183	-3.337611	0.071815	0.835812	0.090218	-0.536770
41707	-9.293926	2.135664	-3.513048	0.065045	0.837662	0.088117	-0.535095
41708	-9.620171	2.613370	-3.708897	0.058479	0.839360	0.086265	-0.533492
41709	-10.216537	2.517157	-3.954518	0.052344	0.840939	0.085002	-0.531842
41710	-10.324027	2.317813	-3.877645	0.047394	0.842348	0.084720	-0.530119
41711	-10.623805	1.697714	-3.850469	0.042908	0.843658	0.084809	-0.528401
41712	-10.937244	1.294028	-3.775902	0.038866	0.844663	0.085141	-0.527052
41713	-11.032783	0.894172	-3.547888	0.035695	0.845391	0.085833	-0.525997
41714	-11.219009	0.338146	-3.759964	0.033177	0.845685	0.086684	-0.525548
41715	-11.579903	-0.088647	-3.384725	0.031458	0.845235	0.087956	-0.526167
41716	-11.147479	-0.893885	-3.244694	0.030448	0.843835	0.089363	-0.528233
41717	-10.350830	-1.683281	-2.580807	0.029366	0.841608	0.090309	-0.531674
41718	-9.681477	-1.950886	-2.170563	0.027009	0.838692	0.089952	-0.536446
41719	-9.186395	-2.011714	-2.123754	0.023713	0.835059	0.088498	-0.542478
41720	-8.781872	-2.172116	-2.289199	0.019948	0.830448	0.086262	-0.550016
41721	-8.575477	-2.454368	-1.919079	0.016635	0.824943	0.085145	-0.558518
41722	-8.851822	-3.200706	-1.753068	0.014924	0.817468	0.085486	-0.569399
41723	-8.889147	-2.931320	-2.480612	0.011277	0.808842	0.084222	-0.581855
41724	-9.178475	-1.656718	-3.109047	0.005220	0.799757	0.080249	-0.594914
41725	-9.307665	-1.465205	-3.141835	0.001394	0.790333	0.077308	-0.607779
41726	-9.634104	-1.258197	-2.910320	-0.003181	0.780841	0.073036	-0.620438
41727	-9.886427	-1.076338	-3.289042	-0.006889	0.771169	0.068904	-0.632854
41728	-10.217990	-0.287832	-3.865054	-0.011658	0.761779	0.063732	-0.644590
41729	-10.316339	0.444035	-3.654485	-0.014933	0.752694	0.059360	-0.655520
41730	-10.174293	0.405466	-3.713748	-0.016338	0.744434	0.056144	-0.665131
41731	-10.107823	0.354179	-3.706457	-0.016971	0.737274	0.053465	-0.673261
41732	-9.780979	0.646714	-3.199653	-0.015750	0.730955	0.052222	-0.680242
41733	-9.096582	0.728384	-2.652246	-0.012330	0.725383	0.052435	-0.686234
41734	-8.497085	0.663710	-2.452463	-0.008135	0.720724	0.052940	-0.691150
41735	-8.226199	0.311375	-2.602029	-0.003446	0.716821	0.053528	-0.695191
41736	-8.485053	0.430893	-1.915743	0.001652	0.713781	0.054068	-0.698277
41737	-9.188263	0.339830	-1.233050	0.008107	0.711206	0.056155	-0.700690
41738	-9.895688	0.386128	-0.083617	0.017961	0.708156	0.062318	-0.703071
41739	-10.327060	-0.552176	-0.140926	0.029823	0.704001	0.070419	-0.706070
41740	-9.470730	-1.620794	-0.605165	0.040953	0.700005	0.077370	-0.708752
41741	-8.774492	-2.234080	-0.767713	0.047259	0.697469	0.080133	-0.710551
41742	-8.856626	-1.853403	-0.074104	0.051288	0.695909	0.082023	-0.711585
41743	-9.607071	-2.350302	-0.359468	0.054184	0.694494	0.083938	-0.712529
