// Start Time: Unknown
// Update Rate: 60.0Hz
// Filter Profile: human (46.1)
// Option Flags: AHS Disabled ICC Disabled 
// Firmware Version: 4.3.5
PacketCounter	Acc_X	Acc_Y	Acc_Z	Quat_q0	Quat_q1	Quat_q2	Quat_q3
34999	-2.766391	1.954258	9.528225	-0.853907	-0.021465	-0.171142	-0.491012
35000	-2.697597	1.895899	9.498033	-0.853425	-0.021187	-0.171332	-0.491795
35001	-2.543628	1.871341	9.359060	-0.852927	-0.021054	-0.171607	-0.492569
35002	-2.631564	1.898078	9.320675	-0.852415	-0.020935	-0.171880	-0.493363
35003	-2.603545	1.904299	9.263873	-0.851926	-0.020932	-0.172198	-0.494098
35004	-2.704049	1.965659	9.292913	-0.851484	-0.021000	-0.172570	-0.494725
35005	-2.783335	2.146887	9.340209	-0.851064	-0.021013	-0.173021	-0.495291
35006	-2.809691	2.217318	9.387707	-0.850660	-0.020734	-0.173276	-0.495907
35007	-2.878677	2.051473	9.411568	-0.850220	-0.020322	-0.173366	-0.496646
35008	-2.826553	2.104419	9.475117	-0.849791	-0.020129	-0.173684	-0.497277
35009	-2.792573	2.172945	9.500309	-0.849426	-0.019977	-0.173927	-0.497820
35010	-2.813381	2.096184	9.556536	-0.848950	-0.019840	-0.174349	-0.498490
35011	-2.800616	2.090067	9.605374	-0.848377	-0.019463	-0.174511	-0.499424
35012	-2.884510	1.862541	9.693451	-0.847749	-0.018478	-0.173967	-0.500715
35013	-2.747705	1.334720	9.709460	-0.847254	-0.017634	-0.173083	-0.501888
35014	-2.551450	1.401078	9.419441	-0.846866	-0.016997	-0.172021	-0.502929
35015	-2.535820	1.449549	9.426153	-0.846394	-0.016965	-0.171443	-0.503921
35016	-2.659633	1.544804	9.363686	-0.845946	-0.017206	-0.170815	-0.504878
35017	-2.703552	1.705306	9.229320	-0.845537	-0.017733	-0.170388	-0.505688
35018	-2.664622	1.874545	9.361310	-0.845172	-0.018401	-0.170328	-0.506295
35019	-2.667342	1.933730	9.321813	-0.844821	-0.018908	-0.170202	-0.506904
35020	-2.733429	1.857108	9.290527	-0.844387	-0.019246	-0.170171	-0.507624
35021	-2.808697	1.705032	9.378346	-0.843999	-0.019263	-0.170021	-0.508319
35022	-2.778591	1.564963	9.610300	-0.843857	-0.019328	-0.169837	-0.508613
35023	-2.641787	1.695714	9.448558	-0.843953	-0.019820	-0.169688	-0.508485
35024	-2.577951	1.928309	9.197613	-0.844166	-0.020548	-0.169641	-0.508118
35025	-2.534723	1.960710	9.114861	-0.844426	-0.021153	-0.169531	-0.507698
35026	-2.423874	2.224182	9.054692	-0.844655	-0.021746	-0.169692	-0.507237
35027	-2.581114	2.547534	9.209941	-0.844833	-0.021858	-0.169753	-0.506915
35028	-2.600553	2.471268	9.447757	-0.845068	-0.021717	-0.169578	-0.506589
35029	-2.629857	2.228374	9.473484	-0.845460	-0.021687	-0.169293	-0.506030
35030	-2.588445	2.103564	9.399340	-0.845970	-0.022047	-0.169210	-0.505189
35031	-2.587608	2.439557	9.313469	-0.846368	-0.022535	-0.169408	-0.504435
35032	-2.557383	2.620690	9.334068	-0.846562	-0.022582	-0.169280	-0.504150
35033	-2.487195	2.553434	9.392904	-0.846571	-0.022669	-0.169036	-0.504212
35034	-2.551007	2.471021	9.311817	-0.846583	-0.022465	-0.168251	-0.504464
35035	-2.656740	2.633519	9.642042	-0.846618	-0.022472	-0.167404	-0.504688
35036	-2.646571	2.737039	9.658926	-0.846598	-0.022108	-0.165812	-0.505261
35037	-2.453703	2.714291	9.485546	-0.846263	-0.021786	-0.164286	-0.506335
35038	-2.563212	2.532990	9.562937	-0.845560	-0.021418	-0.162943	-0.507956
35039	-2.537976	2.209324	9.806569	-0.844661	-0.020928	-0.161453	-0.509943
35040	-2.479411	1.668148	10.085016	-0.843645	-0.020896	-0.160152	-0.512033
35041	-2.543479	1.358540	9.924673	-0.842681	-0.021142	-0.158351	-0.514167
35042	-2.501863	1.388400	10.032218	-0.841701	-0.021930	-0.156590	-0.516273
35043	-2.682429	1.408463	10.035418	-0.840632	-0.022745	-0.154374	-0.518642
35044	-2.798808	1.622380	10.107708	-0.839451	-0.024308	-0.152114	-0.521146
35045	-2.663056	1.683435	10.069790	-0.838482	-0.025844	-0.149149	-0.523483
35046	-2.388253	1.760881	10.001586	-0.837640	-0.028120	-0.146331	-0.525506
35047	-2.314685	2.036503	9.730851	-0.836802	-0.030794	-0.143256	-0.527533
35048	-2.443509	2.402258	9.839483	-0.835710	-0.033618	-0.140207	-0.529906
35049	-2.418644	2.535856	9.801285	-0.834465	-0.036304	-0.136554	-0.532638
35050	-2.280324	2.127690	9.913420	-0.833285	-0.038889	-0.132891	-0.535223
35051	-2.039145	1.518295	9.911991	-0.832479	-0.041694	-0.128786	-0.537266
35052	-1.688064	1.462244	9.584690	-0.831752	-0.045305	-0.125817	-0.538801
35053	-1.513090	1.752983	9.247591	-0.830995	-0.049164	-0.123374	-0.540194
35054	-1.351658	1.971445	8.891364	-0.830177	-0.052923	-0.121371	-0.541548
35055	-1.086447	1.831914	8.519364	-0.829523	-0.055884	-0.118893	-0.542801
35056	-0.894310	1.600056	8.540011	-0.829008	-0.058495	-0.116825	-0.543762
35057	-0.761411	1.686715	8.854802	-0.828684	-0.060610	-0.114874	-0.544439
35058	-0.633667	2.093285	9.228207	-0.828398	-0.062119	-0.113403	-0.545012
35059	-0.741270	2.242844	9.455528	-0.828438	-0.062618	-0.111244	-0.545338
35060	-0.709450	1.908503	9.144441	-0.828704	-0.062712	-0.109109	-0.545355
35061	-0.676453	2.196086	9.015799	-0.828991	-0.062609	-0.107772	-0.545196
35062	-0.986279	2.230961	9.166193	-0.829032	-0.062321	-0.107009	-0.545318
35063	-0.716608	2.003601	9.189609	-0.829038	-0.061655	-0.106119	-0.545558
35064	-0.875982	1.842456	9.281039	-0.828969	-0.061478	-0.106356	-0.545636
35065	-0.982306	2.028775	9.728223	-0.828981	-0.061223	-0.106820	-0.545556
35066	-0.968179	1.956357	9.668978	-0.829116	-0.060776	-0.106932	-0.545380
35067	-0.680728	2.086300	9.493913	-0.829264	-0.060139	-0.106835	-0.545244
35068	-0.834173	1.987882	9.414229	-0.829430	-0.059527	-0.106930	-0.545040
35069	-0.943567	1.949638	9.442252	-0.829741	-0.058557	-0.106640	-0.544728
35070	-1.168927	2.184375	9.325448	-0.830067	-0.057847	-0.106557	-0.544324
35071	-1.224086	2.034520	9.574294	-0.830328	-0.057090	-0.106593	-0.543998
35072	-1.262556	1.978102	9.807847	-0.830564	-0.056859	-0.107032	-0.543576
35073	-1.189832	2.078347	9.800232	-0.830854	-0.056746	-0.107670	-0.543019
35074	-1.273628	2.243695	9.809078	-0.831284	-0.056410	-0.107911	-0.542347
35075	-1.198093	1.998851	9.661214	-0.831778	-0.055875	-0.107772	-0.541672
35076	-1.114916	1.924074	9.565443	-0.832222	-0.055499	-0.107795	-0.541024
35077	-1.307876	1.962871	9.667643	-0.832614	-0.055360	-0.108034	-0.540386
35078	-1.092416	2.201545	9.838842	-0.833026	-0.055182	-0.108325	-0.539711
35079	-1.238677	2.236500	9.777696	-0.833459	-0.055103	-0.108636	-0.538988
35080	-1.275008	2.170443	9.682196	-0.833793	-0.055147	-0.108985	-0.538397
35081	-1.255349	2.307617	9.558294	-0.834025	-0.055286	-0.109489	-0.537920
35082	-1.232989	2.302529	9.518033	-0.834167	-0.055426	-0.110125	-0.537556
35083	-1.286197	2.272243	9.477615	-0.834279	-0.055262	-0.110457	-0.537331
35084	-1.292952	2.252634	9.484793	-0.834376	-0.055019	-0.110806	-0.537132
35085	-1.233507	2.163279	9.606134	-0.834501	-0.054609	-0.110956	-0.536949
35086	-1.246629	2.177386	9.630986	-0.834629	-0.054047	-0.111110	-0.536776
35087	-1.278786	2.197649	9.707408	-0.834687	-0.053342	-0.111256	-0.536725
35088	-1.190054	2.093828	9.489898	-0.834628	-0.052680	-0.111389	-0.536854
35089	-1.313736	2.070661	9.512646	-0.834511	-0.052182	-0.111877	-0.536984
35090	-1.357759	2.151607	9.713749	-0.834401	-0.051662	-0.112485	-0.537078
35091	-1.231839	2.064260	9.712520	-0.834307	-0.051171	-0.112917	-0.537180
35092	-1.273838	1.917204	9.603356	-0.834244	-0.050649	-0.113247	-0.537259
35093	-1.331439	2.059547	9.713589	-0.834176	-0.050394	-0.113811	-0.537269
35094	-1.337366	2.046394	9.733064	-0.834115	-0.050077	-0.114193	-0.537313
35095	-1.312776	2.114189	9.589970	-0.834026	-0.049888	-0.114644	-0.537372
35096	-1.328575	2.166999	9.498240	-0.833945	-0.049644	-0.115263	-0.537388
35097	-1.478198	2.116138	9.624299	-0.833811	-0.049397	-0.115897	-0.537482
35098	-1.450101	2.114728	9.729595	-0.833645	-0.049342	-0.116483	-0.537618
35099	-1.324010	1.853282	9.749059	-0.833522	-0.049502	-0.117195	-0.537640
35100	-1.358789	2.051141	9.663338	-0.833489	-0.049662	-0.117888	-0.537524
35101	-1.497058	2.251667	9.669871	-0.833495	-0.049698	-0.118472	-0.537383
35102	-1.504181	2.242842	9.755108	-0.833592	-0.049221	-0.118520	-0.537266
35103	-1.468888	2.109615	9.670022	-0.833728	-0.048680	-0.118447	-0.537121
35104	-1.329462	1.933004	9.528543	-0.833933	-0.048420	-0.118547	-0.536803
35105	-1.386157	2.089910	9.432905	-0.834093	-0.048378	-0.119063	-0.536444
35106	-1.480205	2.259595	9.490533	-0.834175	-0.048435	-0.119829	-0.536140
35107	-1.526406	2.363638	9.648635	-0.834210	-0.048152	-0.120299	-0.536007
35108	-1.401364	1.837018	9.692464	-0.834271	-0.047560	-0.120349	-0.535954
35109	-1.456325	1.818511	9.677124	-0.834396	-0.047359	-0.120610	-0.535719
35110	-1.456061	2.201443	9.725492	-0.834575	-0.047010	-0.120730	-0.535443
35111	-1.421056	2.184926	9.802454	-0.834812	-0.046416	-0.120531	-0.535170
35112	-1.514575	2.062884	9.662413	-0.835025	-0.045769	-0.120189	-0.534971
35113	-1.525917	1.961790	9.591527	-0.835095	-0.045340	-0.120176	-0.534900
35114	-1.578697	1.962730	9.699977	-0.835147	-0.045092	-0.120322	-0.534807
35115	-1.571064	2.081232	9.638926	-0.835295	-0.044755	-0.120416	-0.534583
35116	-1.636084	2.309558	9.677163	-0.835504	-0.044292	-0.120382	-0.534302
35117	-1.668144	2.167557	9.647150	-0.835710	-0.043763	-0.120111	-0.534085
35118	-1.434978	2.035129	9.397777	-0.835825	-0.043423	-0.120072	-0.533941
35119	-1.495632	1.980614	9.351413	-0.835864	-0.043104	-0.120367	-0.533839
35120	-1.661363	2.066513	9.497409	-0.835945	-0.042857	-0.120694	-0.533660
35121	-1.653963	2.177691	9.654313	-0.836086	-0.042437	-0.120873	-0.533431
35122	-1.636863	2.050228	9.703958	-0.836191	-0.042159	-0.121121	-0.533233
35123	-1.649032	2.191770	9.620373	-0.836287	-0.041758	-0.121369	-0.533057
35124	-1.718878	2.249883	9.604477	-0.836322	-0.041126	-0.121613	-0.532996
35125	-1.783101	2.093978	9.551853	-0.836314	-0.040176	-0.121566	-0.533091
35126	-1.631318	1.893220	9.499612	-0.836291	-0.039182	-0.121441	-0.533230
35127	-1.532807	1.711730	9.533655	-0.836272	-0.038298	-0.121426	-0.533327
35128	-1.582264	1.797324	9.597690	-0.836359	-0.037509	-0.121363	-0.533261
35129	-1.717062	1.977332	9.623320	-0.836487	-0.036554	-0.121073	-0.533193
35130	-1.676774	1.864703	9.590050	-0.836608	-0.035249	-0.120494	-0.533222
35131	-1.498974	1.637658	9.541342	-0.836683	-0.034081	-0.120159	-0.533257
35132	-1.433270	1.451148	9.354133	-0.836645	-0.033322	-0.120355	-0.533319
35133	-1.573533	1.572740	9.374916	-0.836555	-0.032811	-0.120988	-0.533350
35134	-1.678262	1.773070	9.564722	-0.836386	-0.032169	-0.121732	-0.533484
35135	-1.663040	1.771995	9.927781	-0.836199	-0.031126	-0.122128	-0.533748
35136	-1.600588	1.351677	9.988477	-0.836071	-0.030050	-0.122213	-0.533990
35137	-1.664563	1.256063	9.855795	-0.836007	-0.029401	-0.122510	-0.534060
35138	-1.660267	1.351338	9.758516	-0.835974	-0.029202	-0.123099	-0.533986
35139	-1.802182	1.719559	9.837752	-0.836028	-0.029046	-0.123639	-0.533785
35140	-1.786712	1.943931	9.748377	-0.836114	-0.028614	-0.123854	-0.533624
35141	-1.819456	1.865326	9.637470	-0.836144	-0.028015	-0.123902	-0.533597
35142	-1.848980	1.668438	9.658029	-0.836161	-0.027380	-0.123841	-0.533618
35143	-1.871915	1.628726	9.723884	-0.836181	-0.027064	-0.124008	-0.533564
35144	-1.822505	1.735823	9.842274	-0.836244	-0.026837	-0.124123	-0.533451
35145	-1.785403	1.634312	9.778024	-0.836248	-0.026771	-0.124203	-0.533429
35146	-1.833014	1.609293	9.813765	-0.836249	-0.026721	-0.124330	-0.533400
35147	-1.783335	1.468075	9.699795	-0.836228	-0.026667	-0.124360	-0.533429
35148	-1.637455	1.644303	9.673096	-0.836216	-0.026727	-0.124472	-0.533418
35149	-1.728098	1.631042	9.697662	-0.836246	-0.026652	-0.124321	-0.533411
35150	-1.702355	1.668794	9.626552	-0.836308	-0.026581	-0.124125	-0.533363
35151	-1.659011	1.750716	9.548639	-0.836382	-0.026445	-0.124023	-0.533277
35152	-1.715400	1.724742	9.537969	-0.836419	-0.026330	-0.123988	-0.533232
35153	-1.716824	1.564564	9.426561	-0.836426	-0.026186	-0.123969	-0.533234
35154	-1.595029	1.562606	9.464832	-0.836382	-0.026283	-0.124324	-0.533215
35155	-1.596739	1.729519	9.554869	-0.836354	-0.026413	-0.124849	-0.533130
35156	-1.745432	1.743393	9.643151	-0.836319	-0.026357	-0.125401	-0.533058
35157	-1.725684	1.744972	9.683396	-0.836268	-0.026197	-0.125923	-0.533022
35158	-1.756440	1.652125	9.676854	-0.836188	-0.025957	-0.126394	-0.533049
35159	-1.766491	1.694833	9.639917	-0.836086	-0.025703	-0.126889	-0.533103
35160	-1.841685	1.686556	9.638036	-0.836038	-0.025354	-0.127308	-0.533095
35161	-1.763822	1.782839	9.575401	-0.835993	-0.024972	-0.127732	-0.533082
35162	-1.643661	1.749922	9.543348	-0.835948	-0.024584	-0.128148	-0.533070
35163	-1.740826	1.839913	9.600690	-0.835881	-0.024231	-0.128558	-0.533093
35164	-1.824340	1.942734	9.520428	-0.835843	-0.023885	-0.128828	-0.533103
35165	-1.881823	1.971239	9.499131	-0.835729	-0.023539	-0.129209	-0.533206
35166	-1.847448	1.781801	9.583866	-0.835508	-0.022931	-0.129468	-0.533516
35167	-1.883833	1.591384	9.634185	-0.835191	-0.022454	-0.129742	-0.533965
35168	-1.808148	1.527514	9.625601	-0.834877	-0.022132	-0.130032	-0.534398
35169	-1.922828	1.611943	9.786442	-0.834645	-0.021796	-0.130296	-0.534711
35170	-2.088582	1.773085	9.859493	-0.834479	-0.021144	-0.130165	-0.535028
35171	-2.066864	1.667902	9.716420	-0.834279	-0.020236	-0.129640	-0.535502
35172	-1.826013	1.493293	9.542857	-0.834057	-0.019388	-0.129209	-0.535983
35173	-1.831542	1.558713	9.495194	-0.833921	-0.018702	-0.129035	-0.536261
35174	-1.910877	1.735827	9.625685	-0.833818	-0.018137	-0.129039	-0.536440
35175	-2.077860	1.678576	9.661130	-0.833679	-0.017639	-0.129018	-0.536678
35176	-1.940829	1.562099	9.517240	-0.833551	-0.017176	-0.129000	-0.536895
35177	-1.859830	1.588376	9.486708	-0.833416	-0.016867	-0.129324	-0.537037
35178	-1.982959	1.498935	9.639352	-0.833319	-0.016487	-0.129506	-0.537155
35179	-1.960111	1.424335	9.677400	-0.833233	-0.016199	-0.129748	-0.537239
35180	-2.010798	1.543129	9.746413	-0.833173	-0.015713	-0.129951	-0.537298
35181	-2.018380	1.510739	9.852335	-0.833181	-0.015280	-0.130041	-0.537275
35182	-2.022421	1.440608	9.748737	-0.833242	-0.014856	-0.129969	-0.537211
35183	-1.922479	1.399677	9.630885	-0.833338	-0.014677	-0.130003	-0.537058
35184	-1.908025	1.728464	9.556908	-0.833518	-0.014647	-0.130192	-0.536734
35185	-2.029358	1.770794	9.560077	-0.833740	-0.014408	-0.130181	-0.536398
35186	-2.045963	1.818454	9.557130	-0.833959	-0.014182	-0.130147	-0.536073
35187	-1.994144	1.622349	9.543630	-0.834183	-0.013833	-0.130038	-0.535759
35188	-1.874348	1.651350	9.538696	-0.834388	-0.013722	-0.130244	-0.535392
35189	-1.912990	1.683083	9.545767	-0.834558	-0.013492	-0.130531	-0.535064
35190	-2.021358	1.687713	9.736199	-0.834663	-0.013229	-0.130761	-0.534850
35191	-1.995932	1.276831	9.829993	-0.834784	-0.012969	-0.130759	-0.534668
35192	-1.878348	1.216416	9.734773	-0.834983	-0.012958	-0.130784	-0.534351
35193	-1.826991	1.371774	9.710540	-0.835133	-0.013235	-0.131037	-0.534048
35194	-1.902367	1.568081	9.741245	-0.835256	-0.013313	-0.130957	-0.533873
35195	-1.989674	1.596653	9.617177	-0.835408	-0.013239	-0.130681	-0.533705
35196	-2.063168	1.506313	9.538342	-0.835559	-0.013076	-0.130298	-0.533565
35197	-2.019056	1.383148	9.515297	-0.835651	-0.012946	-0.130017	-0.533493
35198	-1.922951	1.364960	9.568486	-0.835742	-0.012897	-0.129938	-0.533372
35199	-2.191297	1.364948	9.712262	-0.835890	-0.012828	-0.129861	-0.533159
35200	-2.100363	1.267956	9.621318	-0.836112	-0.012648	-0.129612	-0.532876
35201	-1.970063	1.253665	9.586168	-0.836342	-0.012648	-0.129617	-0.532515
35202	-1.856110	1.307298	9.592500	-0.836621	-0.013143	-0.129952	-0.531982
35203	-2.033150	1.509131	9.655885	-0.836952	-0.013387	-0.130182	-0.531398
35204	-2.010445	1.458538	9.560105	-0.837232	-0.013666	-0.130455	-0.530884
35205	-2.137266	1.533634	9.487663	-0.837442	-0.013813	-0.130789	-0.530466
35206	-2.059009	1.598231	9.654235	-0.837712	-0.013765	-0.130872	-0.530020
35207	-2.059577	1.624289	9.785749	-0.838126	-0.013641	-0.130893	-0.529363
35208	-2.168058	1.436384	9.638182	-0.838562	-0.013364	-0.130728	-0.528720
35209	-1.953737	1.395107	9.502418	-0.838836	-0.013345	-0.130952	-0.528231
35210	-1.954770	1.519296	9.610637	-0.839029	-0.013510	-0.131365	-0.527818
35211	-1.988224	1.470132	9.619499	-0.839271	-0.013720	-0.131776	-0.527325
35212	-2.097467	1.600208	9.712708	-0.839621	-0.013946	-0.132062	-0.526689
35213	-2.299753	1.627877	9.783493	-0.839946	-0.014004	-0.132136	-0.526150
35214	-2.117934	1.475069	9.653468	-0.840117	-0.013925	-0.132002	-0.525914
35215	-1.962250	1.593991	9.624845	-0.840186	-0.013933	-0.132119	-0.525774
35216	-1.964880	1.577341	9.678158	-0.840308	-0.013596	-0.131999	-0.525618
35217	-2.226217	1.591963	9.762601	-0.840518	-0.013418	-0.131815	-0.525332
35218	-2.521626	1.303594	9.737909	-0.840728	-0.013382	-0.131582	-0.525056
35219	-2.009027	1.547649	9.614839	-0.840878	-0.013785	-0.131867	-0.524733
35220	-2.031986	1.699292	9.653270	-0.841050	-0.013909	-0.131901	-0.524447
35221	-2.221735	1.746111	9.666450	-0.841224	-0.013959	-0.131715	-0.524212
35222	-2.413267	1.500842	9.687816	-0.841371	-0.013907	-0.131417	-0.524053
35223	-2.089210	1.400185	9.674857	-0.841508	-0.014130	-0.131142	-0.523895
35224	-1.983613	1.530910	9.685648	-0.841686	-0.014497	-0.131002	-0.523634
35225	-2.026317	1.779528	9.561378	-0.841875	-0.014782	-0.130613	-0.523419
35226	-2.174563	1.938276	9.571968	-0.842042	-0.014824	-0.130133	-0.523269
35227	-2.152588	1.725687	9.641379	-0.842229	-0.014909	-0.129613	-0.523095
35228	-2.033048	1.555304	9.628897	-0.842377	-0.015286	-0.129437	-0.522889
35229	-1.958228	1.476666	9.475096	-0.842505	-0.015838	-0.129382	-0.522680
35230	-1.994733	1.542278	9.554000	-0.842644	-0.016273	-0.129388	-0.522442
35231	-2.042273	1.539505	9.613917	-0.842829	-0.016511	-0.129185	-0.522186
35232	-2.091599	1.693322	9.656801	-0.843009	-0.016627	-0.128891	-0.521964
35233	-1.887526	1.710190	9.550827	-0.843138	-0.016709	-0.128579	-0.521830
35234	-1.816538	1.459289	9.547079	-0.843247	-0.016936	-0.128451	-0.521678
35235	-1.834720	1.402240	9.479756	-0.843343	-0.017460	-0.128638	-0.521460
35236	-1.888181	1.542155	9.514084	-0.843375	-0.017978	-0.128939	-0.521316
35237	-2.053358	1.819166	9.622384	-0.843376	-0.018347	-0.129282	-0.521217
35238	-2.183098	1.612429	9.763628	-0.843421	-0.018214	-0.129154	-0.521179
35239	-1.978722	1.406316	9.716622	-0.843471	-0.018269	-0.129042	-0.521125
35240	-1.913403	1.423759	9.618493	-0.843532	-0.018609	-0.129100	-0.521000
35241	-1.924984	1.792964	9.452752	-0.843551	-0.019269	-0.129386	-0.520874
35242	-1.930872	1.966137	9.576702	-0.843497	-0.019731	-0.129741	-0.520856
35243	-1.988973	1.987531	9.612379	-0.843440	-0.020477	-0.130267	-0.520788
35244	-1.906439	1.935432	9.429669	-0.843358	-0.021341	-0.130886	-0.520732
35245	-2.053782	1.839604	9.404042	-0.843172	-0.022463	-0.131674	-0.520787
35246	-1.806507	1.806687	9.412332	-0.842853	-0.023706	-0.132637	-0.521003
35247	-1.671140	1.758926	9.446892	-0.842391	-0.024800	-0.133653	-0.521440
35248	-1.808021	1.710107	9.335444	-0.841971	-0.025658	-0.134279	-0.521915
35249	-1.820773	1.823539	9.405324	-0.841620	-0.026205	-0.134702	-0.522346
35250	-1.848878	1.737550	9.450597	-0.841327	-0.026598	-0.134898	-0.522747
35251	-1.766518	1.903413	9.478419	-0.841035	-0.026816	-0.135104	-0.523152
35252	-1.704033	1.966364	9.455678	-0.840683	-0.026867	-0.135659	-0.523571
35253	-1.978498	2.078956	9.419858	-0.840372	-0.026547	-0.136062	-0.523982
35254	-1.875720	1.951661	9.485373	-0.840094	-0.026151	-0.136642	-0.524296
35255	-1.927233	2.061174	9.650791	-0.839876	-0.025614	-0.137374	-0.524481
35256	-1.941959	1.954176	9.693051	-0.839686	-0.025076	-0.138039	-0.524637
35257	-2.142934	2.078084	9.585572	-0.839467	-0.024600	-0.138732	-0.524827
35258	-2.183791	1.810766	9.718358	-0.839326	-0.023950	-0.139090	-0.524989
35259	-2.181006	1.848298	9.808944	-0.839282	-0.023758	-0.139635	-0.524922
35260	-2.204031	1.873874	9.797395	-0.839359	-0.023388	-0.139704	-0.524797
35261	-2.213502	1.846312	9.824088	-0.839416	-0.023277	-0.139768	-0.524694
35262	-2.199537	1.883390	9.804528	-0.839493	-0.023282	-0.139693	-0.524591
35263	-2.279206	1.863678	9.761586	-0.839726	-0.023300	-0.139429	-0.524288
35264	-2.437059	1.968436	9.887733	-0.840105	-0.023263	-0.139027	-0.523787
35265	-2.349126	1.900034	9.806077	-0.840548	-0.023124	-0.138329	-0.523267
35266	-2.337630	1.829478	9.641482	-0.840975	-0.022979	-0.137536	-0.522798
35267	-2.357235	1.543126	9.753366	-0.841476	-0.022991	-0.136880	-0.522162
35268	-2.260980	1.395164	9.834886	-0.842134	-0.023026	-0.136028	-0.521322
35269	-2.179977	1.289567	9.773173	-0.842949	-0.023434	-0.135203	-0.520200
35270	-2.213899	1.277976	9.724951	-0.843964	-0.024019	-0.134203	-0.518785
35271	-2.276895	1.295050	9.784683	-0.845277	-0.024886	-0.133076	-0.516893
35272	-2.265047	1.339303	9.886647	-0.846928	-0.025905	-0.131727	-0.514481
35273	-2.330341	1.370100	9.993611	-0.848969	-0.027090	-0.130042	-0.511475
35274	-2.469997	1.396636	10.067852	-0.851417	-0.027959	-0.127653	-0.507949
35275	-2.368418	1.096025	9.968317	-0.854163	-0.028842	-0.124936	-0.503949
35276	-2.267611	0.851183	9.667560	-0.857025	-0.030119	-0.122389	-0.499623
35277	-2.277005	1.155259	9.747194	-0.859937	-0.032209	-0.120622	-0.494895
35278	-2.182678	1.071292	9.772586	-0.863086	-0.034409	-0.118722	-0.489697
35279	-2.236756	1.283575	9.725148	-0.866502	-0.037169	-0.117014	-0.483840
35280	-2.244127	1.447812	9.689695	-0.870253	-0.039917	-0.115475	-0.477213
35281	-2.180401	1.735228	9.659412	-0.874497	-0.042493	-0.113803	-0.469572
35282	-2.242589	1.831499	9.571186	-0.879233	-0.044100	-0.111506	-0.461054
35283	-2.038930	1.378592	9.217350	-0.884241	-0.045251	-0.108606	-0.451968
35284	-1.821105	0.793214	8.731429	-0.889196	-0.046934	-0.106383	-0.442505
35285	-1.510701	1.206050	8.612080	-0.894220	-0.049400	-0.105704	-0.432155
35286	-1.453061	1.210685	9.042363	-0.899406	-0.051285	-0.105564	-0.421063
35287	-1.678356	0.252913	9.593058	-0.904784	-0.052852	-0.105093	-0.409301
35288	-0.912038	3.238437	9.331294	-0.910083	-0.052750	-0.103141	-0.397906
35289	-1.403313	1.868410	8.584806	-0.914077	-0.050838	-0.101482	-0.389332
35290	-1.265862	-0.176235	7.981753	-0.917675	-0.051925	-0.103041	-0.380208
35291	-1.355769	-0.671942	9.188491	-0.921328	-0.053944	-0.107021	-0.369854
35292	-1.536189	0.148245	11.718628	-0.925819	-0.059242	-0.109568	-0.356852
35293	-1.364059	3.214630	11.430168	-0.930893	-0.060841	-0.109115	-0.343264
35294	-2.207382	3.757887	9.923705	-0.935327	-0.058527	-0.106814	-0.332159
35295	-1.308901	1.883202	9.592211	-0.939273	-0.055942	-0.103338	-0.322424
35296	-1.359553	1.055485	9.990106	-0.942753	-0.054886	-0.101524	-0.312886
35297	-1.845567	0.759440	10.091782	-0.945996	-0.056430	-0.100705	-0.302929
35298	-2.236853	1.839369	10.273600	-0.949186	-0.059460	-0.100292	-0.292322
35299	-2.284081	2.675324	10.003137	-0.952388	-0.061879	-0.099094	-0.281617
35300	-2.071790	2.459893	9.661014	-0.955471	-0.063292	-0.096749	-0.271493
35301	-1.738009	1.949588	9.806403	-0.958423	-0.064377	-0.093822	-0.261684
35302	-1.795756	2.058300	10.383385	-0.961308	-0.065785	-0.090404	-0.251768
35303	-1.734621	1.623343	10.239866	-0.964322	-0.066165	-0.086069	-0.241447
35304	-1.476696	1.491822	10.001967	-0.967280	-0.066895	-0.081781	-0.230667
35305	-1.422302	1.450776	9.715282	-0.970134	-0.067449	-0.077389	-0.219777
35306	-0.811188	1.066213	9.652698	-0.972743	-0.069250	-0.073187	-0.208854
35307	-0.488507	1.041718	9.593877	-0.975091	-0.072062	-0.069788	-0.197826
35308	-0.785561	1.079599	9.790942	-0.977320	-0.074479	-0.067082	-0.186545
35309	-1.118875	1.704999	9.496210	-0.979519	-0.076929	-0.064215	-0.174644
35310	-0.676362	1.754578	9.349040	-0.981635	-0.078297	-0.060961	-0.162931
35311	-0.429593	1.533677	9.400064	-0.983530	-0.080162	-0.057927	-0.151289
35312	-0.598811	1.588903	9.426584	-0.985290	-0.081455	-0.055266	-0.139691
35313	-1.106765	1.319821	9.393418	-0.986981	-0.082547	-0.052872	-0.127514
35314	-0.967383	1.437618	9.287808	-0.988523	-0.084396	-0.050484	-0.114674
35315	-0.837356	1.721772	9.514213	-0.989905	-0.085752	-0.048482	-0.101902
35316	-0.617733	1.873850	9.444323	-0.991115	-0.087089	-0.046463	-0.089148
35317	-0.404917	2.051261	9.573950	-0.992130	-0.088439	-0.044811	-0.076471
35318	-0.397362	1.613537	9.456018	-0.993008	-0.089263	-0.043455	-0.063873
35319	-0.703405	1.549932	9.731213	-0.993698	-0.090238	-0.042396	-0.051225
35320	-1.043156	1.701116	9.633558	-0.994257	-0.090984	-0.041419	-0.038199
35321	-0.999672	1.821359	9.622282	-0.994697	-0.091274	-0.040348	-0.024893
35322	-0.697554	2.048073	9.550491	-0.994966	-0.091424	-0.039348	-0.011644
35323	-0.582064	2.360459	9.509860	-0.995065	-0.091375	-0.038675	0.000765
35324	-0.787686	2.233516	9.867147	-0.995050	-0.090963	-0.037978	0.012638
35325	-1.133521	1.632202	9.781965	-0.994915	-0.090202	-0.037408	0.024671
35326	-1.162897	1.618050	9.611014	-0.994592	-0.089797	-0.036878	0.036920
35327	-1.067819	1.783498	9.543627	-0.994075	-0.089935	-0.036444	0.048968
35328	-1.254312	2.164895	9.675205	-0.993419	-0.090120	-0.036148	0.060749
35329	-1.493765	2.428996	9.938424	-0.992736	-0.089157	-0.035654	0.072488
35330	-1.416346	1.592718	9.931966	-0.991982	-0.087689	-0.034691	0.084141
35331	-1.180181	1.360077	9.758815	-0.991041	-0.086573	-0.033693	0.095962
35332	-1.477400	1.629769	9.812705	-0.989939	-0.085481	-0.033063	0.107795
35333	-1.693453	1.986344	10.003728	-0.988762	-0.083541	-0.032183	0.119729
35334	-1.374214	1.685809	9.731314	-0.987490	-0.080790	-0.031182	0.131776
35335	-0.989833	1.717558	9.229638	-0.985984	-0.079480	-0.030719	0.143439
35336	-0.896657	2.040606	9.479129	-0.984343	-0.079761	-0.030660	0.154167
35337	-0.991829	1.554249	9.869729	-0.982686	-0.080739	-0.030639	0.163923
35338	-1.243425	1.005909	9.629719	-0.980956	-0.081631	-0.030731	0.173546
35339	-1.311389	1.375212	9.200608	-0.979008	-0.083035	-0.031326	0.183487
35340	-1.199253	2.573757	9.602680	-0.977036	-0.084300	-0.032044	0.193046
35341	-0.817525	2.392722	10.170605	-0.975244	-0.084543	-0.032570	0.201718
35342	-0.708845	1.889430	9.926222	-0.973563	-0.084772	-0.033133	0.209503
35343	-0.957019	1.367079	9.615484	-0.971873	-0.085666	-0.034104	0.216704
35344	-1.288909	1.483729	9.705318	-0.970091	-0.087547	-0.035128	0.223662
35345	-1.274707	2.330725	9.846564	-0.968379	-0.089058	-0.036008	0.230248
35346	-1.203474	2.808361	9.776573	-0.966900	-0.089974	-0.036926	0.235893
35347	-1.227926	2.537523	9.718678	-0.965745	-0.090460	-0.037475	0.240311
35348	-1.325644	2.063071	9.489743	-0.964824	-0.090651	-0.037741	0.243870
35349	-1.327298	2.047289	9.234997	-0.964051	-0.091473	-0.038174	0.246537
35350	-1.467281	2.734864	9.585176	-0.963400	-0.093191	-0.038403	0.248397
35351	-1.408555	2.711412	9.794901	-0.963074	-0.093806	-0.038554	0.249405
35352	-1.640565	2.501146	9.819842	-0.963025	-0.093923	-0.038522	0.249553
35353	-1.416504	2.385289	9.568286	-0.963186	-0.094090	-0.038259	0.248911
35354	-1.645360	2.308974	9.570213	-0.963561	-0.094496	-0.038205	0.247307
35355	-1.591954	2.698830	9.423761	-0.964112	-0.094738	-0.038058	0.245081
35356	-1.629724	2.559522	9.290489	-0.964950	-0.094831	-0.038156	0.241708
35357	-1.842854	2.528678	9.255946	-0.965959	-0.094977	-0.038231	0.237574
35358	-1.760019	2.485317	9.280116	-0.967130	-0.094746	-0.038664	0.232784
35359	-1.789705	2.597803	9.329528	-0.968366	-0.095069	-0.039184	0.227363
35360	-1.476112	2.774395	9.283132	-0.969734	-0.095370	-0.039903	0.221199
35361	-1.383900	2.917717	9.274661	-0.971191	-0.096457	-0.040930	0.214030
35362	-1.383476	2.472123	9.606742	-0.972875	-0.097497	-0.042402	0.205452
35363	-1.904340	1.645039	9.633297	-0.974633	-0.098431	-0.043875	0.196153
35364	-1.777542	1.920117	9.329300	-0.976281	-0.099232	-0.045571	0.186954
35365	-1.757437	2.451027	9.599718	-0.977956	-0.100120	-0.047363	0.177019
35366	-1.778415	3.111350	9.781949	-0.979751	-0.100565	-0.048810	0.166108
35367	-1.849162	3.082007	9.812772	-0.981714	-0.099617	-0.050270	0.154232
35368	-1.751879	2.355636	9.496072	-0.983685	-0.098281	-0.051784	0.141501
35369	-1.945475	1.822438	9.309567	-0.985451	-0.098259	-0.053416	0.127979
35370	-2.021855	1.934795	9.319588	-0.987013	-0.099010	-0.054965	0.113932
35371	-2.094248	2.214618	9.534715	-0.988376	-0.100135	-0.056639	0.099389
35372	-2.120229	2.649951	9.635586	-0.989664	-0.100205	-0.058425	0.084328
35373	-2.100036	2.690937	9.569034	-0.990907	-0.098929	-0.060074	0.068618
35374	-2.264650	2.713240	9.492428	-0.992030	-0.096644	-0.061630	0.052332
35375	-2.449041	1.909364	9.435052	-0.992962	-0.093865	-0.062738	0.035770
35376	-2.265999	1.366096	9.151079	-0.993553	-0.091752	-0.063806	0.019030
35377	-1.996212	1.504246	9.293882	-0.993698	-0.091255	-0.065059	0.002134
35378	-2.204396	2.237486	9.631873	-0.993503	-0.090984	-0.066698	-0.014985
35379	-2.218660	2.328552	9.923923	-0.993157	-0.089123	-0.068178	-0.032389
35380	-2.243851	1.882505	9.511140	-0.992612	-0.085889	-0.069419	-0.050260
35381	-2.265045	1.257782	9.346011	-0.991650	-0.083229	-0.070711	-0.068582
35382	-2.368190	1.276749	9.400637	-0.990218	-0.081617	-0.072413	-0.086967
35383	-2.394451	1.193300	9.665219	-0.988422	-0.079994	-0.074517	-0.105210
35384	-2.215291	1.233651	10.184552	-0.986244	-0.078641	-0.077015	-0.123319
35385	-1.833373	1.265687	9.779410	-0.983833	-0.076724	-0.078810	-0.141331
35386	-1.809913	1.372657	9.271837	-0.981014	-0.074830	-0.080712	-0.159679
35387	-2.399458	1.306262	9.117832	-0.977774	-0.073261	-0.082743	-0.178167
35388	-2.673220	1.339526	9.382343	-0.974236	-0.071477	-0.085020	-0.196283
35389	-2.035513	1.318397	9.766501	-0.970416	-0.068985	-0.087712	-0.214104
35390	-0.731123	1.357317	10.053251	-0.966293	-0.066248	-0.089716	-0.232036
35391	-0.556780	0.800919	9.997667	-0.961693	-0.064153	-0.091624	-0.250271
35392	-1.018955	0.747016	9.938094	-0.956914	-0.063041	-0.093597	-0.267546
35393	-0.794791	0.354948	9.540528	-0.951972	-0.061477	-0.095766	-0.284252
35394	-0.826342	0.930005	9.971937	-0.946542	-0.060995	-0.099163	-0.300840
35395	-1.116311	1.614207	10.267992	-0.941073	-0.058581	-0.101680	-0.317192
35396	-1.700697	1.206800	10.386243	-0.935748	-0.054130	-0.103279	-0.332834
35397	-1.623571	0.267335	9.840303	-0.930548	-0.048223	-0.103774	-0.347830
35398	-1.530472	0.301588	9.912564	-0.925140	-0.043893	-0.104824	-0.362218
35399	-1.750398	0.734047	9.994848	-0.919859	-0.039849	-0.105545	-0.375675
35400	-2.043015	0.670397	9.645180	-0.914684	-0.036122	-0.106482	-0.388215
35401	-2.097110	0.622357	9.466545	-0.909734	-0.032464	-0.107221	-0.399793
35402	-2.364367	0.766978	9.875906	-0.905116	-0.029084	-0.108241	-0.410126
35403	-2.255336	0.557416	9.484413	-0.901017	-0.026251	-0.108444	-0.419189
35404	-1.645881	0.159130	9.831068	-0.896814	-0.025288	-0.109644	-0.427859
35405	-1.512829	0.230347	10.516090	-0.892577	-0.026551	-0.112250	-0.435892
35406	-2.321959	0.080249	10.777443	-0.888845	-0.028911	-0.114654	-0.442688
35407	-2.570253	0.762515	10.958433	-0.885896	-0.031581	-0.116163	-0.447992
35408	-2.272050	1.096483	10.702486	-0.883500	-0.033023	-0.116015	-0.452634
35409	-1.988674	1.650769	10.562613	-0.881527	-0.033987	-0.114874	-0.456682
35410	-1.694954	1.354177	10.198085	-0.879939	-0.033849	-0.112247	-0.460393
35411	-1.601176	1.160176	9.528695	-0.878505	-0.033357	-0.109548	-0.463805
35412	-1.556389	0.983929	9.116248	-0.877034	-0.032661	-0.107424	-0.467123
35413	-1.410624	0.770774	9.158392	-0.875596	-0.032320	-0.105926	-0.470178
35414	-1.245529	0.418719	9.046003	-0.874436	-0.032068	-0.105049	-0.472544
35415	-1.072807	0.637955	8.915842	-0.873683	-0.032200	-0.104819	-0.473977
35416	-1.444442	1.182574	9.093792	-0.873440	-0.031912	-0.104808	-0.474446
35417	-1.316634	1.281979	8.873175	-0.873586	-0.030418	-0.103879	-0.474481
35418	-1.208393	1.373468	8.817362	-0.873764	-0.028593	-0.103785	-0.474287
35419	-1.263217	1.215635	8.766944	-0.873911	-0.026067	-0.103781	-0.474161
35420	-1.208412	1.286904	8.964433	-0.873888	-0.023300	-0.104437	-0.474204
35421	-1.340120	0.643383	9.258281	-0.873709	-0.020789	-0.105733	-0.474364
35422	-1.252858	0.904240	9.447523	-0.873523	-0.018784	-0.107906	-0.474301
35423	-1.702922	1.189706	9.806853	-0.873210	-0.016439	-0.110483	-0.474371
35424	-1.789618	1.188811	10.354881	-0.872887	-0.014158	-0.113066	-0.474430
35425	-1.954336	1.160182	10.571726	-0.872695	-0.011881	-0.114867	-0.474414
35426	-2.165043	0.994562	10.500186	-0.872594	-0.009591	-0.115690	-0.474450
35427	-2.426100	0.960950	10.672795	-0.872486	-0.008196	-0.115924	-0.474619
35428	-2.206230	1.250005	10.721368	-0.872195	-0.007526	-0.116034	-0.475138
35429	-2.554942	1.447155	11.035366	-0.871660	-0.007691	-0.115809	-0.476169
35430	-2.597831	1.575030	11.480392	-0.871026	-0.009331	-0.114483	-0.477619
35431	-2.409397	1.928845	12.013118	-0.870330	-0.012678	-0.112121	-0.479367
35432	-2.552960	2.396687	12.774739	-0.869268	-0.017096	-0.108586	-0.481964
35433	-2.894344	2.666212	13.036032	-0.867866	-0.021897	-0.102712	-0.485572
35434	-2.977291	1.928136	12.303446	-0.866421	-0.026755	-0.094712	-0.489518
35435	-2.697810	1.793106	11.953998	-0.865077	-0.032769	-0.085755	-0.493167
35436	-2.565277	1.627297	11.920229	-0.863874	-0.039788	-0.075569	-0.496415
35437	-2.442205	2.051237	11.343678	-0.862780	-0.047264	-0.063764	-0.499310
35438	-2.087176	2.511713	10.785142	-0.861359	-0.054704	-0.051035	-0.502457
35439	-1.357967	2.339024	10.437346	-0.859866	-0.061422	-0.036729	-0.505479
35440	-1.019890	0.982255	9.902276	-0.858608	-0.067782	-0.021191	-0.507689
35441	-0.652049	0.931467	9.897210	-0.857686	-0.075992	-0.006130	-0.508490
35442	-0.168164	1.723082	9.338584	-0.856888	-0.084553	0.009850	-0.508426
35443	-0.031871	2.717693	9.137357	-0.856062	-0.092315	0.026854	-0.507853
35444	-0.150472	3.257910	8.685525	-0.855330	-0.096547	0.045721	-0.506951
35445	0.655326	1.761230	8.790422	-0.854655	-0.097174	0.066429	-0.505678
35446	2.347895	0.065394	8.917730	-0.853869	-0.099016	0.085224	-0.503826
35447	2.601870	0.137543	8.998160	-0.853146	-0.103410	0.101600	-0.501125
35448	2.187943	1.438704	8.853213	-0.852639	-0.108779	0.117696	-0.497315
35449	1.912066	2.102166	8.139344	-0.852644	-0.111381	0.136002	-0.492033
35450	2.703620	1.568827	7.382995	-0.852903	-0.110610	0.156309	-0.485685
35451	3.497886	-0.669261	7.519393	-0.853107	-0.108130	0.176286	-0.478998
35452	4.626614	-1.103202	7.442484	-0.852721	-0.109789	0.193033	-0.472812
35453	4.865495	0.002748	7.472375	-0.852220	-0.112041	0.207248	-0.467136
35454	4.533268	0.908028	7.785765	-0.851632	-0.114053	0.219937	-0.461890
35455	4.307491	0.571902	7.651425	-0.850700	-0.115233	0.232385	-0.457195
35456	4.872710	-1.132296	7.540110	-0.849454	-0.115797	0.244941	-0.452794
35457	5.744541	-1.569949	6.912517	-0.848092	-0.118657	0.255373	-0.448826
35458	5.787988	-0.143790	7.076088	-0.846897	-0.121275	0.264117	-0.445310
35459	5.988934	0.305673	7.363976	-0.845754	-0.122412	0.272065	-0.442376
35460	5.568104	-0.404220	7.835404	-0.844261	-0.122140	0.280447	-0.440062
35461	6.099672	-1.668513	6.852880	-0.842545	-0.122019	0.289247	-0.437682
35462	6.354175	-1.409146	6.342567	-0.840966	-0.123339	0.295308	-0.436300
35463	6.474709	-0.632583	6.288756	-0.839421	-0.124859	0.299748	-0.435815
35464	6.993908	-0.492926	6.575824	-0.837856	-0.125694	0.302499	-0.436683
35465	6.151463	-0.530863	7.169148	-0.836339	-0.125841	0.304438	-0.438199
35466	6.464726	-1.536333	7.037817	-0.834892	-0.125917	0.305944	-0.439885
35467	6.505389	-0.982296	6.908031	-0.833659	-0.126077	0.306437	-0.441831
35468	6.645221	-1.076473	6.728931	-0.832502	-0.126005	0.306352	-0.444086
35469	6.937115	-0.844703	6.622875	-0.831369	-0.126308	0.305242	-0.446877
35470	6.567788	-0.868449	6.806691	-0.830744	-0.125144	0.304007	-0.449203
35471	6.591644	-1.234753	6.935368	-0.830226	-0.124291	0.302192	-0.451616
35472	6.413695	-0.641839	6.737037	-0.829931	-0.123047	0.300394	-0.453693
35473	6.775386	-1.122857	6.417256	-0.829940	-0.121102	0.298078	-0.455723
35474	6.733056	-1.103693	6.719989	-0.830173	-0.118739	0.294311	-0.458361
35475	6.091744	-1.174728	7.304295	-0.830607	-0.116173	0.288979	-0.461614
35476	5.636055	-1.128065	7.617988	-0.830960	-0.113417	0.284045	-0.464716
35477	6.392563	-1.637700	7.069543	-0.831454	-0.110694	0.279040	-0.467513
35478	6.168393	-1.218485	6.841966	-0.832090	-0.108124	0.272455	-0.470855
35479	6.282969	-1.287940	6.844497	-0.832968	-0.105208	0.264539	-0.474463
35480	5.885606	-0.849228	7.032131	-0.833969	-0.101476	0.254590	-0.478939
35481	5.048380	-1.241573	7.594290	-0.834719	-0.097486	0.243807	-0.484044
35482	4.785400	-1.389794	7.933784	-0.835562	-0.094161	0.232176	-0.488942
35483	4.960687	-1.405876	7.829644	-0.836382	-0.091554	0.220052	-0.493620
35484	5.019715	-1.030250	7.316521	-0.837193	-0.088821	0.206683	-0.498498
35485	3.881886	0.248470	7.457657	-0.838033	-0.084917	0.190731	-0.504095
35486	3.287760	0.604401	7.789912	-0.838862	-0.077991	0.176781	-0.508897
35487	3.136709	-1.125078	8.145713	-0.839760	-0.070656	0.162969	-0.513081
35488	2.854627	-1.179641	8.447468	-0.840631	-0.064358	0.149334	-0.516621
35489	3.204736	-0.666099	8.556105	-0.841514	-0.058316	0.134177	-0.520048
35490	2.583907	0.009293	8.789892	-0.842040	-0.050435	0.117594	-0.524021
35491	1.613741	-0.049474	8.901171	-0.842243	-0.041367	0.101225	-0.527891
35492	1.248389	-0.875298	9.214790	-0.842445	-0.032580	0.085627	-0.530936
35493	1.248524	-1.358799	9.168145	-0.842589	-0.024982	0.069518	-0.533467
35494	0.933284	-0.454582	8.967353	-0.842343	-0.018309	0.052056	-0.536109
35495	-0.148755	1.700467	9.416267	-0.841538	-0.010494	0.033041	-0.539085
35496	-1.333233	1.944735	9.238289	-0.840374	0.000939	0.017685	-0.541717
35497	-0.519895	-0.905477	9.284437	-0.839072	0.014124	0.005298	-0.543812
35498	0.081759	-2.575584	9.615153	-0.837655	0.023303	-0.010076	-0.545609
35499	-0.925610	-0.583076	10.067839	-0.835768	0.028367	-0.028854	-0.547590
35500	-1.658905	1.367247	9.539219	-0.833330	0.035346	-0.047273	-0.549615
35501	-2.578668	0.877294	8.955775	-0.829861	0.047696	-0.063366	-0.552304
35502	-3.015660	-0.086278	9.567149	-0.826269	0.060622	-0.077826	-0.554569
35503	-2.982831	-1.642277	9.659496	-0.823150	0.070426	-0.093423	-0.555641
35504	-3.349303	-0.772171	9.905962	-0.820623	0.076035	-0.110872	-0.555431
35505	-2.765258	1.121045	9.302124	-0.818125	0.081194	-0.128092	-0.554682
35506	-3.455543	0.627058	8.375951	-0.814085	0.091852	-0.142090	-0.555553
35507	-4.192712	-0.415457	9.088876	-0.809941	0.102880	-0.155305	-0.556140
35508	-5.121343	-1.693695	10.173246	-0.806827	0.109802	-0.169855	-0.555089
35509	-4.035235	-0.162899	9.164635	-0.804489	0.112255	-0.186042	-0.552798
35510	-3.870358	1.057971	8.393669	-0.801694	0.114530	-0.202641	-0.550551
35511	-4.580068	1.384138	7.779009	-0.797975	0.119948	-0.217293	-0.549210
35512	-7.183899	0.958695	7.950207	-0.794298	0.127130	-0.229408	-0.547996
35513	-6.667439	0.565841	9.490501	-0.791660	0.133316	-0.241526	-0.545131
35514	-4.657137	0.349790	7.895735	-0.789166	0.138431	-0.254542	-0.541536
35515	-4.378270	0.053542	6.928457	-0.786416	0.143627	-0.268260	-0.537548
35516	-5.146961	1.049179	6.617017	-0.783432	0.149800	-0.281472	-0.533449
35517	-7.898205	0.964523	7.327304	-0.779897	0.156246	-0.294578	-0.529690
35518	-8.147219	0.661354	7.201078	-0.776605	0.161440	-0.307625	-0.525537
35519	-7.447857	1.476035	7.108297	-0.773217	0.167667	-0.321645	-0.520162
35520	-7.083319	0.763323	7.821710	-0.769771	0.174621	-0.334778	-0.514669
35521	-6.667459	0.289098	7.720767	-0.766541	0.180990	-0.347655	-0.508717
35522	-8.309290	0.491262	6.986301	-0.763536	0.186885	-0.360678	-0.501995
35523	-9.846937	0.484631	7.083719	-0.760914	0.192276	-0.372551	-0.495223
35524	-9.149972	0.520218	6.229965	-0.758758	0.196854	-0.384259	-0.487728
35525	-8.697740	0.661504	5.963252	-0.756285	0.200981	-0.397398	-0.479285
35526	-8.722545	0.891975	6.476134	-0.753543	0.204621	-0.410970	-0.470540
35527	-8.642212	1.505987	6.352971	-0.750382	0.209050	-0.424153	-0.461866
35528	-9.242736	1.958777	5.934774	-0.746768	0.216230	-0.435478	-0.453807
35529	-9.594343	0.893203	5.461016	-0.742452	0.226341	-0.444581	-0.447082
35530	-9.638912	-0.987137	4.457839	-0.739148	0.235271	-0.451998	-0.440460
35531	-8.305024	-0.432332	5.449221	-0.737114	0.241158	-0.461356	-0.430880
35532	-8.762482	0.089511	5.815693	-0.735197	0.245639	-0.471009	-0.421068
35533	-8.911864	0.814547	5.681258	-0.733306	0.249761	-0.480003	-0.411679
35534	-9.866162	0.134848	4.728104	-0.731176	0.254280	-0.488531	-0.402569
35535	-10.593749	0.214431	4.597040	-0.729563	0.258567	-0.495655	-0.393962
35536	-10.293034	0.841754	4.143962	-0.728220	0.262637	-0.501166	-0.386717
35537	-9.873350	1.412445	4.984964	-0.727162	0.265977	-0.506219	-0.379782
35538	-10.016645	0.653887	5.577858	-0.726031	0.268755	-0.510536	-0.374171
35539	-10.017508	0.271910	5.087770	-0.725686	0.270143	-0.514180	-0.368812
35540	-9.853768	0.343403	4.540917	-0.726026	0.269910	-0.517679	-0.363376
35541	-9.835774	0.157040	4.649626	-0.726898	0.269223	-0.520220	-0.358483
35542	-9.585947	0.322316	4.408792	-0.728383	0.267374	-0.522342	-0.353735
35543	-9.355853	0.279450	4.168132	-0.730210	0.264726	-0.524025	-0.349445
35544	-9.204837	0.021948	4.008462	-0.732345	0.260763	-0.525726	-0.345376
35545	-8.962592	-0.158873	3.799835	-0.734508	0.255744	-0.527449	-0.341892
35546	-8.921904	-0.139704	3.833429	-0.736778	0.249430	-0.529443	-0.338575
35547	-9.014071	-0.231655	3.985904	-0.739080	0.242954	-0.531181	-0.335531
35548	-9.053085	-0.606398	3.721771	-0.741352	0.236746	-0.532517	-0.332828
35549	-8.971637	-0.732779	3.283529	-0.743733	0.230482	-0.533824	-0.329805
35550	-9.312064	-0.630111	2.880686	-0.746061	0.224276	-0.535283	-0.326444
35551	-9.981209	-0.288083	2.554346	-0.748453	0.218505	-0.536385	-0.323056
35552	-9.974714	0.466069	2.520431	-0.750815	0.213856	-0.537013	-0.319624
35553	-9.693377	1.011492	2.670014	-0.752692	0.210907	-0.537245	-0.316765
35554	-9.386713	0.871667	2.635987	-0.753869	0.210076	-0.536830	-0.315218
35555	-9.176792	0.544240	2.316045	-0.754516	0.210067	-0.536545	-0.314161
35556	-9.085105	0.634476	2.274372	-0.754775	0.210333	-0.536742	-0.313023
35557	-9.138887	0.482245	2.581188	-0.754580	0.211478	-0.537164	-0.311996
35558	-9.119355	0.335902	2.620096	-0.754182	0.212946	-0.537814	-0.310838
35559	-9.211437	-0.095731	2.718845	-0.753734	0.214139	-0.538952	-0.309129
35560	-9.157454	-0.175472	2.699427	-0.753193	0.215515	-0.540289	-0.307151
35561	-9.289356	0.163452	2.780906	-0.752423	0.216878	-0.542098	-0.304883
35562	-9.365478	0.262237	2.958974	-0.751527	0.218298	-0.543981	-0.302718
35563	-9.331169	0.168176	2.940075	-0.750369	0.220183	-0.545917	-0.300734
35564	-9.406794	-0.042114	2.570791	-0.749031	0.222652	-0.547758	-0.298898
35565	-9.408420	-0.134619	2.717255	-0.747728	0.224751	-0.549927	-0.296597
35566	-9.561023	-0.166076	2.814016	-0.746491	0.226510	-0.552291	-0.293972
35567	-9.606092	-0.015572	2.891245	-0.745420	0.227939	-0.554616	-0.291195
35568	-9.820951	0.126431	2.772283	-0.744349	0.229562	-0.556766	-0.288543
35569	-9.898916	-0.000567	2.721477	-0.743441	0.231177	-0.558698	-0.285848
35570	-9.746976	-0.131060	2.677345	-0.742843	0.232264	-0.560607	-0.282767
35571	-9.682073	-0.196128	2.594904	-0.742261	0.232929	-0.562758	-0.279458
35572	-9.684555	-0.133781	2.534941	-0.741992	0.233011	-0.564830	-0.275901
35573	-9.665453	-0.240048	2.597705	-0.741909	0.232795	-0.566917	-0.271998
35574	-9.491326	-0.332053	2.589599	-0.742181	0.231803	-0.569104	-0.267499
35575	-9.542831	-0.323877	2.446436	-0.742641	0.230475	-0.571171	-0.262922
35576	-9.666149	-0.273225	2.476828	-0.743253	0.228381	-0.573427	-0.258065
35577	-9.646920	-0.367288	2.523081	-0.743910	0.225730	-0.575807	-0.253161
35578	-9.663134	-0.534641	2.449135	-0.744412	0.222528	-0.578549	-0.248220
35579	-9.749101	-0.782997	2.620834	-0.744786	0.218577	-0.581710	-0.243169
35580	-9.718573	-0.857634	2.642009	-0.745053	0.213805	-0.585290	-0.237948
35581	-9.749993	-0.457484	2.653892	-0.745151	0.208611	-0.589169	-0.232616
35582	-9.256321	-0.392604	2.678235	-0.744814	0.203564	-0.593176	-0.227939
35583	-9.158893	-0.415212	2.603718	-0.744049	0.198579	-0.597279	-0.224086
35584	-9.413458	-0.515740	2.480198	-0.743048	0.193837	-0.601238	-0.220953
35585	-9.566894	-0.497791	2.329687	-0.742185	0.189365	-0.604776	-0.218056
35586	-9.518069	-0.219181	2.217194	-0.741360	0.185213	-0.608102	-0.215159
35587	-9.304027	0.304382	2.051055	-0.740390	0.181507	-0.611272	-0.212659
35588	-9.221705	0.640584	2.024236	-0.739198	0.178611	-0.614046	-0.211264
35589	-9.259405	0.694535	1.924148	-0.737787	0.176211	-0.616639	-0.210659
35590	-9.361430	0.585472	1.779169	-0.736267	0.174079	-0.619150	-0.210384
35591	-9.483451	0.407272	1.755995	-0.734758	0.171822	-0.621652	-0.210135
35592	-9.478937	0.449255	1.844686	-0.733320	0.169496	-0.624051	-0.209937
35593	-9.357001	0.599771	1.852046	-0.731806	0.167595	-0.626285	-0.210092
35594	-9.419826	0.635483	1.947633	-0.730191	0.166241	-0.628313	-0.210732
35595	-9.563456	0.445057	1.939012	-0.728583	0.165857	-0.629802	-0.212150
35596	-9.761418	0.270802	1.737827	-0.727076	0.165807	-0.631049	-0.213648
35597	-9.966936	0.416662	1.593008	-0.725804	0.165808	-0.632071	-0.214948
35598	-10.032462	0.691413	1.706094	-0.724743	0.165925	-0.632832	-0.216195
35599	-10.048926	0.780968	1.807268	-0.723795	0.166372	-0.633285	-0.217696
35600	-10.069051	0.627287	1.705786	-0.723058	0.167312	-0.633275	-0.219445
35601	-9.909199	0.563540	1.515319	-0.722505	0.168816	-0.632854	-0.221320
35602	-9.689246	0.433259	1.443576	-0.722107	0.170576	-0.632200	-0.223133
35603	-9.605517	0.470092	1.494259	-0.721874	0.172286	-0.631421	-0.224772
35604	-9.651921	0.480512	1.641866	-0.721845	0.173953	-0.630412	-0.226409
35605	-9.709343	0.315625	1.834602	-0.722071	0.175500	-0.629203	-0.227852
35606	-9.683881	0.164235	1.798452	-0.722515	0.177267	-0.627698	-0.229225
35607	-9.745990	0.029125	1.822745	-0.723062	0.179220	-0.626028	-0.230546
35608	-9.784067	-0.043474	1.930657	-0.723740	0.181302	-0.624153	-0.231868
35609	-9.838929	-0.220994	1.968424	-0.724538	0.183444	-0.622121	-0.233149
35610	-9.823880	-0.121499	1.866472	-0.725392	0.185805	-0.619945	-0.234418
35611	-9.722374	-0.123647	2.033038	-0.726301	0.188111	-0.617768	-0.235508
35612	-9.688651	-0.158281	2.137447	-0.727317	0.190290	-0.615534	-0.236470
35613	-9.642260	-0.174732	2.119085	-0.728354	0.192392	-0.613264	-0.237472
35614	-9.674357	-0.311305	2.023367	-0.729287	0.194721	-0.610924	-0.238737
35615	-9.667408	-0.500061	1.997409	-0.730273	0.196860	-0.608640	-0.239802
35616	-9.624257	-0.504499	2.089692	-0.731411	0.198627	-0.606472	-0.240368
35617	-9.572515	-0.317756	2.140800	-0.732597	0.200198	-0.604325	-0.240861
35618	-9.603135	-0.186404	2.127939	-0.733597	0.201961	-0.602230	-0.241590
35619	-9.567202	-0.101319	2.161972	-0.734525	0.203834	-0.600050	-0.242620
35620	-9.578386	0.070901	2.167248	-0.735326	0.205762	-0.597912	-0.243844
35621	-9.591565	0.049031	2.226435	-0.736080	0.207929	-0.595633	-0.245300
35622	-9.561838	-0.101258	2.259628	-0.736859	0.210203	-0.593259	-0.246775
35623	-9.445413	-0.162237	2.140441	-0.737607	0.212506	-0.590844	-0.248355
35624	-9.428468	-0.324448	2.189039	-0.738298	0.214973	-0.588356	-0.250079
35625	-9.478760	-0.206247	2.233436	-0.738911	0.217658	-0.585791	-0.251961
35626	-9.425855	-0.131962	2.280315	-0.739434	0.220619	-0.583094	-0.254098
35627	-9.452909	-0.185139	2.324360	-0.739876	0.223730	-0.580348	-0.256369
35628	-9.622981	-0.384790	2.204017	-0.740252	0.227014	-0.577543	-0.258720
35629	-9.679864	-0.306507	2.051805	-0.740681	0.230066	-0.574797	-0.260902
35630	-9.645030	-0.182167	2.136906	-0.741107	0.232827	-0.572250	-0.262834
35631	-9.541953	0.031993	2.303093	-0.741506	0.235387	-0.569832	-0.264675
35632	-9.365275	-0.262917	2.368384	-0.741749	0.238271	-0.567344	-0.266751
35633	-9.241266	-0.717726	2.251263	-0.742035	0.241060	-0.564897	-0.268636
35634	-9.190929	-0.894255	2.178346	-0.742352	0.243581	-0.562659	-0.270178
35635	-9.184556	-0.835141	2.443801	-0.742849	0.245389	-0.560750	-0.271146
35636	-9.223497	-0.871429	2.546086	-0.743366	0.246705	-0.559168	-0.271800
35637	-9.261184	-0.948830	2.446360	-0.743890	0.247365	-0.558077	-0.272007
35638	-9.313641	-0.998718	2.536371	-0.744399	0.247257	-0.557633	-0.271624
35639	-9.474700	-0.866159	2.575937	-0.744946	0.246713	-0.557564	-0.270759
35640	-9.606418	-0.580144	2.482868	-0.745420	0.246195	-0.557647	-0.269751
35641	-9.658109	-0.359117	2.480568	-0.745813	0.245870	-0.557728	-0.268795
35642	-9.579575	-0.201023	2.532641	-0.745994	0.245979	-0.557806	-0.268028
35643	-9.524055	-0.190655	2.558429	-0.745909	0.246351	-0.557992	-0.267535
35644	-9.470055	-0.289876	2.577847	-0.745670	0.246844	-0.558282	-0.267145
35645	-9.468268	-0.430453	2.584906	-0.745339	0.247280	-0.558768	-0.266648
35646	-9.432323	-0.369572	2.540030	-0.744986	0.247660	-0.559374	-0.266010
35647	-9.402698	-0.304793	2.580014	-0.744624	0.248018	-0.560039	-0.265291
35648	-9.370157	-0.304643	2.530398	-0.744290	0.248122	-0.560843	-0.264430
35649	-9.349477	-0.090387	2.568507	-0.744038	0.247901	-0.561815	-0.263281
35650	-9.333511	0.028590	2.825315	-0.744018	0.247354	-0.562751	-0.261849
35651	-9.345766	-0.098308	3.004201	-0.744242	0.246799	-0.563472	-0.260180
35652	-9.328224	-0.156838	3.065888	-0.744669	0.246148	-0.564126	-0.258148
35653	-9.242947	-0.098630	3.024023	-0.745221	0.245349	-0.564712	-0.256027
35654	-9.058145	-0.012098	2.999451	-0.745800	0.244077	-0.565477	-0.253858
35655	-9.162030	0.189339	3.183037	-0.746196	0.242450	-0.566547	-0.251860
35656	-9.293154	0.010536	3.409194	-0.746481	0.240641	-0.567716	-0.250113
35657	-9.181828	-0.065778	3.453581	-0.746840	0.238375	-0.568983	-0.248326
35658	-8.868591	-0.192359	3.502128	-0.747202	0.235676	-0.570447	-0.246448
35659	-8.843037	-0.214401	3.736481	-0.747415	0.232719	-0.572172	-0.244607
35660	-8.835575	-0.106002	3.925925	-0.747704	0.229308	-0.574031	-0.242580
35661	-8.860296	0.239862	3.812192	-0.747995	0.225814	-0.575948	-0.240406
35662	-8.733324	0.473032	3.769483	-0.748236	0.222475	-0.577833	-0.238238
35663	-8.874998	0.478836	3.661290	-0.748374	0.219325	-0.579669	-0.236257
35664	-9.010321	0.458797	3.621822	-0.748234	0.216373	-0.581684	-0.234461
35665	-9.253585	0.471443	3.653635	-0.747757	0.213733	-0.583930	-0.232818
35666	-9.412153	0.468714	3.660423	-0.747070	0.211405	-0.586186	-0.231474
35667	-9.401662	0.331082	3.544963	-0.746151	0.209447	-0.588440	-0.230499
35668	-9.459791	-0.019786	3.442407	-0.745070	0.207685	-0.590771	-0.229625
35669	-9.619026	-0.438983	3.236449	-0.743974	0.206102	-0.593030	-0.228778
35670	-9.884104	-0.857768	2.850841	-0.743067	0.204391	-0.595231	-0.227543
35671	-10.234962	-0.961338	2.667173	-0.742303	0.202494	-0.597471	-0.225856
35672	-10.742737	-0.995127	2.518077	-0.741715	0.200536	-0.599618	-0.223838
35673	-10.653661	-0.990995	2.323850	-0.741288	0.198507	-0.601612	-0.221697
35674	-10.134065	-1.152979	2.201266	-0.740862	0.195987	-0.603792	-0.219425
35675	-9.604826	-1.353680	1.983184	-0.740570	0.192270	-0.606304	-0.216756
35676	-9.529106	-1.507418	1.537973	-0.740574	0.187132	-0.609094	-0.213392
35677	-9.811367	-1.494172	1.024482	-0.741084	0.180988	-0.611784	-0.209185
35678	-10.008286	-1.026083	0.937755	-0.742115	0.174338	-0.614139	-0.204215
35679	-10.111537	-0.566782	1.157444	-0.743392	0.168268	-0.615886	-0.199343
35680	-10.062432	-0.269045	1.223012	-0.744865	0.163312	-0.616776	-0.195177
35681	-10.146744	-0.229503	1.191127	-0.746333	0.159595	-0.616985	-0.191954
35682	-10.411125	-0.476410	1.112847	-0.747937	0.156655	-0.616614	-0.189303
35683	-10.508103	-0.761473	1.087530	-0.749788	0.153969	-0.615844	-0.186675
35684	-10.173711	-0.820004	1.133508	-0.751728	0.151523	-0.614878	-0.184040
35685	-9.712076	-0.832232	1.354818	-0.753564	0.148841	-0.614070	-0.181398
35686	-9.483805	-0.894874	1.488948	-0.755209	0.145882	-0.613508	-0.178844
35687	-9.474184	-0.959560	1.474389	-0.756733	0.142626	-0.613114	-0.176364
35688	-9.734524	-1.079181	1.423002	-0.758207	0.139037	-0.612855	-0.173781
35689	-9.882723	-1.005628	1.370846	-0.759801	0.135278	-0.612518	-0.170947
35690	-9.882341	-0.927925	1.456112	-0.761476	0.131589	-0.612115	-0.167792
35691	-9.807042	-0.691017	1.452705	-0.763233	0.128364	-0.611485	-0.164574
35692	-9.581885	-0.501380	1.549174	-0.764860	0.125697	-0.610801	-0.161588
35693	-9.484644	-0.388399	1.654072	-0.766376	0.123222	-0.610130	-0.158827
35694	-9.554926	-0.283311	1.613679	-0.767882	0.121121	-0.609265	-0.156469
35695	-9.713499	-0.227710	1.669687	-0.769323	0.119966	-0.608092	-0.154836
35696	-9.667918	-0.695532	1.801904	-0.770484	0.119413	-0.607038	-0.153623
35697	-9.606660	-0.854089	1.830342	-0.771428	0.118759	-0.606293	-0.152329
35698	-9.272198	-0.678201	1.955187	-0.772223	0.117683	-0.605863	-0.150839
35699	-9.091883	-0.347963	2.225664	-0.772697	0.116284	-0.605923	-0.149247
35700	-8.858650	-0.131447	2.302849	-0.772998	0.115114	-0.606106	-0.147845
35701	-8.727128	-0.103676	2.113579	-0.773256	0.114047	-0.606275	-0.146624
35702	-8.650986	-0.095697	1.882862	-0.773437	0.113134	-0.606421	-0.145771
35703	-8.727925	-0.188131	1.822307	-0.773474	0.112501	-0.606618	-0.145244
35704	-8.829192	-0.347325	1.927421	-0.773312	0.111716	-0.607110	-0.144657
35705	-9.013421	-0.197422	2.141402	-0.772969	0.110638	-0.607961	-0.143737
35706	-9.173543	0.105257	2.280270	-0.772494	0.109544	-0.609015	-0.142669
35707	-9.369038	0.275850	2.328707	-0.772003	0.108566	-0.610022	-0.141769
35708	-9.533597	0.248505	2.165679	-0.771538	0.107807	-0.610853	-0.141298
35709	-9.600755	-0.006480	1.990769	-0.771063	0.107129	-0.611617	-0.141100
35710	-9.627983	-0.141069	1.993332	-0.770519	0.106173	-0.612571	-0.140657
35711	-9.936945	0.115814	2.147316	-0.769915	0.104992	-0.613742	-0.139744
35712	-10.220342	0.570832	2.314655	-0.769312	0.104157	-0.614874	-0.138710
35713	-10.145953	0.784290	2.303801	-0.768825	0.103869	-0.615735	-0.137805
35714	-10.029796	0.857339	2.186920	-0.768333	0.103994	-0.616458	-0.137218
35715	-10.100729	0.869189	2.139559	-0.767777	0.104261	-0.617209	-0.136753
35716	-10.163526	0.960960	2.113361	-0.767285	0.104715	-0.617820	-0.136404
35717	-9.983304	1.042619	2.028065	-0.766909	0.105599	-0.618147	-0.136360
35718	-9.795526	0.956187	1.931591	-0.766501	0.107196	-0.618236	-0.137004
35719	-9.461687	0.598564	1.941265	-0.766146	0.109293	-0.618039	-0.138217
35720	-9.329901	0.354334	1.993067	-0.765730	0.111887	-0.617689	-0.139996
35721	-9.376214	0.053432	2.075883	-0.765313	0.114746	-0.617192	-0.142139
35722	-9.490609	-0.194132	2.068810	-0.765052	0.117743	-0.616431	-0.144375
35723	-9.638614	-0.327942	2.114926	-0.765001	0.120996	-0.615304	-0.146744
35724	-9.681646	-0.418022	2.114743	-0.765172	0.124504	-0.613795	-0.149216
35725	-9.582404	-0.516079	2.102471	-0.765327	0.128232	-0.612164	-0.151943
35726	-9.629299	-0.666757	2.215558	-0.765389	0.131842	-0.610635	-0.154671
35727	-9.785004	-0.589863	2.216694	-0.765508	0.134966	-0.609182	-0.157091
35728	-10.033068	-0.433091	2.096219	-0.765745	0.137716	-0.607739	-0.159129
35729	-10.198165	-0.202540	2.046023	-0.766160	0.140362	-0.606137	-0.160920
35730	-10.082864	-0.174043	1.942905	-0.766728	0.143431	-0.604127	-0.163051
35731	-9.664327	-0.288151	1.926024	-0.767244	0.146985	-0.601888	-0.165718
35732	-9.272785	-0.519756	2.005203	-0.767479	0.150964	-0.599666	-0.169076
35733	-9.078843	-0.779723	2.018236	-0.767488	0.154989	-0.597569	-0.172773
35734	-9.387498	-0.944387	2.142179	-0.767446	0.158693	-0.595534	-0.176587
35735	-9.802634	-1.251818	2.126584	-0.767517	0.161911	-0.593533	-0.180058
35736	-9.892113	-1.244731	2.180971	-0.767721	0.164855	-0.591475	-0.183262
35737	-9.447301	-1.196005	2.372632	-0.767848	0.167845	-0.589411	-0.186634
35738	-8.937936	-1.405875	2.500597	-0.767682	0.170749	-0.587611	-0.190324
35739	-9.084888	-1.698132	2.524481	-0.767360	0.172932	-0.586253	-0.193806
35740	-9.779302	-1.738091	2.301725	-0.767320	0.174119	-0.585046	-0.196528
35741	-10.126808	-1.603015	2.005155	-0.767601	0.175093	-0.583691	-0.198585
35742	-10.073991	-1.304294	2.083239	-0.767966	0.176070	-0.582338	-0.200274
35743	-9.675802	-1.127848	2.285336	-0.768151	0.177478	-0.580933	-0.202393
35744	-9.298970	-1.245470	2.253272	-0.768059	0.178994	-0.579676	-0.204993
35745	-9.374442	-1.101983	2.165714	-0.767805	0.179788	-0.578912	-0.207395
35746	-9.667687	-1.027432	1.996442	-0.767763	0.179863	-0.578182	-0.209513
35747	-9.541963	-1.209452	1.777536	-0.767825	0.179750	-0.577381	-0.211580
35748	-9.208617	-1.430498	1.912982	-0.767756	0.179553	-0.576754	-0.213696
35749	-9.039182	-1.385588	2.253660	-0.767449	0.179586	-0.576194	-0.216267
35750	-9.035414	-1.750595	2.342626	-0.766899	0.179798	-0.575758	-0.219183
35751	-9.165634	-2.016884	2.283815	-0.766347	0.179292	-0.575812	-0.221377
35752	-9.239897	-1.767651	2.105014	-0.766191	0.177583	-0.576199	-0.222283
35753	-9.144045	-1.313774	1.974194	-0.766342	0.174735	-0.576952	-0.222069
35754	-8.945923	-0.833348	1.962375	-0.766419	0.171384	-0.578098	-0.221429
35755	-8.646327	-0.309163	2.161585	-0.766321	0.168150	-0.579406	-0.220829
35756	-8.535398	-0.020571	2.488560	-0.765967	0.165212	-0.580874	-0.220421
35757	-8.683479	0.085096	2.631773	-0.765275	0.162945	-0.582328	-0.220673
35758	-8.958874	-0.340700	2.841789	-0.764175	0.161009	-0.584164	-0.221055
35759	-9.386359	-0.308808	3.048267	-0.763227	0.158787	-0.586247	-0.220420
35760	-9.347618	-0.146316	3.164185	-0.762250	0.156532	-0.588776	-0.218667
35761	-9.323031	0.268647	3.142497	-0.761082	0.153579	-0.592073	-0.215908
35762	-9.220988	1.111164	3.008503	-0.759833	0.149975	-0.595851	-0.212424
35763	-9.182225	1.905242	2.917968	-0.758524	0.146262	-0.599717	-0.208777
35764	-9.017520	2.266156	2.707476	-0.757289	0.143497	-0.603020	-0.205643
35765	-9.062264	2.434507	2.330774	-0.756132	0.141829	-0.605741	-0.203044
35766	-9.423861	2.366253	2.101002	-0.755048	0.141124	-0.607938	-0.200991
35767	-9.958575	2.259217	2.229098	-0.754062	0.141316	-0.609582	-0.199575
35768	-10.351689	2.125344	2.504689	-0.753148	0.142460	-0.610658	-0.198923
35769	-10.514911	1.834160	2.722399	-0.752248	0.144364	-0.611283	-0.199037
35770	-10.539417	1.245454	2.746042	-0.751353	0.146739	-0.611534	-0.199908
35771	-10.456347	0.686314	2.603183	-0.750647	0.148668	-0.611609	-0.200902
35772	-10.236945	0.138580	2.650853	-0.750187	0.149763	-0.611719	-0.201473
35773	-9.996320	-0.128797	2.608322	-0.750137	0.149643	-0.611942	-0.201065
35774	-9.808056	-0.058023	2.432977	-0.750682	0.148625	-0.611879	-0.199979
35775	-9.673158	0.087260	2.350738	-0.751516	0.147478	-0.611607	-0.198521
35776	-9.615714	0.190304	2.433292	-0.752577	0.146470	-0.611079	-0.196868
35777	-9.631605	0.456825	2.433246	-0.753908	0.145644	-0.610121	-0.195354
35778	-9.595172	0.506995	2.178813	-0.755248	0.145248	-0.608853	-0.194428
35779	-9.770808	0.355017	1.908738	-0.756600	0.145196	-0.607321	-0.194002
35780	-9.818306	0.188516	1.741234	-0.758050	0.145401	-0.605483	-0.193929
35781	-9.825724	0.061350	1.689701	-0.759395	0.146021	-0.603520	-0.194323
35782	-9.788542	-0.016694	1.888660	-0.760523	0.147205	-0.601447	-0.195437
35783	-9.754932	-0.218949	2.080214	-0.761495	0.148794	-0.599237	-0.197233
35784	-9.601596	-0.663129	1.963426	-0.762404	0.150685	-0.596854	-0.199497
35785	-9.506115	-0.997285	1.665053	-0.763221	0.152322	-0.594658	-0.201676
35786	-9.426602	-1.064392	1.652691	-0.764110	0.153246	-0.592689	-0.203400
35787	-9.281698	-0.691006	1.684794	-0.765035	0.153442	-0.590942	-0.204853
35788	-9.082374	-0.592284	1.561394	-0.765747	0.153178	-0.589467	-0.206630
35789	-9.156596	-0.352898	1.220013	-0.766434	0.152315	-0.588062	-0.208713
35790	-9.287894	-0.279339	1.013986	-0.767226	0.151379	-0.586398	-0.211155
35791	-9.606797	-0.243997	0.943636	-0.768091	0.150431	-0.584602	-0.213651
35792	-10.085605	-0.296627	0.883122	-0.768929	0.149518	-0.582743	-0.216341
35793	-10.423945	0.057559	1.021803	-0.769786	0.148206	-0.580868	-0.219218
35794	-10.693132	0.933072	1.373595	-0.770616	0.146692	-0.578969	-0.222324
35795	-10.819010	1.411785	1.886052	-0.771187	0.145887	-0.577050	-0.225835
35796	-10.876461	1.442730	2.180113	-0.771448	0.146369	-0.574871	-0.230148
35797	-11.123923	1.396134	2.287036	-0.771342	0.147673	-0.572735	-0.234945
35798	-11.340261	1.240062	2.489142	-0.771051	0.149331	-0.570655	-0.239862
35799	-11.162082	1.136071	2.640747	-0.770672	0.151345	-0.568605	-0.244637
35800	-10.310690	1.060025	2.603479	-0.770257	0.153488	-0.566550	-0.249332
35801	-9.114220	1.141964	2.695492	-0.769788	0.155058	-0.564874	-0.253576
35802	-8.230850	1.414726	2.786424	-0.769179	0.156178	-0.563597	-0.257547
35803	-7.874661	1.710028	3.039603	-0.768358	0.157157	-0.562660	-0.261424
35804	-8.065485	1.793020	3.534348	-0.767291	0.158655	-0.561724	-0.265630
35805	-8.467759	1.460337	3.969259	-0.766036	0.161296	-0.560386	-0.270444
35806	-8.736040	0.881877	4.157561	-0.764681	0.164901	-0.558657	-0.275630
35807	-8.866846	0.458810	4.017198	-0.763082	0.169171	-0.556841	-0.281096
35808	-8.908807	0.180182	4.037087	-0.761218	0.173179	-0.555518	-0.286280
35809	-8.750150	0.235209	4.257431	-0.759121	0.176504	-0.554921	-0.290937
35810	-8.765924	0.529605	4.297739	-0.756860	0.178955	-0.555093	-0.294973
35811	-8.664701	0.624612	4.109836	-0.754681	0.181033	-0.555259	-0.298950
35812	-8.392208	0.580368	3.955724	-0.752430	0.183158	-0.555513	-0.302832
35813	-8.308315	0.581528	4.007254	-0.749964	0.185312	-0.556110	-0.306523
35814	-8.377604	0.822504	4.132606	-0.747416	0.187478	-0.556790	-0.310172
35815	-8.430102	0.884252	3.991907	-0.744689	0.189870	-0.557374	-0.314201
35816	-8.679181	0.674510	3.833398	-0.741905	0.192235	-0.557875	-0.318430
35817	-8.794904	0.307973	3.689772	-0.739316	0.194245	-0.558412	-0.322268
35818	-8.863791	0.237931	3.666207	-0.736903	0.195967	-0.559084	-0.325572
35819	-8.988939	0.537049	3.774928	-0.734765	0.197435	-0.559767	-0.328332
35820	-8.907579	0.831039	3.892941	-0.732779	0.199077	-0.560288	-0.330878
35821	-8.724276	0.982114	3.858598	-0.730872	0.201192	-0.560421	-0.333582
35822	-8.468214	1.133067	3.757605	-0.729029	0.203512	-0.560261	-0.336463
35823	-8.337040	0.743821	3.700265	-0.727114	0.205968	-0.560003	-0.339528
35824	-8.430420	0.409479	3.526085	-0.725304	0.208174	-0.559731	-0.342489
35825	-8.645324	0.171397	3.349434	-0.723716	0.209962	-0.559527	-0.345082
35826	-8.969065	0.229047	3.561705	-0.722365	0.211395	-0.559579	-0.346947
35827	-9.277664	0.320849	3.802039	-0.721353	0.212567	-0.559605	-0.348291
35828	-9.402657	0.506777	3.902728	-0.720515	0.213519	-0.559685	-0.349314
35829	-9.315344	0.557469	3.881807	-0.719777	0.214238	-0.559820	-0.350177
35830	-9.203298	0.547770	3.704459	-0.719139	0.214532	-0.560079	-0.350894
35831	-9.084904	0.268836	3.416291	-0.718743	0.214334	-0.560373	-0.351357
35832	-9.139676	0.316024	3.259747	-0.718671	0.213577	-0.560847	-0.351209
35833	-9.313282	0.472736	3.250363	-0.718967	0.212454	-0.561347	-0.350484
35834	-9.319826	0.864985	3.142223	-0.719645	0.211108	-0.561707	-0.349329
35835	-9.253699	1.181822	2.997880	-0.720535	0.210026	-0.561557	-0.348385
35836	-9.166657	1.113984	3.083339	-0.721331	0.209152	-0.561231	-0.347789
35837	-9.267258	0.946275	3.058742	-0.722189	0.207998	-0.560818	-0.347365
35838	-9.489597	0.868071	3.070640	-0.723117	0.206647	-0.560429	-0.346868
35839	-9.781238	0.457740	3.118473	-0.724214	0.205483	-0.559631	-0.346561
35840	-10.169895	0.021869	3.401925	-0.725441	0.204036	-0.559013	-0.345846
35841	-10.773206	0.072746	3.511864	-0.726942	0.202253	-0.558522	-0.344533
35842	-10.994844	0.595869	3.404349	-0.729007	0.199754	-0.558128	-0.342258
35843	-10.761770	1.228337	3.405298	-0.731238	0.197273	-0.557775	-0.339500
35844	-10.315667	1.858753	3.604310	-0.733571	0.195266	-0.556911	-0.337039
35845	-9.639009	1.856417	3.441821	-0.735833	0.194300	-0.555004	-0.335810
35846	-9.266263	1.300155	3.233295	-0.737801	0.194190	-0.552504	-0.335676
35847	-9.361546	0.595533	3.323143	-0.739738	0.194038	-0.550034	-0.335559
35848	-9.740383	0.048756	3.697318	-0.741789	0.193657	-0.547822	-0.334867
35849	-9.789031	0.069720	3.933736	-0.743908	0.193111	-0.545653	-0.334025
35850	-9.410766	-0.086305	4.065070	-0.745798	0.192170	-0.543805	-0.333364
35851	-8.782157	-0.134227	3.862591	-0.747625	0.190074	-0.542548	-0.332523
35852	-8.483443	0.155981	3.717603	-0.749495	0.186623	-0.542129	-0.330946
35853	-8.858652	0.523032	3.849297	-0.751370	0.182543	-0.542219	-0.328816
35854	-9.333106	0.530753	3.934263	-0.753318	0.178647	-0.542022	-0.326819
35855	-9.168113	0.390337	3.807004	-0.755316	0.174998	-0.541428	-0.325159
35856	-8.699222	0.335894	3.727219	-0.756978	0.171566	-0.541028	-0.323786
35857	-8.370489	0.387815	3.754744	-0.758400	0.167906	-0.541065	-0.322312
35858	-8.587723	0.787125	3.919797	-0.759613	0.163988	-0.541674	-0.320446
35859	-9.174971	1.091152	3.972222	-0.760705	0.160291	-0.542346	-0.318584
35860	-9.062256	1.129038	3.815070	-0.761705	0.156961	-0.542746	-0.317169
35861	-8.217442	0.653459	3.506273	-0.762343	0.153767	-0.543293	-0.316262
35862	-7.482756	0.726456	3.449284	-0.762693	0.149562	-0.544841	-0.314768
35863	-7.743204	1.472730	3.734804	-0.762675	0.144930	-0.547273	-0.312753
35864	-8.714574	1.883749	3.985521	-0.762582	0.141069	-0.549389	-0.311029
35865	-9.327651	1.689164	3.797805	-0.762509	0.138221	-0.550892	-0.309829
35866	-9.197706	1.221979	3.478723	-0.762389	0.136198	-0.551909	-0.309207
35867	-8.352251	1.065993	3.233330	-0.762287	0.133667	-0.553306	-0.308066
35868	-7.659468	1.808285	3.362225	-0.762075	0.130396	-0.555402	-0.306214
35869	-7.985585	2.492051	3.902470	-0.761631	0.127357	-0.557772	-0.304283
35870	-8.692997	2.463857	4.216069	-0.761164	0.125242	-0.559574	-0.303020
35871	-8.874056	1.859901	4.134102	-0.760697	0.123916	-0.560812	-0.302446
35872	-8.621728	1.290655	3.868930	-0.760172	0.122609	-0.562078	-0.301950
35873	-8.328563	1.526516	3.669773	-0.759707	0.120320	-0.563951	-0.300545
35874	-8.302678	2.163427	3.767922	-0.759389	0.117459	-0.566077	-0.298476
35875	-8.635028	2.696758	3.885690	-0.759340	0.114742	-0.567888	-0.296208
35876	-8.888733	2.805955	3.830572	-0.759534	0.112698	-0.569055	-0.294251
35877	-8.759958	2.515353	3.816375	-0.759665	0.111168	-0.569920	-0.292819
35878	-8.649928	2.393588	3.851917	-0.759671	0.109644	-0.570819	-0.291623
35879	-8.324152	2.462028	3.743340	-0.759769	0.107893	-0.571666	-0.290359
35880	-7.837304	2.525072	3.441959	-0.760068	0.105919	-0.572350	-0.288953
35881	-7.496630	2.750310	3.203453	-0.760502	0.103786	-0.572924	-0.287442
35882	-7.433474	2.982285	3.401651	-0.760951	0.101931	-0.573370	-0.286026
35883	-7.869563	2.833251	3.636952	-0.761364	0.100550	-0.573683	-0.284785
35884	-8.609833	2.766895	3.918659	-0.761686	0.099723	-0.573957	-0.283662
35885	-9.435321	2.488891	3.973949	-0.762122	0.098927	-0.574178	-0.282317
35886	-9.585407	2.357553	3.813286	-0.762561	0.098306	-0.574404	-0.280887
35887	-9.564015	2.313266	3.721216	-0.762810	0.097507	-0.575019	-0.279226
35888	-9.169922	2.701893	3.688370	-0.762976	0.096671	-0.575677	-0.277702
35889	-8.862743	2.588385	3.795412	-0.762808	0.096276	-0.576472	-0.276648
35890	-9.013553	2.336217	3.634889	-0.762596	0.096086	-0.577133	-0.275921
35891	-9.083304	2.211973	3.353953	-0.762421	0.096039	-0.577693	-0.275248
35892	-9.128331	2.250600	3.169832	-0.762199	0.096133	-0.578293	-0.274570
35893	-9.388406	2.297788	3.185559	-0.761935	0.096508	-0.578769	-0.274166
35894	-9.363656	2.101339	3.214468	-0.761768	0.097317	-0.578804	-0.274273
35895	-9.324477	1.806369	3.209894	-0.761450	0.098294	-0.578900	-0.274602
35896	-9.627767	1.587504	3.253944	-0.761044	0.099108	-0.579180	-0.274847
35897	-10.440827	1.297980	3.465560	-0.760542	0.099724	-0.579721	-0.274871
35898	-11.369019	0.969585	3.344818	-0.760164	0.099935	-0.580245	-0.274736
35899	-11.428146	0.830013	2.868351	-0.760016	0.099699	-0.580650	-0.274374
35900	-10.131229	1.038688	2.620953	-0.759919	0.099242	-0.581099	-0.273858
35901	-8.834789	1.106474	2.713599	-0.759436	0.098671	-0.581960	-0.273577
35902	-8.085757	1.138695	2.630040	-0.758834	0.097792	-0.582863	-0.273637
35903	-7.690814	1.082362	2.561972	-0.758248	0.096836	-0.583646	-0.273933
35904	-7.885164	0.508488	2.482726	-0.757623	0.095784	-0.584530	-0.274150
35905	-8.588702	0.189756	2.337781	-0.757275	0.094459	-0.585355	-0.273809
35906	-9.183175	0.182030	2.425327	-0.757273	0.093016	-0.586006	-0.272914
35907	-9.609204	0.324090	2.334386	-0.757540	0.091837	-0.586432	-0.271656
35908	-9.705144	0.581109	2.249949	-0.758071	0.090703	-0.586712	-0.269944
35909	-9.565456	0.841667	2.171937	-0.758697	0.089588	-0.587006	-0.267913
35910	-9.454773	1.035752	1.998492	-0.759269	0.088939	-0.587241	-0.265985
35911	-9.447528	1.021805	1.930055	-0.759790	0.088718	-0.587413	-0.264188
35912	-9.415441	1.111280	1.723952	-0.760380	0.088679	-0.587483	-0.262341
35913	-9.443443	1.233009	1.701666	-0.760903	0.089082	-0.587581	-0.260460
35914	-9.740488	1.105063	1.925546	-0.761515	0.090009	-0.587465	-0.258607
35915	-9.868359	0.978700	1.933066	-0.762368	0.091450	-0.587023	-0.256583
35916	-9.749209	1.071499	1.797496	-0.763311	0.093598	-0.586377	-0.254476
35917	-9.675568	1.182677	1.854779	-0.764203	0.096417	-0.585699	-0.252296
35918	-9.562746	1.225677	2.044788	-0.764974	0.099842	-0.584992	-0.250262
35919	-9.512034	1.184284	2.087156	-0.765493	0.103500	-0.584467	-0.248409
35920	-9.658567	1.147610	2.089778	-0.765699	0.107477	-0.584083	-0.246983
35921	-9.640369	0.775207	2.315818	-0.765736	0.111630	-0.583823	-0.245637
35922	-9.617727	0.432628	2.538120	-0.765671	0.115842	-0.583694	-0.244194
35923	-9.441218	0.400877	2.670682	-0.765495	0.119825	-0.583808	-0.242545
35924	-9.243111	0.170648	2.859490	-0.765086	0.123398	-0.584274	-0.240917
35925	-9.195084	-0.261258	2.916886	-0.764581	0.126355	-0.585012	-0.239187
35926	-9.399003	-0.377144	2.711839	-0.764165	0.128431	-0.585984	-0.237022
35927	-9.569146	-0.167759	2.688099	-0.763691	0.130171	-0.587225	-0.234518
35928	-9.725566	0.138135	3.042537	-0.763232	0.131617	-0.588538	-0.231898
35929	-9.768674	0.357900	3.078547	-0.762923	0.132625	-0.589714	-0.229339
35930	-9.805264	0.399325	2.766146	-0.762606	0.133308	-0.590843	-0.227080
35931	-9.967552	0.345021	2.476043	-0.762433	0.133576	-0.591888	-0.224771
35932	-9.927632	0.539025	2.472573	-0.762508	0.133436	-0.592845	-0.222063
35933	-9.846080	0.706515	2.610768	-0.762719	0.133272	-0.593620	-0.219348
35934	-9.817276	0.803752	2.531743	-0.763062	0.133220	-0.594082	-0.216921
35935	-9.830404	0.794214	2.479454	-0.763507	0.133106	-0.594330	-0.214736
35936	-9.868989	0.869983	2.527664	-0.764133	0.132861	-0.594307	-0.212717
35937	-9.846327	0.841263	2.599075	-0.764878	0.132697	-0.594049	-0.210853
35938	-9.733308	0.790931	2.487915	-0.765746	0.132669	-0.593520	-0.209203
35939	-9.723211	0.751548	2.542790	-0.766714	0.132408	-0.592922	-0.207512
35940	-9.703193	0.724211	2.567581	-0.767816	0.131942	-0.592197	-0.205798
35941	-9.677587	0.723426	2.533637	-0.769006	0.131370	-0.591360	-0.204119
35942	-9.659441	0.605091	2.577092	-0.770272	0.130993	-0.590287	-0.202690
35943	-9.648561	0.462201	2.673170	-0.771591	0.130712	-0.589088	-0.201337
35944	-9.529252	0.375670	2.672053	-0.772869	0.130580	-0.587884	-0.200039
35945	-9.472713	0.310167	2.616761	-0.774164	0.130381	-0.586661	-0.198746
35946	-9.452469	0.313964	2.608437	-0.775372	0.130018	-0.585596	-0.197410
35947	-9.430956	0.282350	2.689440	-0.776548	0.129398	-0.584631	-0.196048
35948	-9.370824	0.210528	2.657571	-0.777640	0.128632	-0.583837	-0.194588
35949	-9.401900	0.301684	2.600790	-0.778618	0.127757	-0.583223	-0.193086
35950	-9.445087	0.306612	2.697532	-0.779471	0.126697	-0.582818	-0.191560
35951	-9.516004	0.218865	2.830184	-0.780267	0.125569	-0.582505	-0.190007
35952	-9.509148	-0.061141	2.815351	-0.781006	0.124541	-0.582305	-0.188255
35953	-9.382490	-0.120188	2.679060	-0.781658	0.123351	-0.582344	-0.186203
35954	-9.299380	-0.096685	2.553813	-0.782064	0.121889	-0.582871	-0.183795
35955	-9.177932	0.000005	2.356220	-0.782194	0.119940	-0.583971	-0.181008
35956	-9.180645	0.335079	2.352386	-0.782001	0.117826	-0.585540	-0.178142
35957	-9.078478	0.146528	2.610960	-0.781570	0.116234	-0.587191	-0.175627
35958	-9.129173	-0.088282	2.424404	-0.781011	0.115472	-0.588837	-0.173087
35959	-9.111694	0.042073	2.283442	-0.780294	0.115577	-0.590477	-0.170646
35960	-9.151000	-0.046861	2.473306	-0.779388	0.116047	-0.592292	-0.168157
35961	-9.183090	-0.090682	2.388490	-0.778363	0.116636	-0.594285	-0.165446
35962	-9.264606	-0.173687	2.347936	-0.777202	0.117028	-0.596562	-0.162403
35963	-9.358745	-0.052656	2.456220	-0.776044	0.116867	-0.599044	-0.158884
35964	-9.414668	-0.109917	2.614569	-0.774803	0.116764	-0.601600	-0.155319
35965	-9.553880	-0.139423	2.580933	-0.773570	0.116883	-0.604094	-0.151649
35966	-9.578358	0.054861	2.559060	-0.772348	0.117203	-0.606492	-0.148019
35967	-9.677469	-0.106491	2.716993	-0.771001	0.118019	-0.608819	-0.144806
35968	-9.740557	-0.242202	2.630081	-0.769622	0.118452	-0.611248	-0.141517
35969	-9.790324	-0.026801	2.563605	-0.768363	0.118055	-0.613741	-0.137849
35970	-9.729647	0.129738	2.588244	-0.767044	0.116818	-0.616459	-0.134071
35971	-9.738160	0.355698	2.519657	-0.765828	0.114465	-0.619241	-0.130177
35972	-9.710394	0.595733	2.593283	-0.764708	0.111339	-0.621949	-0.126505
35973	-9.815282	0.496042	2.556814	-0.763629	0.107838	-0.624540	-0.123257
35974	-9.918123	0.406093	2.527373	-0.762712	0.104020	-0.626857	-0.120420
35975	-9.898952	0.322985	2.398286	-0.761953	0.099960	-0.628890	-0.118037
35976	-9.920730	0.509902	2.256103	-0.761293	0.095876	-0.630649	-0.116287
35977	-9.895078	0.821956	2.165500	-0.760706	0.092081	-0.632139	-0.115100
35978	-9.746983	1.140180	2.090083	-0.760086	0.089087	-0.633372	-0.114776
35979	-9.709553	1.309548	2.080652	-0.759275	0.085991	-0.634741	-0.114942
35980	-9.796771	1.741323	2.360514	-0.758785	0.081705	-0.635809	-0.115398
35981	-9.585225	2.215616	2.676699	-0.758553	0.076009	-0.636505	-0.116968
35982	-9.712915	1.964866	2.411638	-0.758248	0.069044	-0.637182	-0.119549
35983	-10.078645	1.772267	2.465912	-0.758260	0.062018	-0.637146	-0.123453
35984	-9.942180	1.723320	2.619035	-0.758652	0.054626	-0.636370	-0.128440
35985	-10.123987	1.326600	2.281373	-0.758723	0.045988	-0.635904	-0.133606
35986	-10.240888	0.959690	1.908474	-0.758874	0.037587	-0.635092	-0.139121
35987	-9.939950	0.281184	1.699571	-0.759093	0.029466	-0.634090	-0.144357
35988	-9.727970	0.577463	1.779988	-0.759186	0.021210	-0.633492	-0.147901
35989	-9.557540	0.608042	1.580976	-0.759363	0.014085	-0.632703	-0.151184
35990	-9.292133	0.744927	1.619943	-0.759428	0.007664	-0.632145	-0.153632
35991	-9.302092	1.398613	1.881363	-0.759583	0.002048	-0.631508	-0.155649
35992	-9.342440	1.436709	1.979298	-0.759814	-0.002292	-0.630556	-0.158358
35993	-9.326805	1.391011	1.828154	-0.760261	-0.006148	-0.629301	-0.161077
35994	-9.429326	1.169218	1.590243	-0.760629	-0.008475	-0.628021	-0.164198
