// Start Time: Unknown
// Update Rate: 60.0Hz
// Filter Profile: human (46.1)
// Option Flags: AHS Disabled ICC Disabled 
// Firmware Version: 4.3.5
PacketCounter	Acc_X	Acc_Y	Acc_Z	Quat_q0	Quat_q1	Quat_q2	Quat_q3
43442	9.663888	0.957900	-1.105586	0.663318	0.019691	-0.746607	-0.046897
43443	9.677946	0.932895	-1.073401	0.663378	0.019514	-0.746546	-0.047101
43444	9.626747	0.904981	-1.056307	0.663450	0.019384	-0.746473	-0.047284
43445	9.630323	0.852368	-1.115389	0.663395	0.019319	-0.746514	-0.047449
43446	9.662663	0.827922	-1.094187	0.663421	0.019355	-0.746483	-0.047557
43447	9.714004	0.857443	-1.108693	0.663366	0.019411	-0.746523	-0.047666
43448	9.722807	0.894856	-1.140566	0.663341	0.019479	-0.746540	-0.047730
43449	9.683241	0.890190	-1.055364	0.663352	0.019523	-0.746524	-0.047788
43450	9.625704	0.846426	-1.122530	0.663347	0.019686	-0.746527	-0.047750
43451	9.679473	0.893072	-1.110266	0.663275	0.019863	-0.746587	-0.047733
43452	9.702186	0.863618	-1.133656	0.663188	0.019980	-0.746662	-0.047731
43453	9.666983	0.872551	-1.183690	0.663134	0.020077	-0.746706	-0.047753
43454	9.639403	0.933787	-1.150223	0.663095	0.020127	-0.746736	-0.047795
43455	9.704583	0.937356	-1.135193	0.663067	0.020161	-0.746759	-0.047827
43456	9.691753	0.848131	-1.131236	0.663109	0.020147	-0.746718	-0.047883
43457	9.682392	0.843048	-1.173347	0.663077	0.020200	-0.746745	-0.047877
43458	9.723143	0.840990	-1.137197	0.663057	0.020353	-0.746764	-0.047806
43459	9.675712	0.866372	-1.093923	0.663099	0.020542	-0.746729	-0.047682
43460	9.656165	0.885084	-1.110991	0.663122	0.020734	-0.746714	-0.047524
43461	9.662840	0.913816	-1.076076	0.663059	0.020868	-0.746772	-0.047418
43462	9.654366	0.889751	-1.093201	0.662980	0.020947	-0.746845	-0.047331
43463	9.693132	0.881759	-1.132976	0.662896	0.020955	-0.746922	-0.047304
43464	9.670283	0.869541	-1.133033	0.662849	0.020972	-0.746967	-0.047241
43465	9.666120	0.856389	-1.141703	0.662805	0.020966	-0.747010	-0.047183
43466	9.654818	0.897097	-1.145455	0.662741	0.021018	-0.747073	-0.047058
43467	9.688793	0.905600	-1.124831	0.662724	0.020999	-0.747093	-0.046991
43468	9.651761	0.904799	-1.106815	0.662713	0.020978	-0.747109	-0.046893
43469	9.664383	0.937680	-1.085119	0.662588	0.020888	-0.747225	-0.046869
43470	9.698925	0.916889	-1.133446	0.662479	0.020680	-0.747320	-0.046985
43471	9.662083	0.833083	-1.156651	0.662477	0.020447	-0.747320	-0.047107
43472	9.655978	0.856278	-1.217921	0.662501	0.020391	-0.747301	-0.047090
43473	9.663321	0.894879	-1.087610	0.662511	0.020526	-0.747298	-0.046935
43474	9.648815	0.947891	-1.051224	0.662429	0.020531	-0.747372	-0.046912
43475	9.692905	0.934772	-1.198297	0.662280	0.020546	-0.747507	-0.046866
43476	9.714435	0.919726	-1.108030	0.662229	0.020494	-0.747552	-0.046889
43477	9.688711	0.879306	-1.228604	0.662239	0.020415	-0.747543	-0.046929
43478	9.751685	0.863987	-1.239307	0.662306	0.020249	-0.747478	-0.047084
43479	9.733096	0.936445	-1.279850	0.662521	0.020238	-0.747288	-0.047084
43480	9.634689	1.057630	-1.156275	0.662686	0.020225	-0.747145	-0.047035
43481	9.606066	1.026612	-1.091643	0.662826	0.020106	-0.747021	-0.047084
43482	9.602792	0.888847	-1.156166	0.662956	0.019858	-0.746898	-0.047303
43483	9.600920	0.829260	-1.199845	0.663096	0.019694	-0.746767	-0.047482
43484	9.660701	0.868020	-1.147662	0.663238	0.019572	-0.746633	-0.047672
43485	9.693070	0.967712	-1.061570	0.663352	0.019494	-0.746522	-0.047836
43486	9.673526	1.018200	-1.150583	0.663409	0.019310	-0.746462	-0.048056
43487	9.657845	0.994146	-1.132282	0.663452	0.019099	-0.746420	-0.048204
43488	9.687274	0.926655	-1.183701	0.663569	0.018971	-0.746315	-0.048279
43489	9.715806	0.929525	-1.146514	0.663685	0.018837	-0.746210	-0.048353
43490	9.674707	0.959576	-1.112548	0.663779	0.018679	-0.746122	-0.048477
43491	9.663139	0.978264	-1.159743	0.663833	0.018434	-0.746064	-0.048718
43492	9.682240	0.977270	-1.165190	0.663987	0.018193	-0.745918	-0.048957
43493	9.693808	1.017029	-1.116752	0.664157	0.017884	-0.745759	-0.049189
43494	9.659235	0.969454	-1.133218	0.664368	0.017417	-0.745560	-0.049519
43495	9.711099	0.899794	-1.135955	0.664521	0.016853	-0.745406	-0.049980
43496	9.658545	0.907780	-1.170165	0.664697	0.016341	-0.745232	-0.050400
43497	9.612780	0.870646	-1.115629	0.664868	0.015765	-0.745069	-0.050747
43498	9.690173	0.859126	-1.165546	0.665078	0.015250	-0.744874	-0.051000
43499	9.697268	0.861288	-1.170928	0.665320	0.014846	-0.744657	-0.051138
43500	9.680144	0.921954	-1.088222	0.665439	0.014550	-0.744554	-0.051184
43501	9.688897	0.909134	-0.996335	0.665466	0.014235	-0.744531	-0.051237
43502	9.544320	0.944601	-1.088895	0.665089	0.013989	-0.744873	-0.051236
43503	9.621507	1.055877	-1.051693	0.663534	0.013697	-0.746258	-0.051319
43504	9.757768	0.943945	-0.834719	0.662730	0.013288	-0.746964	-0.051541
43505	9.742712	0.962447	-1.117500	0.662112	0.012619	-0.747486	-0.052078
43506	9.933329	0.850627	-1.341727	0.661765	0.012105	-0.747773	-0.052491
43507	9.993840	0.762091	-1.146377	0.661630	0.011863	-0.747887	-0.052637
43508	9.761185	0.717805	-0.959378	0.661730	0.011883	-0.747807	-0.052513
43509	9.546484	0.622831	-0.894833	0.661802	0.012198	-0.747763	-0.052158
43510	9.410150	0.537766	-0.860779	0.661761	0.012807	-0.747827	-0.051601
43511	9.462741	0.588865	-0.829575	0.661644	0.013702	-0.747960	-0.050942
43512	9.573766	0.628882	-0.869128	0.661343	0.014753	-0.748255	-0.050225
43513	9.723417	0.791077	-1.029750	0.660938	0.015833	-0.748631	-0.049609
43514	9.751882	0.879852	-1.125824	0.660630	0.016779	-0.748919	-0.049067
43515	9.790497	0.943535	-1.244072	0.660447	0.017554	-0.749091	-0.048621
43516	9.764052	0.988537	-1.185589	0.660430	0.018304	-0.749114	-0.048214
43517	9.701874	1.101916	-1.178965	0.660478	0.018786	-0.749074	-0.048006
43518	9.579028	1.067188	-1.166747	0.660457	0.018961	-0.749091	-0.047956
43519	9.545647	1.026188	-1.113796	0.660473	0.018880	-0.749073	-0.048045
43520	9.684113	0.960709	-1.202307	0.660483	0.018684	-0.749059	-0.048208
43521	9.627734	0.909798	-1.288947	0.660480	0.018545	-0.749060	-0.048282
43522	9.602041	0.963011	-1.278089	0.660153	0.018436	-0.749351	-0.048284
43523	9.686034	0.944473	-1.254601	0.659715	0.018205	-0.749737	-0.048366
43524	9.780396	0.943307	-1.234055	0.659489	0.017832	-0.749930	-0.048588
43525	9.785778	0.933969	-1.201712	0.659460	0.017289	-0.749947	-0.048928
43526	9.736260	0.868857	-1.273003	0.659496	0.016647	-0.749904	-0.049314
43527	9.703440	0.824453	-1.218378	0.659552	0.016074	-0.749842	-0.049683
43528	9.714449	0.766495	-1.167980	0.659549	0.015614	-0.749835	-0.049990
43529	9.704950	0.731532	-1.277796	0.659520	0.015264	-0.749853	-0.050210
43530	9.663804	0.747578	-1.198193	0.659631	0.015178	-0.749759	-0.050182
43531	9.730410	0.802560	-1.206291	0.659730	0.015150	-0.749674	-0.050155
43532	9.735676	0.854357	-1.173406	0.659940	0.015181	-0.749491	-0.050118
43533	9.700816	0.964176	-1.201138	0.660159	0.015139	-0.749294	-0.050195
43534	9.725086	0.873229	-1.210001	0.660442	0.014995	-0.749037	-0.050354
43535	9.784121	0.805084	-1.242946	0.660759	0.015003	-0.748755	-0.050378
43536	9.781863	0.848132	-1.266905	0.661164	0.015054	-0.748393	-0.050434
43537	9.804014	0.924902	-1.242085	0.661661	0.015075	-0.747950	-0.050473
43538	9.795859	0.938628	-1.294345	0.662444	0.014955	-0.747251	-0.050587
43539	9.689240	0.925870	-1.328289	0.663618	0.014865	-0.746213	-0.050571
43540	9.587144	0.910563	-1.301591	0.664910	0.014683	-0.745061	-0.050619
43541	9.589031	0.941144	-1.180428	0.666203	0.014565	-0.743910	-0.050591
43542	9.595419	0.904318	-1.019234	0.667428	0.014343	-0.742810	-0.050664
43543	9.548043	0.905209	-1.048498	0.668543	0.014004	-0.741804	-0.050807
43544	9.515399	0.894079	-1.096077	0.669657	0.013665	-0.740792	-0.050995
43545	9.559320	0.805858	-1.070784	0.670807	0.013394	-0.739742	-0.051199
43546	9.679468	0.898026	-0.967926	0.671931	0.013444	-0.738720	-0.051196
43547	9.737609	1.083075	-0.832445	0.673015	0.013469	-0.737728	-0.051257
43548	9.634476	1.191494	-0.693769	0.674104	0.013175	-0.736725	-0.051441
43549	9.487127	0.990765	-0.628217	0.675096	0.012521	-0.735800	-0.051837
43550	9.489703	0.801800	-0.791140	0.675875	0.012039	-0.735068	-0.052173
43551	9.578206	0.694436	-0.796003	0.676654	0.011803	-0.734339	-0.052409
43552	9.663349	0.616136	-0.734633	0.677310	0.011793	-0.733727	-0.052507
43553	9.646302	0.576201	-0.728477	0.678063	0.012073	-0.733034	-0.052405
43554	9.541422	0.745219	-0.553115	0.678653	0.012579	-0.732499	-0.052126
43555	9.571601	0.842806	-0.585083	0.678990	0.012985	-0.732194	-0.051922
43556	9.761951	0.837406	-0.659490	0.679231	0.013166	-0.731967	-0.051932
43557	9.900837	0.823161	-0.565111	0.679513	0.013498	-0.731705	-0.051837
43558	9.880258	0.850527	-0.371425	0.679811	0.013666	-0.731417	-0.051954
43559	9.760182	0.810805	-0.509149	0.679970	0.013878	-0.731261	-0.052023
43560	9.805319	0.817177	-0.664713	0.679906	0.014143	-0.731312	-0.052070
43561	9.931584	0.869187	-0.531477	0.679982	0.014620	-0.731248	-0.051841
43562	9.956988	0.935629	-0.367961	0.680287	0.015004	-0.730981	-0.051499
43563	9.822996	1.001321	-0.364309	0.680538	0.015226	-0.730762	-0.051209
43564	9.693998	0.936334	-0.447073	0.680558	0.015253	-0.730756	-0.051027
43565	9.743164	1.007721	-0.232584	0.680613	0.015023	-0.730709	-0.051028
43566	9.906563	0.995316	-0.219108	0.680529	0.014477	-0.730773	-0.051395
43567	9.947989	0.865300	-0.432565	0.680165	0.013853	-0.731090	-0.051874
43568	10.034953	0.755848	-0.280317	0.679904	0.012926	-0.731305	-0.052510
43569	10.050029	0.560149	-0.335083	0.680054	0.011998	-0.731137	-0.053121
43570	9.973360	0.582169	-0.615488	0.680388	0.011462	-0.730817	-0.053360
43571	10.103355	0.620792	-0.678276	0.680588	0.010745	-0.730615	-0.053715
43572	10.364526	0.401024	-0.909547	0.681250	0.010141	-0.729991	-0.053934
43573	10.443911	0.641966	-0.478646	0.682896	0.009762	-0.728463	-0.053845
43574	10.078432	0.968268	0.007521	0.684999	0.009023	-0.726493	-0.053870
43575	10.015283	0.902741	-0.168914	0.686951	0.007866	-0.724637	-0.054203
43576	9.968388	0.546791	-0.057705	0.689355	0.006644	-0.722330	-0.054623
43577	10.101840	0.639809	-0.118661	0.691641	0.005690	-0.720127	-0.054930
43578	10.313998	0.892138	-0.193203	0.694167	0.004834	-0.717684	-0.055124
43579	10.250031	0.746965	-0.358053	0.697381	0.004025	-0.714553	-0.055289
43580	10.106826	0.415826	-0.197900	0.701458	0.003541	-0.710560	-0.055216
43581	10.020461	0.297442	0.372892	0.706240	0.003286	-0.705833	-0.054910
43582	10.862172	0.799593	0.710410	0.710858	0.003686	-0.701264	-0.053822
43583	11.212874	1.898855	0.447890	0.716290	0.003632	-0.695735	-0.053560
43584	8.361171	1.926990	0.721439	0.724444	0.004726	-0.687242	-0.053450
43585	6.012317	-0.127628	0.420051	0.730044	0.006075	-0.681284	-0.053401
43586	11.311088	-0.032970	0.570962	0.734595	0.006241	-0.676282	-0.054537
43587	12.183890	0.710023	1.017942	0.743039	0.008054	-0.667048	-0.053617
43588	9.909770	1.235214	1.671952	0.752805	0.009415	-0.656051	-0.052853
43589	8.301885	1.590681	2.232879	0.761539	0.010535	-0.645889	-0.052682
43590	8.466812	1.266479	0.959608	0.768461	0.010733	-0.637546	-0.053726
43591	8.256364	1.373631	1.836781	0.775874	0.010497	-0.628385	-0.055150
43592	8.891798	0.875504	1.204089	0.782597	0.009578	-0.619864	-0.056731
43593	9.118917	0.634720	1.139955	0.790147	0.008960	-0.610082	-0.058206
43594	8.899146	0.659601	2.142942	0.797930	0.008399	-0.599695	-0.060030
43595	8.901540	0.727376	1.770923	0.805266	0.007834	-0.589603	-0.062083
43596	8.863607	0.838785	2.554295	0.812881	0.007764	-0.578874	-0.063796
43597	9.065140	0.928562	2.813845	0.820074	0.007415	-0.568461	-0.065396
43598	8.787650	0.710412	3.046690	0.827007	0.007009	-0.558156	-0.066866
43599	8.580344	0.531128	2.610520	0.832921	0.007099	-0.549132	-0.068172
43600	8.770957	0.931875	2.917836	0.838663	0.008001	-0.540198	-0.069038
43601	9.049512	1.239115	3.512187	0.843641	0.008524	-0.532297	-0.069687
43602	8.807481	1.281674	4.033791	0.848063	0.008868	-0.525165	-0.070091
43603	8.688908	1.143401	4.111158	0.851100	0.008906	-0.520146	-0.070687
43604	8.900585	1.105073	4.318252	0.853229	0.008882	-0.516548	-0.071410
43605	9.398793	1.061070	4.342230	0.854484	0.008760	-0.514369	-0.072147
43606	9.293486	0.857513	4.444860	0.855120	0.008632	-0.513225	-0.072764
43607	9.285211	0.722619	4.655894	0.855054	0.008629	-0.513277	-0.073178
43608	9.195339	0.874937	4.614784	0.854070	0.008677	-0.514864	-0.073513
43609	9.517455	1.065546	4.131131	0.852155	0.008792	-0.517985	-0.073800
43610	9.441605	1.159911	3.943312	0.849695	0.008913	-0.521972	-0.074052
43611	9.218497	1.050472	3.682188	0.846520	0.009064	-0.527085	-0.074182
43612	8.885679	0.860473	3.481554	0.842573	0.009431	-0.533380	-0.074078
43613	8.957744	0.738876	3.134824	0.837857	0.010150	-0.540818	-0.073542
43614	9.060837	0.679969	3.007938	0.832671	0.011113	-0.548876	-0.072605
43615	9.062013	0.631325	3.048701	0.827120	0.012206	-0.557352	-0.071289
43616	8.997631	0.695197	2.924552	0.821004	0.013370	-0.566486	-0.069766
43617	9.049984	0.794169	2.838950	0.814462	0.014509	-0.576017	-0.068161
43618	8.825743	0.838670	2.651212	0.807393	0.015546	-0.586054	-0.066442
43619	8.597869	0.918307	2.303575	0.799699	0.016464	-0.596683	-0.064652
43620	8.591662	0.850249	2.043660	0.791603	0.017381	-0.607563	-0.062686
43621	8.640345	0.693816	1.784611	0.783105	0.018363	-0.618659	-0.060587
43622	8.873198	0.662257	1.618927	0.774320	0.019644	-0.629797	-0.058296
43623	9.155780	0.732680	1.423135	0.765459	0.021046	-0.640696	-0.056021
43624	9.180727	0.941435	1.381529	0.756915	0.022386	-0.650910	-0.053793
43625	8.988798	1.056540	1.202697	0.748372	0.023378	-0.660846	-0.051726
43626	8.781682	0.886476	1.069370	0.739729	0.024216	-0.670642	-0.049541
43627	8.768285	0.931003	0.795903	0.730865	0.024646	-0.680421	-0.047498
43628	8.742331	0.926944	0.435228	0.721934	0.024940	-0.690006	-0.045618
43629	8.920215	0.794691	0.201198	0.712802	0.025260	-0.699542	-0.043774
43630	8.861626	0.697168	-0.081889	0.703402	0.025453	-0.709096	-0.041954
43631	8.959643	0.548873	-0.662417	0.693526	0.025788	-0.718859	-0.039975
43632	9.013543	0.427043	-0.873686	0.683980	0.026555	-0.728045	-0.037645
43633	8.901994	0.443714	-1.268265	0.674283	0.027390	-0.737125	-0.035192
43634	9.086908	0.491386	-1.654013	0.664905	0.028114	-0.745683	-0.032680
43635	9.346717	0.665413	-1.571882	0.655941	0.028924	-0.753655	-0.030157
43636	9.414114	0.697133	-1.592252	0.647746	0.029416	-0.760768	-0.028154
43637	9.313784	0.377038	-1.978876	0.639797	0.030257	-0.767507	-0.026029
43638	9.372678	0.418252	-1.919582	0.631711	0.032064	-0.774188	-0.023373
43639	9.568789	0.699073	-1.746707	0.623002	0.034330	-0.781188	-0.020860
43640	9.884085	0.924881	-1.764855	0.613942	0.036878	-0.788276	-0.018362
43641	10.055616	1.257816	-1.910277	0.605087	0.039451	-0.795024	-0.015824
43642	10.050612	1.372964	-2.166468	0.597251	0.041177	-0.800880	-0.013666
43643	10.226151	1.422561	-2.681464	0.589451	0.041528	-0.806643	-0.012220
43644	10.892080	1.113223	-3.266523	0.581609	0.041237	-0.812351	-0.010808
43645	10.967727	0.763132	-3.218631	0.574911	0.040972	-0.817133	-0.009568
43646	10.921518	0.327685	-2.885856	0.568150	0.040869	-0.821863	-0.008754
43647	11.240780	0.129645	-2.908865	0.562090	0.040787	-0.826034	-0.007751
43648	10.974623	0.143293	-2.985885	0.558001	0.040351	-0.828830	-0.006935
43649	10.572261	0.168480	-2.249693	0.554519	0.039460	-0.831208	-0.006663
43650	10.746374	-0.151525	-2.492967	0.551072	0.038323	-0.833551	-0.006531
43651	11.062795	0.167420	-3.158505	0.549082	0.037084	-0.834919	-0.006558
43652	11.077437	0.601667	-3.116843	0.548668	0.035677	-0.835250	-0.006992
43653	10.993947	1.080137	-2.816998	0.549978	0.033963	-0.834451	-0.007827
43654	10.813858	1.482603	-2.947544	0.552188	0.031664	-0.833065	-0.009439
43655	10.799175	1.281652	-3.227164	0.555422	0.028723	-0.830988	-0.011822
43656	10.615817	0.829513	-3.058397	0.559514	0.025431	-0.828299	-0.014772
43657	10.366274	0.798408	-3.219725	0.564440	0.022818	-0.824969	-0.017668
43658	9.813099	0.872315	-2.844718	0.570227	0.020864	-0.820962	-0.020659
43659	9.503235	0.978225	-2.432382	0.576107	0.019702	-0.816810	-0.023126
43660	9.530432	0.958968	-2.308802	0.581926	0.018565	-0.812619	-0.025846
43661	9.876977	0.936701	-2.554215	0.587715	0.017992	-0.808389	-0.027838
43662	10.185732	1.128741	-2.562150	0.594220	0.017332	-0.803570	-0.029630
43663	10.335341	0.797844	-2.544435	0.601255	0.016388	-0.798265	-0.031570
43664	10.472542	0.449755	-2.235571	0.609297	0.015758	-0.792087	-0.033258
43665	10.126355	0.325880	-2.159666	0.617868	0.016120	-0.785407	-0.033391
43666	10.055505	0.156311	-1.788571	0.626071	0.015963	-0.778889	-0.033357
43667	10.100746	0.265976	-1.332462	0.634292	0.015399	-0.772243	-0.032813
43668	10.277553	0.058668	-1.374628	0.642427	0.013942	-0.765537	-0.032345
43669	10.381880	-0.098969	-1.182081	0.651376	0.012392	-0.758011	-0.031211
43670	10.113522	-0.007128	-0.727482	0.661127	0.011185	-0.749633	-0.028934
43671	9.368347	-0.529912	-1.184189	0.670348	0.010262	-0.741539	-0.025450
43672	9.166309	-0.271990	-0.895255	0.676527	0.011328	-0.736064	-0.019796
43673	10.089496	-0.199378	0.602881	0.685112	0.009602	-0.728194	-0.016211
43674	9.210231	0.080468	0.084254	0.693989	0.007045	-0.719838	-0.012748
43675	9.895680	-0.535501	-1.833293	0.702742	0.004226	-0.711375	-0.009024
43676	9.600301	0.159154	-0.067743	0.713788	0.002015	-0.700344	-0.004618
43677	9.184119	-0.164404	0.154632	0.723602	-0.000253	-0.690217	-0.000636
43678	9.089490	-0.092775	-0.206005	0.734518	-0.001488	-0.678581	0.003083
43679	8.867980	-0.008553	0.650018	0.745640	-0.001626	-0.666317	0.006315
43680	9.213343	0.119421	0.687269	0.756574	-0.001267	-0.653845	0.009015
43681	8.682473	0.901909	1.317843	0.767853	-0.000739	-0.640528	0.011195
43682	8.263856	1.497100	1.292343	0.778072	-0.000024	-0.628050	0.012516
43683	8.412934	1.665785	1.085266	0.787828	0.001422	-0.615754	0.013102
43684	8.671136	1.952756	1.366717	0.797027	0.003641	-0.603796	0.012851
43685	9.156427	1.684245	1.322135	0.805675	0.006406	-0.592204	0.011901
43686	9.040650	1.690699	1.427346	0.814691	0.009648	-0.579731	0.009894
43687	8.589332	1.487379	2.083582	0.823547	0.013606	-0.567043	0.006810
43688	8.325274	1.942176	2.519101	0.831453	0.017752	-0.555307	0.002314
43689	8.267220	2.091178	2.938611	0.838597	0.022584	-0.544278	-0.002765
43690	8.181459	2.212689	2.549516	0.845136	0.027343	-0.533785	-0.008472
43691	8.317590	1.959147	3.543113	0.850986	0.032517	-0.523979	-0.014557
43692	8.355990	2.100773	3.426862	0.855793	0.038430	-0.515458	-0.021104
43693	8.147127	2.063590	4.044414	0.860014	0.044845	-0.507512	-0.028217
43694	7.627296	1.969191	4.057877	0.863035	0.052197	-0.501156	-0.035905
43695	7.689570	2.273927	4.168212	0.864749	0.059817	-0.496658	-0.044293
43696	8.091110	2.251921	3.725161	0.864900	0.068928	-0.494417	-0.052420
43697	8.475856	1.777885	4.067479	0.864021	0.078906	-0.493536	-0.060535
43698	8.718059	1.948522	4.024489	0.861791	0.090405	-0.494455	-0.068246
43699	8.464941	2.102199	3.743031	0.858538	0.101480	-0.496852	-0.075847
43700	8.094364	2.547530	4.076661	0.854341	0.112043	-0.500653	-0.083027
43701	8.089634	2.076709	3.338525	0.848774	0.122523	-0.506484	-0.089688
43702	8.694590	2.040794	3.147514	0.842422	0.132678	-0.513268	-0.096318
43703	8.434648	2.258298	3.091765	0.835201	0.142847	-0.521141	-0.102206
43704	8.392037	2.540148	2.182621	0.826265	0.153105	-0.531314	-0.107469
43705	8.610449	2.890497	2.137321	0.816646	0.162871	-0.542250	-0.111927
43706	8.980883	3.086968	2.188373	0.806347	0.171394	-0.554123	-0.115654
43707	9.349545	3.461631	1.949701	0.795609	0.178132	-0.566647	-0.119103
43708	9.184597	3.404568	1.759049	0.784726	0.182490	-0.579555	-0.122547
43709	9.270326	3.244631	1.431501	0.773119	0.185177	-0.593479	-0.125614
43710	9.705121	3.353406	0.929712	0.760840	0.185849	-0.608373	-0.128315
43711	10.187550	2.946263	0.565256	0.748334	0.184653	-0.623571	-0.130607
43712	9.974006	2.508187	0.527617	0.736270	0.182066	-0.638198	-0.132145
43713	9.658409	2.336976	0.538190	0.724003	0.177819	-0.653006	-0.133350
43714	9.500941	1.939980	0.248535	0.711676	0.172208	-0.667748	-0.134070
43715	9.758759	1.387876	-0.523972	0.698649	0.165755	-0.682940	-0.134191
43716	10.166974	1.040290	-0.582045	0.685807	0.159262	-0.697580	-0.132990
43717	9.848586	0.571883	-0.666494	0.673298	0.153115	-0.711536	-0.130163
43718	9.943960	0.683440	-0.807112	0.660376	0.147283	-0.725475	-0.126081
43719	9.809073	0.879177	-1.020606	0.647659	0.140855	-0.738894	-0.121378
43720	10.277032	1.501983	-1.354473	0.634269	0.134286	-0.752472	-0.116003
43721	10.748612	2.063360	-1.683966	0.622399	0.126769	-0.764394	-0.110683
43722	10.711084	2.510660	-1.255197	0.611620	0.118213	-0.775114	-0.105569
43723	10.539924	2.015760	-1.721128	0.601338	0.108762	-0.785128	-0.100680
43724	10.440071	2.051627	-1.720547	0.592560	0.099579	-0.793676	-0.095050
43725	9.617759	2.172830	-1.006767	0.584956	0.088992	-0.801121	-0.090063
43726	9.595791	1.493104	-1.673638	0.575164	0.078093	-0.809822	-0.085302
43727	10.109197	2.019930	-1.537029	0.566608	0.066853	-0.817299	-0.080675
43728	9.735529	1.256937	-2.202819	0.558473	0.054903	-0.824161	-0.076499
43729	9.858025	1.460319	-1.895771	0.550834	0.043345	-0.830424	-0.071400
43730	9.748886	0.338498	-2.643509	0.543057	0.031180	-0.836482	-0.066444
43731	10.465340	0.319469	-2.909836	0.535076	0.019699	-0.842420	-0.060286
43732	10.519432	0.546299	-3.475889	0.529570	0.008539	-0.846546	-0.053325
43733	9.951502	0.221423	-4.147274	0.524861	-0.002372	-0.849990	-0.045078
43734	10.996494	-0.097731	-4.339298	0.519287	-0.013393	-0.853744	-0.035831
43735	11.773169	-0.995758	-3.481379	0.517479	-0.024433	-0.854950	-0.026069
43736	11.076252	-0.951285	-2.411701	0.517945	-0.034680	-0.854572	-0.015366
43737	10.536265	-1.098442	-3.067353	0.519123	-0.044910	-0.853503	-0.005130
43738	10.265451	-0.772780	-2.994068	0.522518	-0.054944	-0.850840	0.005212
43739	9.906825	-1.246539	-2.918301	0.526620	-0.065359	-0.847451	0.015020
43740	9.761006	-0.895178	-2.881598	0.530584	-0.075616	-0.843903	0.024296
43741	10.126694	-1.603495	-2.734269	0.534722	-0.085575	-0.840048	0.032694
43742	10.125352	-1.386669	-2.330072	0.541353	-0.094484	-0.834483	0.040592
43743	9.070590	-0.395754	-2.015886	0.549249	-0.102791	-0.827929	0.047889
43744	8.897234	-0.544760	-1.968778	0.556113	-0.111384	-0.821879	0.053348
43745	9.306266	-0.662916	-3.222189	0.563011	-0.119695	-0.815678	0.057970
43746	9.591709	-1.744469	-2.849842	0.570446	-0.127123	-0.809042	0.062308
43747	10.184368	-2.479475	-2.611827	0.577928	-0.132924	-0.802426	0.066646
43748	9.764730	-1.502644	-2.796737	0.586906	-0.136629	-0.794893	0.070839
43749	10.116507	-1.319784	-2.726725	0.595773	-0.139328	-0.787478	0.074303
43750	10.713691	-1.366589	-2.398090	0.606244	-0.141384	-0.778788	0.077256
43751	10.503638	-1.693991	-1.838812	0.618591	-0.142191	-0.768533	0.080520
43752	10.129570	-1.198621	-1.945275	0.631576	-0.143088	-0.757476	0.082871
43753	10.820455	-1.798671	-1.946696	0.644668	-0.143337	-0.746064	0.085120
43754	10.160710	-1.445786	-1.402449	0.659379	-0.142336	-0.733052	0.087143
43755	9.810220	-1.429490	-0.683394	0.672294	-0.140943	-0.721348	0.088395
43756	10.104142	-2.409568	-0.361717	0.685174	-0.139386	-0.709299	0.089457
43757	10.258400	-2.190308	-1.828971	0.697714	-0.136439	-0.697366	0.090882
43758	9.416916	-1.984912	-1.033896	0.711160	-0.132733	-0.684230	0.091990
43759	9.681820	-1.562885	-0.445372	0.723003	-0.129166	-0.672356	0.092308
43760	9.646472	-1.908481	-0.513015	0.735203	-0.125777	-0.659759	0.091512
43761	9.127948	-1.442211	0.225522	0.747173	-0.122289	-0.647097	0.089689
43762	9.197540	-2.030756	0.509784	0.758370	-0.118494	-0.634962	0.087510
43763	9.122218	-1.859364	0.634043	0.769636	-0.114151	-0.622382	0.085260
43764	9.360387	-2.104310	0.915208	0.780553	-0.109009	-0.609896	0.082950
43765	10.055397	-2.020282	1.175759	0.791750	-0.103075	-0.596733	0.080107
43766	9.604402	-1.195610	2.109196	0.803873	-0.096102	-0.581940	0.076809
43767	8.855575	-0.482371	2.375645	0.815584	-0.088959	-0.567060	0.073153
43768	8.326342	0.003928	2.264602	0.826969	-0.081775	-0.551896	0.069615
43769	8.041148	0.602650	2.464214	0.838210	-0.075449	-0.536091	0.065703
43770	8.446392	0.137651	4.067565	0.848011	-0.070820	-0.521706	0.060699
43771	8.945364	0.029746	4.022140	0.856812	-0.066437	-0.508423	0.054455
43772	8.986068	-0.288657	4.450836	0.864934	-0.062429	-0.495772	0.046933
43773	8.333709	-0.247033	4.494612	0.871951	-0.056925	-0.484684	0.039269
43774	8.405519	-0.350383	4.055812	0.878074	-0.050168	-0.474875	0.031019
43775	8.336563	-0.026910	4.236967	0.882759	-0.044378	-0.467238	0.021348
43776	8.574963	-1.154704	5.080098	0.886784	-0.037836	-0.460489	0.011516
43777	8.122196	-0.339148	5.359498	0.890248	-0.028063	-0.454604	0.002462
43778	7.646731	0.542499	4.836906	0.893310	-0.019198	-0.448963	-0.007802
43779	6.956627	0.693922	5.552977	0.895290	-0.009077	-0.445043	-0.017622
43780	7.026167	1.553206	4.961726	0.895973	0.001251	-0.443246	-0.027649
43781	7.462018	1.202570	4.904127	0.896017	0.012086	-0.442288	-0.037266
43782	7.158138	1.186624	4.973309	0.894827	0.023559	-0.443333	-0.046746
43783	7.270864	1.970665	4.929896	0.893031	0.035232	-0.445030	-0.056591
43784	7.550900	2.402488	4.787737	0.889718	0.047154	-0.449124	-0.066826
43785	7.697918	2.253825	5.166319	0.885960	0.058452	-0.453589	-0.076913
43786	7.325563	1.757870	4.867417	0.880900	0.069076	-0.460140	-0.086687
43787	7.721226	2.275272	4.394573	0.874369	0.079490	-0.468938	-0.096212
43788	7.866531	2.475444	3.607032	0.866946	0.090342	-0.478657	-0.105501
43789	7.958118	2.067539	3.370007	0.858511	0.103003	-0.489395	-0.113323
43790	8.106991	1.323058	3.165399	0.849457	0.115427	-0.500706	-0.119974
43791	8.120647	0.868517	3.421120	0.840375	0.127350	-0.511667	-0.125492
43792	7.836541	2.052830	3.143269	0.830881	0.137258	-0.523081	-0.131086
43793	7.988014	3.163493	2.759976	0.821078	0.145739	-0.534731	-0.136579
43794	8.430727	3.147390	2.274365	0.809886	0.152607	-0.548246	-0.142202
43795	9.231687	3.490167	2.190291	0.798546	0.157938	-0.561753	-0.147693
43796	9.514256	3.022576	2.140490	0.787307	0.161131	-0.575168	-0.152857
43797	9.286173	2.760236	2.111874	0.775582	0.162947	-0.589181	-0.157441
43798	9.333716	2.155883	1.428300	0.763646	0.163940	-0.603284	-0.161298
43799	9.579297	1.915361	1.525354	0.751313	0.164492	-0.617674	-0.164164
43800	9.981354	1.951058	1.056921	0.739109	0.164957	-0.631781	-0.165409
43801	9.935659	2.220416	1.043642	0.727099	0.164380	-0.645661	-0.165614
43802	9.804209	2.215767	0.398369	0.714876	0.163042	-0.659669	-0.164947
43803	9.987251	2.484942	0.201324	0.702627	0.160648	-0.673577	-0.163710
43804	10.447549	2.626637	0.034564	0.690816	0.157422	-0.686877	-0.161838
43805	10.808680	2.815326	-0.164980	0.679587	0.153269	-0.699461	-0.159452
43806	10.695017	2.697274	-0.305740	0.669186	0.148270	-0.711076	-0.156767
43807	10.569379	2.501440	-0.331889	0.659639	0.142633	-0.721684	-0.153962
43808	10.778228	2.784784	-0.232551	0.650443	0.136406	-0.731778	-0.151057
43809	10.457549	2.477939	-0.538086	0.642269	0.129161	-0.740851	-0.148146
43810	10.888714	2.209175	-1.101653	0.633282	0.121385	-0.750434	-0.145150
43811	10.862468	2.111650	-1.281146	0.626158	0.113735	-0.758236	-0.141663
43812	10.101826	1.664271	-0.696756	0.619863	0.106546	-0.765229	-0.137268
43813	9.868829	1.926537	-0.505390	0.613452	0.099636	-0.772176	-0.132262
43814	9.745252	2.293874	-0.825258	0.607552	0.092321	-0.778519	-0.127532
43815	9.708118	2.225450	-1.036827	0.602511	0.084724	-0.783972	-0.123245
43816	9.766133	1.927490	-1.603683	0.598110	0.077071	-0.788768	-0.119032
43817	10.016456	2.005328	-1.348204	0.594277	0.069455	-0.793044	-0.114424
43818	9.919440	2.075343	-0.915183	0.590861	0.061617	-0.796955	-0.109315
43819	9.832611	2.158876	-1.488315	0.587294	0.053459	-0.800909	-0.103791
43820	10.112301	2.417428	-2.483350	0.583946	0.045108	-0.804597	-0.097962
43821	10.158388	2.711340	-2.065563	0.582555	0.036708	-0.806730	-0.092021
43822	10.187108	2.582659	-2.066913	0.581355	0.028290	-0.808608	-0.085898
43823	10.472150	1.974943	-3.432829	0.580766	0.020193	-0.809920	-0.079573
43824	10.610798	1.396959	-2.784359	0.582686	0.011844	-0.809202	-0.074356
43825	10.433098	1.480873	-1.964606	0.585302	0.003934	-0.807853	-0.069133
43826	10.363777	1.629272	-2.386729	0.587459	-0.003882	-0.806659	-0.064629
43827	10.307396	1.192287	-2.965915	0.590328	-0.011606	-0.804765	-0.061089
43828	10.135924	0.861288	-3.374376	0.593604	-0.019421	-0.802330	-0.059355
43829	10.237880	1.136584	-2.726306	0.597314	-0.024707	-0.799609	-0.056833
43830	9.973920	1.044906	-1.854870	0.601377	-0.027126	-0.796771	-0.052593
43831	9.795474	1.295896	-2.818595	0.604121	-0.027845	-0.795033	-0.046742
43832	9.361664	1.579412	-3.265655	0.607658	-0.027079	-0.792719	-0.040185
43833	9.127368	2.477818	-2.150457	0.611282	-0.025429	-0.790271	-0.034057
43834	9.382237	2.062950	-2.552908	0.615180	-0.024338	-0.787461	-0.029431
43835	9.936300	2.085148	-3.323117	0.619129	-0.023781	-0.784482	-0.026494
43836	9.957894	1.943876	-2.747514	0.625195	-0.023017	-0.779737	-0.024721
43837	9.182576	1.681804	-1.695511	0.630752	-0.021705	-0.775334	-0.023210
43838	8.679422	1.706642	-2.035840	0.635348	-0.019422	-0.771692	-0.021141
43839	8.401981	1.622510	-2.707994	0.640112	-0.015799	-0.767907	-0.018050
43840	8.882652	1.475085	-2.279176	0.645373	-0.011952	-0.763628	-0.014955
43841	9.578662	1.165247	-2.423936	0.651444	-0.007524	-0.758575	-0.011302
43842	9.569477	2.116742	-2.047493	0.659099	-0.002261	-0.752019	-0.007159
43843	9.300576	3.053506	-1.308417	0.666233	0.001188	-0.745727	-0.004897
43844	9.687149	3.233088	-1.172236	0.672403	0.003812	-0.740169	-0.003057
43845	9.637365	3.213843	-1.381359	0.678125	0.005133	-0.734925	-0.002187
43846	9.847035	3.069610	-0.905165	0.683950	0.005154	-0.729506	-0.002473
43847	9.334615	2.653707	-0.671162	0.689886	0.004499	-0.723896	-0.003402
43848	8.853447	3.275874	-0.385135	0.695090	0.003481	-0.718897	-0.005043
43849	8.509606	3.606818	-0.042021	0.699614	0.000539	-0.714464	-0.009022
43850	8.838522	3.400345	-0.189494	0.702338	-0.004255	-0.711668	-0.015218
43851	9.296448	4.061604	-0.898449	0.704162	-0.011343	-0.709542	-0.024032
43852	9.369143	4.193061	-1.321984	0.706258	-0.019819	-0.706846	-0.034301
43853	9.362727	4.880552	-1.082396	0.708447	-0.029202	-0.703690	-0.045506
43854	9.021085	4.596456	-0.423513	0.710145	-0.039746	-0.700529	-0.058085
43855	9.518657	2.129807	0.212801	0.710889	-0.052429	-0.697547	-0.072919
43856	10.545088	0.664536	0.015431	0.710628	-0.064829	-0.695121	-0.087243
43857	10.758534	0.668659	-0.550692	0.710735	-0.077885	-0.691575	-0.102536
43858	10.408402	1.331509	-1.189985	0.710272	-0.090783	-0.688108	-0.117381
43859	9.743226	1.804629	-1.264943	0.709000	-0.105895	-0.684268	-0.133726
43860	9.379799	1.303849	-1.523610	0.706929	-0.122063	-0.680183	-0.150674
43861	10.127883	0.678879	-0.790697	0.703879	-0.139776	-0.675658	-0.168832
43862	10.836924	-0.967847	-0.978834	0.700389	-0.157897	-0.670563	-0.186733
43863	10.372395	-2.403168	-1.447154	0.696567	-0.176076	-0.665295	-0.202915
43864	9.887614	-3.014527	-2.025957	0.692019	-0.193321	-0.660868	-0.216773
43865	9.669493	-3.118065	-2.551030	0.687019	-0.209870	-0.656681	-0.229627
43866	9.769356	-2.594228	-2.504709	0.681929	-0.224761	-0.652851	-0.241331
43867	9.393363	-2.241942	-2.327841	0.676373	-0.238504	-0.649494	-0.252573
43868	8.906179	-1.806092	-2.531745	0.670929	-0.250869	-0.646094	-0.263595
43869	8.582190	-1.720677	-1.968675	0.665227	-0.262237	-0.642898	-0.274567
43870	9.259918	-1.999138	-1.419730	0.659381	-0.272798	-0.639733	-0.285551
43871	9.755643	-1.485215	-0.200557	0.654302	-0.281846	-0.636267	-0.295999
43872	9.391166	-1.141537	0.241931	0.648775	-0.290826	-0.633186	-0.305920
43873	8.977903	-1.115269	0.286023	0.642751	-0.300176	-0.630305	-0.315407
43874	8.862064	-0.937204	-0.364591	0.635993	-0.310042	-0.627998	-0.324044
43875	9.249761	-0.468448	-0.951637	0.629126	-0.320310	-0.625452	-0.332283
43876	9.651187	-0.496628	-0.677087	0.622364	-0.331173	-0.621931	-0.340865
43877	9.907693	-1.157318	-0.489527	0.615177	-0.342468	-0.618049	-0.349698
43878	9.774662	-1.611420	-0.493772	0.608097	-0.353022	-0.614041	-0.358534
43879	9.587466	-1.466657	-0.847144	0.600755	-0.363185	-0.610270	-0.367098
43880	9.691740	-0.986601	-0.624184	0.593351	-0.373403	-0.606042	-0.375790
43881	10.013958	-0.325625	-0.238665	0.585822	-0.383838	-0.601254	-0.384675
43882	9.947048	-0.117044	-0.198539	0.577605	-0.395203	-0.595534	-0.394368
43883	9.643707	-0.578822	-0.507699	0.568506	-0.407144	-0.589402	-0.404525
43884	9.219699	-0.984664	-0.994484	0.559089	-0.418639	-0.583365	-0.414544
43885	9.050286	-1.083569	-1.511723	0.549002	-0.430272	-0.577454	-0.424275
43886	9.495580	-0.980739	-1.127811	0.538752	-0.441951	-0.571012	-0.434017
43887	10.011314	-0.573836	-0.583370	0.527554	-0.454487	-0.563769	-0.444177
43888	10.300501	-0.706443	-0.483765	0.516175	-0.467187	-0.555142	-0.455102
43889	9.553497	-0.712192	-0.177114	0.504303	-0.479985	-0.546211	-0.465774
43890	9.428670	-0.747483	-0.917553	0.491524	-0.493183	-0.537950	-0.475167
43891	9.045423	-0.708612	-1.769563	0.478611	-0.506120	-0.529509	-0.484143
43892	9.129664	-0.601835	-1.730865	0.466131	-0.518201	-0.521996	-0.491640
43893	9.899682	0.059203	-2.243878	0.452252	-0.531261	-0.514166	-0.498862
43894	10.619350	-1.282140	-2.943118	0.439476	-0.542840	-0.506636	-0.505475
43895	9.972417	-1.513052	-1.920062	0.428842	-0.552416	-0.499540	-0.511263
43896	9.794202	-1.515696	-1.825597	0.418734	-0.562077	-0.491473	-0.516900
43897	9.284381	-0.479803	-0.530991	0.410800	-0.570334	-0.482000	-0.523104
43898	8.755810	1.068678	-0.077320	0.401704	-0.579968	-0.471144	-0.529429
43899	9.667724	1.823290	-1.103190	0.391207	-0.590742	-0.459861	-0.535265
43900	10.952992	2.645713	-1.739527	0.380812	-0.600705	-0.448810	-0.541023
43901	11.322847	2.824362	-2.351032	0.370194	-0.609841	-0.437553	-0.547356
43902	10.970805	2.686491	-3.076447	0.359975	-0.617579	-0.425687	-0.554802
43903	10.329482	2.303209	-3.217400	0.349139	-0.624931	-0.412977	-0.563040
43904	10.080620	1.650649	-2.257586	0.338308	-0.631624	-0.401214	-0.570637
43905	9.880086	2.000076	-1.970369	0.327173	-0.638169	-0.390369	-0.577330
43906	9.830867	2.704889	-1.780521	0.315328	-0.644540	-0.378977	-0.584391
43907	9.465070	2.805697	-1.822611	0.302913	-0.651029	-0.366516	-0.591668
43908	9.195073	2.974925	-1.769543	0.290715	-0.656886	-0.352984	-0.599490
43909	8.911462	2.852232	-1.747024	0.278199	-0.662901	-0.338626	-0.607042
43910	8.911565	2.309208	-1.704789	0.263965	-0.670487	-0.323299	-0.613390
43911	9.036488	1.885291	-1.634437	0.250195	-0.677507	-0.307960	-0.619313
43912	8.711529	1.651525	-1.772442	0.236001	-0.684730	-0.292283	-0.624515
43913	8.794711	1.381711	-2.178335	0.221580	-0.692210	-0.276354	-0.628789
43914	8.884323	1.387936	-2.523253	0.208166	-0.699138	-0.260980	-0.632267
43915	9.112360	1.330162	-3.542422	0.196729	-0.705663	-0.247658	-0.634036
43916	9.862620	2.367902	-2.503070	0.187232	-0.711883	-0.236234	-0.634319
43917	9.257109	2.471827	-0.416724	0.178036	-0.714949	-0.222676	-0.638410
43918	8.512564	3.099417	-1.520524	0.167833	-0.720393	-0.210180	-0.639288
43919	9.808920	3.048935	-1.866291	0.157282	-0.724357	-0.196505	-0.641838
43920	9.279804	3.183490	-0.651492	0.147532	-0.726408	-0.183539	-0.645662
43921	10.214790	3.484020	-1.057442	0.134829	-0.730021	-0.169424	-0.648218
43922	10.474624	2.766074	-2.640612	0.120501	-0.733674	-0.153979	-0.650763
43923	10.760393	1.723686	-2.892858	0.104102	-0.736315	-0.136279	-0.654547
43924	12.096252	0.396430	-2.552718	0.086387	-0.738644	-0.119137	-0.657836
43925	13.847961	-1.868380	-1.893186	0.068040	-0.739595	-0.103717	-0.661523
43926	12.674771	-3.048704	-0.916119	0.050850	-0.737380	-0.090530	-0.667450
43927	9.822143	-2.305263	0.021425	0.035190	-0.735494	-0.079146	-0.671972
43928	8.144063	0.250207	-0.775540	0.020165	-0.735931	-0.067661	-0.673366
43929	7.943049	1.938042	-1.747166	0.005194	-0.737156	-0.055105	-0.673452
43930	8.506152	0.818309	-2.935491	-0.010452	-0.738956	-0.041328	-0.672404
43931	9.365480	-0.800387	-2.907621	-0.026667	-0.740200	-0.026664	-0.671329
43932	9.383872	-2.028325	-2.542836	-0.042598	-0.740697	-0.012561	-0.670370
43933	9.156502	-2.265381	-2.549064	-0.058065	-0.740884	0.000733	-0.669118
43934	8.910307	-2.329796	-2.541768	-0.072714	-0.740453	0.012937	-0.668038
43935	8.425644	-2.147757	-2.530210	-0.086170	-0.740193	0.024262	-0.666409
43936	8.809399	-2.043428	-2.875344	-0.097748	-0.740661	0.034644	-0.663827
43937	9.430685	-1.534581	-2.783445	-0.107890	-0.741329	0.044312	-0.660930
43938	10.026276	-1.377068	-2.489837	-0.118047	-0.741640	0.054358	-0.658088
43939	10.134265	-1.147522	-1.829289	-0.128421	-0.741110	0.064590	-0.655814
43940	9.759282	-0.777645	-1.653784	-0.139034	-0.740650	0.074965	-0.653060
43941	9.525280	0.117832	-1.596430	-0.149585	-0.740590	0.085592	-0.649481
43942	9.307516	0.740313	-2.249522	-0.160219	-0.740919	0.097205	-0.644918
43943	9.506904	0.585427	-2.149900	-0.172057	-0.740682	0.110381	-0.640002
43944	9.880833	-0.121408	-2.182954	-0.184873	-0.739785	0.124352	-0.634884
43945	10.110644	-0.609532	-1.994218	-0.198212	-0.738116	0.138519	-0.629848
43946	10.032680	-0.359061	-1.763091	-0.211520	-0.735899	0.152899	-0.624767
43947	9.995389	0.244597	-1.736207	-0.225355	-0.733267	0.168698	-0.618932
43948	9.961292	0.451587	-2.059024	-0.240664	-0.729653	0.186652	-0.612248
43949	9.662929	-0.447215	-2.408769	-0.256780	-0.724880	0.205330	-0.605353
43950	9.402214	-1.276732	-1.817008	-0.272211	-0.719573	0.223053	-0.598635
43951	9.761166	-1.607354	-2.144196	-0.286830	-0.714331	0.240363	-0.591343
43952	9.572724	-1.300948	-1.561239	-0.299945	-0.708637	0.256190	-0.585007
43953	8.988081	0.698116	-0.973079	-0.312009	-0.703280	0.270941	-0.578479
43954	8.678398	0.017090	-4.147496	-0.323615	-0.698575	0.285945	-0.570528
43955	8.676084	0.019148	-1.438558	-0.333781	-0.692772	0.298720	-0.565175
43956	9.722459	-0.247240	-2.992771	-0.343534	-0.687498	0.313485	-0.557725
43957	10.838885	-0.298704	-2.192187	-0.353422	-0.680728	0.327224	-0.551929
43958	10.000164	0.467593	-0.835729	-0.362379	-0.674645	0.339841	-0.545933
43959	10.106210	2.097536	-1.642816	-0.371802	-0.668248	0.352933	-0.539116
43960	9.573169	2.898540	-1.018653	-0.381879	-0.660677	0.365873	-0.532739
43961	9.531503	2.836589	-1.714001	-0.392124	-0.653015	0.379329	-0.525281
43962	9.668151	2.834282	-2.216418	-0.402229	-0.645060	0.391962	-0.518145
43963	9.504198	2.882637	-2.233318	-0.412522	-0.636829	0.404239	-0.510749
43964	9.688027	2.670855	-2.025162	-0.423332	-0.628018	0.416550	-0.502862
43965	10.139657	2.888671	-1.454264	-0.434454	-0.618645	0.429086	-0.494381
43966	10.508561	3.140721	-1.395640	-0.445679	-0.608969	0.441779	-0.485136
43967	10.273077	2.948068	-1.412039	-0.456752	-0.599273	0.453926	-0.475606
43968	9.772302	2.428960	-1.688853	-0.467866	-0.589100	0.465499	-0.466233
43969	8.950667	2.247195	-1.411874	-0.479037	-0.578078	0.476735	-0.457245
43970	8.491921	2.547228	-1.589469	-0.490155	-0.566443	0.488298	-0.447723
43971	8.457505	3.045232	-1.394906	-0.501956	-0.553509	0.500640	-0.437066
43972	8.831601	3.080779	-1.737831	-0.513595	-0.539923	0.513818	-0.425082
43973	9.385625	2.433567	-1.977550	-0.524902	-0.525830	0.527107	-0.412480
43974	9.823386	1.997819	-2.336494	-0.535924	-0.511057	0.540174	-0.399773
43975	10.069396	1.556734	-2.389490	-0.546910	-0.495460	0.552759	-0.387126
43976	9.982932	1.537715	-1.608393	-0.557567	-0.479754	0.564286	-0.374882
43977	9.844207	1.757526	-1.745018	-0.567914	-0.463673	0.575759	-0.361915
43978	9.619191	2.056835	-1.759357	-0.577486	-0.447887	0.586738	-0.348778
43979	9.533248	2.473622	-1.538324	-0.586611	-0.431848	0.597639	-0.334997
43980	9.368657	2.481006	-1.610775	-0.594874	-0.415600	0.608721	-0.320718
43981	9.726372	2.904025	-1.257836	-0.601174	-0.399792	0.620782	-0.305592
43982	10.580785	2.155975	-0.243594	-0.608476	-0.382125	0.631865	-0.290660
43983	10.342973	2.498293	-0.170381	-0.616399	-0.363006	0.642255	-0.275296
43984	9.279856	1.592586	-1.206573	-0.625414	-0.343548	0.650373	-0.260475
43985	8.448352	1.871706	-1.274683	-0.632921	-0.324614	0.659233	-0.243822
43986	8.493021	1.845708	-2.500670	-0.639614	-0.305779	0.667549	-0.227532
43987	8.122773	1.808367	-3.543704	-0.646501	-0.285993	0.674781	-0.211931
43988	8.169024	0.820947	-2.818550	-0.653377	-0.265808	0.681013	-0.196638
43989	9.902714	-0.962894	-1.662073	-0.660306	-0.246355	0.685786	-0.181669
43990	12.475028	-2.665379	-0.807928	-0.668029	-0.229105	0.687858	-0.167630
43991	12.379714	-1.503435	-0.254534	-0.675984	-0.214904	0.687741	-0.154514
43992	10.540496	1.771967	-1.037164	-0.681395	-0.202805	0.689010	-0.140839
43993	8.876573	3.114227	-1.636650	-0.685555	-0.189566	0.691431	-0.126500
43994	8.394500	2.034238	-2.183645	-0.687909	-0.175325	0.695396	-0.111655
43995	9.068982	-0.702104	-2.286355	-0.689675	-0.160514	0.699451	-0.096707
43996	9.404363	-2.151889	-1.878184	-0.691149	-0.146286	0.702905	-0.082692
43997	9.460891	-2.105106	-1.910441	-0.692311	-0.132336	0.705983	-0.069148
43998	9.034391	-1.520855	-2.554675	-0.693192	-0.118364	0.708779	-0.055741
43999	8.749323	-1.618571	-2.654909	-0.694217	-0.104831	0.710803	-0.042801
44000	8.849472	-2.154662	-2.154731	-0.694957	-0.092679	0.712384	-0.030899
44001	9.361977	-2.357900	-1.631012	-0.695231	-0.082065	0.713797	-0.020315
44002	9.783653	-2.224585	-1.307026	-0.695182	-0.073005	0.715032	-0.011009
44003	9.607060	-1.923857	-1.119705	-0.694746	-0.065268	0.716283	-0.002606
44004	9.765730	-1.555212	-1.410455	-0.693395	-0.058735	0.718144	0.004837
44005	10.045251	-1.146680	-1.385823	-0.692248	-0.052724	0.719638	0.011539
44006	10.369534	-0.886611	-0.970394	-0.691469	-0.046584	0.720674	0.018161
44007	10.264334	-0.689030	-0.529145	-0.691009	-0.039977	0.721300	0.025189
44008	9.885123	-0.829738	-0.537503	-0.690273	-0.032674	0.722064	0.032838
44009	9.477326	-0.745730	-0.411458	-0.689379	-0.025553	0.722822	0.040399
44010	9.658599	-1.160342	-0.636551	-0.687775	-0.018628	0.724104	0.047877
44011	9.771391	-1.247452	-0.597142	-0.685981	-0.011805	0.725423	0.055240
44012	10.171014	-1.456857	-0.646567	-0.683795	-0.005099	0.726982	0.062405
44013	10.323780	-1.297557	-0.160301	-0.682835	0.000780	0.727339	0.068659
44014	10.094863	-1.258196	-0.250659	-0.681667	0.006137	0.727892	0.073935
44015	10.033146	-1.239547	-0.409227	-0.681153	0.010491	0.727920	0.077803
44016	9.789425	-0.463346	-0.177624	-0.681173	0.014113	0.727479	0.081108
44017	9.906727	-0.572012	-0.123986	-0.681859	0.016642	0.726470	0.083860
44018	9.712333	0.388514	0.060059	-0.683806	0.017103	0.724478	0.085135
44019	9.667790	1.076354	0.179133	-0.685061	0.017912	0.723112	0.086490
44020	9.830469	1.824233	-0.320239	-0.685431	0.017675	0.722793	0.086276
44021	10.156193	2.228628	-1.027838	-0.685656	0.018278	0.722560	0.086313
44022	10.091630	1.879757	-0.861838	-0.686061	0.019150	0.722184	0.086051
44023	9.852552	2.135561	-1.027818	-0.686602	0.020318	0.721651	0.085938
44024	9.574950	2.354335	-0.776725	-0.687839	0.021224	0.720433	0.086048
44025	9.563414	2.706171	-0.154426	-0.689295	0.021981	0.718978	0.086371
44026	9.880065	3.087448	0.209563	-0.690485	0.022886	0.717724	0.087054
44027	10.030217	3.136219	0.484175	-0.691176	0.024477	0.716848	0.088351
44028	9.986540	2.914810	0.380399	-0.691556	0.025689	0.716315	0.089349
44029	9.995697	2.448972	0.429160	-0.692239	0.027041	0.715452	0.090570
44030	9.812197	1.690343	0.311345	-0.692750	0.028513	0.714740	0.091825
44031	9.800831	0.726726	-0.035970	-0.692062	0.030360	0.715131	0.093361
44032	9.821433	-0.037634	-0.824987	-0.691280	0.031169	0.715744	0.094191
44033	9.680602	0.479667	-0.973290	-0.690674	0.031138	0.716300	0.094416
44034	9.640881	1.198429	-0.660672	-0.690572	0.030693	0.716461	0.094090
44035	9.290634	1.277357	-0.536996	-0.690893	0.030516	0.716238	0.093479
44036	9.065698	1.201244	-0.568778	-0.691217	0.030253	0.716078	0.092392
44037	9.022098	1.085191	-0.502875	-0.691540	0.029969	0.715924	0.091258
44038	9.340339	0.859082	-0.473016	-0.691343	0.029537	0.716267	0.090192
44039	9.917521	0.781661	-0.823674	-0.691105	0.028703	0.716664	0.089122
44040	10.124816	1.018443	-0.970686	-0.691326	0.027497	0.716637	0.088000
44041	9.959705	1.306680	-0.783292	-0.691910	0.026213	0.716267	0.086802
44042	9.696532	1.385098	-0.774377	-0.692716	0.024957	0.715724	0.085212
44043	9.539207	1.325371	-0.794625	-0.693897	0.023882	0.714836	0.083343
44044	9.275329	1.120715	-0.605988	-0.695596	0.022843	0.713466	0.081180
44045	8.967709	0.839306	-0.134191	-0.696696	0.022030	0.712644	0.079172
44046	9.308185	0.140794	-0.139967	-0.696755	0.021022	0.712824	0.077281
44047	9.802011	-0.108748	-0.329957	-0.696717	0.018790	0.713195	0.074738
44048	9.996201	0.341147	-0.196458	-0.696718	0.015563	0.713622	0.071306
44049	9.835047	0.853810	0.446971	-0.696132	0.012561	0.714603	0.067712
44050	9.616761	0.550261	0.349572	-0.695311	0.009754	0.715794	0.063924
44051	9.274461	0.140890	-0.363354	-0.693859	0.006211	0.717612	0.059619
44052	9.341847	0.328507	-0.470893	-0.691708	0.001205	0.720132	0.054302
44053	9.640340	0.738145	0.059422	-0.689703	-0.002994	0.722386	0.049586
44054	9.448954	0.322821	-0.356139	-0.687484	-0.007101	0.724787	0.044714
44055	9.719919	0.285464	-0.660612	-0.684600	-0.011157	0.727742	0.039878
44056	9.853457	0.663983	-0.650296	-0.681929	-0.015232	0.730418	0.035083
44057	9.614821	0.974692	-0.776296	-0.679031	-0.018835	0.733219	0.030841
44058	9.790773	0.754415	-1.213677	-0.675689	-0.022198	0.736357	0.027015
44059	10.290038	0.484965	-1.607366	-0.672653	-0.025503	0.739144	0.023545
44060	10.587353	0.723711	-1.687933	-0.670617	-0.028846	0.740963	0.020337
44061	10.413046	1.046421	-1.373431	-0.669521	-0.031643	0.741906	0.017771
44062	10.126450	1.273809	-1.307090	-0.668689	-0.033491	0.742613	0.016113
44063	9.912863	1.167178	-1.471064	-0.667733	-0.034269	0.743447	0.015658
44064	9.959999	0.985859	-1.095375	-0.667243	-0.035226	0.743853	0.015128
44065	9.944190	0.878301	-1.210657	-0.666868	-0.036194	0.744150	0.014767
44066	9.883831	0.939958	-1.211457	-0.666617	-0.036945	0.744338	0.014782
44067	9.563143	1.021389	-1.137415	-0.665883	-0.036787	0.744981	0.015790
44068	9.436942	0.795344	-1.185316	-0.665438	-0.036519	0.745370	0.016826
44069	9.106417	0.771487	-0.925782	-0.665029	-0.036486	0.745719	0.017565
44070	9.305751	0.534988	-1.137875	-0.664349	-0.036393	0.746309	0.018403
44071	9.400931	0.446148	-1.137726	-0.663952	-0.036548	0.746639	0.019049
44072	9.490222	0.419789	-1.114410	-0.663472	-0.036664	0.747041	0.019784
44073	9.526857	0.326761	-1.216489	-0.662999	-0.036863	0.747432	0.020469
44074	9.637544	0.385010	-1.168541	-0.662459	-0.037313	0.747876	0.020919
44075	9.771137	0.503162	-1.084771	-0.662024	-0.037830	0.748224	0.021291
44076	9.832646	0.522629	-1.059194	-0.661570	-0.038421	0.748588	0.021579
44077	9.879310	0.546270	-1.091662	-0.661168	-0.039203	0.748900	0.021658
44078	9.913177	0.625957	-1.089080	-0.660860	-0.040041	0.749129	0.021599
44079	9.881944	0.670062	-1.043081	-0.660730	-0.040886	0.749202	0.021460
44080	9.797628	0.694800	-1.080623	-0.660680	-0.041760	0.749205	0.021210
44081	9.722451	0.742840	-1.103121	-0.660635	-0.042705	0.749200	0.020910
44082	9.811901	0.754306	-1.108430	-0.660559	-0.043576	0.749225	0.020630
44083	9.884679	0.776136	-1.151989	-0.660575	-0.044306	0.749173	0.020411
44084	9.907290	0.797521	-1.252272	-0.660781	-0.044904	0.748960	0.020257
44085	9.873013	0.847344	-1.329309	-0.661296	-0.045410	0.748479	0.020090
44086	9.750085	0.884659	-1.294359	-0.661931	-0.045943	0.747895	0.019728
44087	9.789443	0.953181	-1.110859	-0.662507	-0.046282	0.747370	0.019493
44088	9.859758	1.050754	-1.093708	-0.662942	-0.046340	0.746980	0.019508
44089	9.914626	1.103761	-1.047971	-0.663604	-0.046045	0.746399	0.019940
44090	9.714107	1.025439	-1.130980	-0.664223	-0.045391	0.745867	0.020749
44091	9.727911	1.010838	-1.187328	-0.664535	-0.044753	0.745606	0.021496
44092	9.864526	1.087729	-1.144082	-0.665082	-0.044140	0.745136	0.022130
44093	9.938755	1.101289	-1.221554	-0.665903	-0.043542	0.744421	0.022681
44094	9.790032	1.056886	-1.115587	-0.667097	-0.042887	0.743372	0.023235
44095	9.687088	1.072106	-1.044080	-0.668378	-0.042330	0.742240	0.023656
44096	9.534434	1.087255	-1.036443	-0.669446	-0.041657	0.741300	0.024101
44097	9.569300	1.022937	-1.107627	-0.670181	-0.040826	0.740665	0.024594
44098	9.656002	1.170761	-1.031239	-0.671035	-0.040200	0.739916	0.024892
44099	9.682360	1.121767	-1.154261	-0.671938	-0.039441	0.739125	0.025257
44100	9.770086	1.158043	-1.100279	-0.672890	-0.038886	0.738287	0.025284
44101	9.744927	1.300539	-1.098285	-0.673912	-0.038105	0.737395	0.025278
44102	9.657139	1.249837	-1.012112	-0.674996	-0.037228	0.736455	0.025081
44103	9.233596	1.358364	-0.906456	-0.676053	-0.036175	0.735543	0.024915
44104	9.104820	1.287479	-0.894363	-0.676572	-0.034889	0.735128	0.024910
44105	9.123748	1.299767	-0.879465	-0.676863	-0.033325	0.734923	0.025174
44106	9.078708	1.489467	-0.741366	-0.676953	-0.031514	0.734907	0.025561
44107	8.996064	1.478840	-0.731678	-0.676660	-0.028945	0.735248	0.026516
44108	9.222268	1.446108	-0.847283	-0.676080	-0.026051	0.735847	0.027673
44109	9.349582	1.519274	-0.907412	-0.675335	-0.023060	0.736586	0.028833
44110	9.425604	1.521065	-0.832412	-0.674391	-0.019623	0.737484	0.030479
44111	9.386992	1.535478	-0.767623	-0.673237	-0.015999	0.738539	0.032500
44112	9.510276	1.750651	-0.961193	-0.671623	-0.011969	0.739971	0.034952
44113	9.735017	1.481569	-1.195274	-0.669801	-0.007364	0.741542	0.037791
44114	10.042848	1.003389	-1.268645	-0.668037	-0.002779	0.743004	0.040777
44115	9.953560	0.693551	-1.476914	-0.666512	0.001112	0.744222	0.043514
44116	9.721353	0.709670	-1.539664	-0.664900	0.004226	0.745516	0.045774
44117	9.693256	1.099826	-0.917893	-0.663430	0.007121	0.746674	0.047830
44118	9.647239	1.279095	-0.421686	-0.661838	0.010540	0.747883	0.050306
44119	9.851501	1.289202	-0.662043	-0.659756	0.014250	0.749465	0.053115
44120	9.928003	1.327765	-0.837058	-0.657768	0.017739	0.750931	0.055930
44121	9.605980	1.509051	-0.645558	-0.655391	0.021274	0.752685	0.058944
44122	9.651011	1.795145	-0.513055	-0.652409	0.025927	0.754815	0.062801
44123	9.791902	1.874770	-1.301172	-0.649687	0.031881	0.756514	0.067647
44124	11.105413	1.999047	-1.087064	-0.647497	0.038842	0.757485	0.073852
44125	12.559329	0.594101	-1.177299	-0.647954	0.045970	0.756130	0.079434
44126	11.646922	1.776031	-1.627128	-0.649536	0.054480	0.753561	0.085323
44127	10.698706	0.457478	-2.690007	-0.650543	0.063707	0.751117	0.092509
44128	9.345870	-0.665780	-1.688655	-0.653674	0.069675	0.747088	0.098564
44129	8.588066	-0.357977	-0.665989	-0.655521	0.075000	0.744232	0.103852
44130	9.181239	-0.256715	-0.991154	-0.655994	0.081352	0.742445	0.108759
44131	9.453784	-0.481066	-0.795772	-0.657379	0.087863	0.739763	0.113505
44132	9.128492	-1.025256	-0.350023	-0.658754	0.093676	0.737095	0.118145
44133	8.792954	-0.964668	-0.565572	-0.660010	0.098124	0.734760	0.122008
44134	8.539792	-0.832691	-0.790008	-0.661052	0.102225	0.732617	0.125830
44135	8.771299	-0.742470	-0.917341	-0.661644	0.105869	0.730984	0.129159
44136	9.356536	-0.775603	-1.145705	-0.661877	0.108995	0.729829	0.131866
44137	9.828297	-0.544986	-1.386161	-0.662134	0.111248	0.728981	0.133377
44138	9.988460	-0.118008	-1.567482	-0.662305	0.113719	0.728216	0.134619
44139	10.049039	-0.034065	-1.580614	-0.662661	0.116611	0.727183	0.135969
44140	9.713577	0.150494	-1.143068	-0.663001	0.120337	0.725843	0.138204
44141	9.670401	-0.011077	-1.300354	-0.662317	0.124886	0.725126	0.141181
44142	9.801369	-0.157292	-1.210057	-0.661916	0.130220	0.723755	0.145218
44143	9.857573	-0.345022	-0.985723	-0.660999	0.136415	0.722520	0.149789
44144	9.818991	-0.536684	-1.224323	-0.659568	0.143329	0.721449	0.154722
44145	9.756069	-0.936274	-1.424220	-0.657981	0.150349	0.720342	0.159885
44146	9.450414	-1.416517	-1.566030	-0.656277	0.156845	0.719411	0.164766
44147	9.333039	-1.762382	-1.852648	-0.654133	0.162702	0.719055	0.169108
44148	9.309175	-1.911661	-2.014202	-0.651969	0.167497	0.719143	0.172379
44149	9.339467	-1.991917	-2.087241	-0.649239	0.171836	0.719939	0.175065
44150	9.456683	-1.760255	-1.994662	-0.646701	0.175146	0.720922	0.177122
44151	9.603976	-0.943121	-1.764966	-0.644340	0.177224	0.722239	0.178293
44152	10.145444	0.448829	-1.456136	-0.641959	0.179280	0.723487	0.179759
44153	10.098008	0.630107	-1.802052	-0.639523	0.182028	0.724320	0.182313
44154	9.892264	0.175761	-1.318373	-0.638006	0.184199	0.724549	0.184522
44155	9.970881	0.098260	-1.141886	-0.636378	0.187127	0.724586	0.187034
44156	10.003765	0.187968	-0.972182	-0.635142	0.190410	0.724196	0.189417
44157	9.595884	0.061070	-0.426901	-0.633876	0.194421	0.723551	0.192030
44158	9.449499	0.001697	-1.051319	-0.631776	0.198807	0.723610	0.194225
44159	9.322841	0.096053	-1.535826	-0.629931	0.202413	0.723892	0.195442
44160	9.508169	0.335778	-0.650833	-0.627981	0.206494	0.723985	0.197093
44161	9.881733	0.550218	-0.399375	-0.625738	0.211276	0.724017	0.199032
44162	10.350996	0.642647	-0.975091	-0.623316	0.216753	0.723802	0.201509
44163	10.120867	0.722684	-1.064903	-0.621566	0.222295	0.722764	0.204580
44164	9.832580	0.650636	-0.878151	-0.619350	0.227991	0.721955	0.207861
44165	9.707992	0.525513	-0.984306	-0.617183	0.233819	0.720859	0.211602
44166	9.451278	0.299038	-1.102923	-0.615150	0.239650	0.719552	0.215415
44167	9.516364	0.130422	-1.363829	-0.612887	0.245493	0.718446	0.218949
44168	9.797405	0.116882	-1.279019	-0.610744	0.251069	0.717340	0.222213
44169	9.670281	0.213979	-1.251256	-0.608729	0.256491	0.716107	0.225502
44170	9.516363	0.265947	-1.448861	-0.606409	0.261955	0.714995	0.228975
44171	9.449108	0.421235	-1.492552	-0.604366	0.267234	0.713620	0.232539
44172	9.384372	0.468019	-1.416354	-0.602108	0.272881	0.712142	0.236338
44173	9.462219	0.507529	-1.620621	-0.599714	0.278535	0.710790	0.239873
44174	9.475853	0.363688	-1.546129	-0.597401	0.284140	0.709294	0.243471
44175	9.410486	0.089062	-1.661521	-0.594872	0.289694	0.707959	0.246979
44176	9.581019	0.004159	-1.896905	-0.592714	0.294735	0.706582	0.250127
44177	9.559391	-0.037641	-1.676058	-0.590877	0.299594	0.704931	0.253336
44178	9.609601	-0.192600	-1.797649	-0.588757	0.304225	0.703672	0.256240
44179	9.706367	-0.381398	-1.825608	-0.587014	0.308187	0.702386	0.259016
44180	9.633365	-0.427657	-1.676484	-0.585580	0.311521	0.701212	0.261442
44181	9.636599	-0.490871	-1.649843	-0.584227	0.314504	0.700233	0.263515
44182	9.723600	-0.446934	-1.598739	-0.583063	0.317081	0.699388	0.265244
44183	9.855027	-0.481654	-1.529035	-0.582023	0.319302	0.698758	0.266521
44184	9.990764	-0.417848	-1.639775	-0.581245	0.321106	0.698211	0.267483
44185	10.005780	-0.473984	-1.651016	-0.580692	0.322498	0.697756	0.268195
44186	9.877242	-0.467279	-1.688218	-0.580331	0.323394	0.697516	0.268522
44187	9.721390	-0.328821	-1.804666	-0.580241	0.323725	0.697451	0.268486
44188	9.584432	-0.245096	-1.686365	-0.580440	0.323578	0.697438	0.268268
44189	9.582288	-0.101008	-1.694991	-0.580807	0.323036	0.697546	0.267843
44190	9.508030	0.139337	-1.638057	-0.581314	0.322303	0.697655	0.267343
44191	9.690168	0.122280	-1.698055	-0.581560	0.321743	0.697860	0.266947
44192	9.810858	0.078119	-1.702838	-0.582147	0.320776	0.697977	0.266523
44193	9.775807	0.181641	-1.649208	-0.582840	0.319577	0.698141	0.266021
44194	9.884743	0.189564	-1.680975	-0.583515	0.318318	0.698372	0.265443
44195	9.870384	0.243802	-1.664135	-0.584403	0.317008	0.698376	0.265047
44196	9.846127	0.227705	-1.528110	-0.585310	0.315830	0.698208	0.264893
44197	9.795820	0.158195	-1.622435	-0.586222	0.314459	0.698205	0.264516
44198	9.860693	0.178428	-1.489101	-0.587098	0.313061	0.698199	0.264247
44199	9.794614	0.087057	-1.336456	-0.588093	0.311626	0.698070	0.264072
44200	9.741299	0.095880	-1.353166	-0.588946	0.310248	0.698032	0.263894
44201	9.710133	0.096450	-1.396078	-0.590053	0.308647	0.697885	0.263689
44202	9.540402	0.205043	-1.362992	-0.591028	0.307052	0.697876	0.263390
44203	9.567464	0.217958	-1.342975	-0.591747	0.305700	0.697946	0.263164
44204	9.554557	0.229535	-1.420705	-0.592454	0.304472	0.697931	0.263035
44205	9.477940	0.193320	-1.408042	-0.593134	0.303377	0.697842	0.263004
44206	9.398715	0.186852	-1.416323	-0.593682	0.302362	0.697824	0.262986
44207	9.500444	0.102404	-1.462305	-0.593972	0.301436	0.698030	0.262847
44208	9.663065	0.025946	-1.527351	-0.594411	0.300281	0.698317	0.262414
44209	9.687039	0.075150	-1.556294	-0.594912	0.298953	0.698711	0.261745
44210	9.642421	0.102550	-1.563825	-0.595462	0.297684	0.699049	0.261035
44211	9.599933	0.128741	-1.723173	-0.595867	0.296609	0.699389	0.260422
44212	9.641377	0.068511	-1.679729	-0.596145	0.295821	0.699570	0.260197
44213	9.717050	-0.056211	-1.609477	-0.596417	0.294945	0.699814	0.259911
44214	9.723019	-0.067254	-1.553986	-0.596892	0.293748	0.700115	0.259366
44215	9.573882	0.030722	-1.519752	-0.597389	0.292418	0.700496	0.258695
44216	9.600883	0.058095	-1.549450	-0.597777	0.291190	0.700934	0.257996
44217	9.597538	0.111492	-1.453199	-0.598263	0.289832	0.701403	0.257124
44218	9.613909	0.155122	-1.501141	-0.598576	0.288573	0.702001	0.256176
44219	9.675135	0.123574	-1.527995	-0.598898	0.287306	0.702602	0.255199
44220	9.669207	0.119692	-1.474454	-0.599270	0.286046	0.703126	0.254296
44221	9.674917	0.128215	-1.528997	-0.599633	0.284709	0.703734	0.253258
44222	9.682808	0.162261	-1.640305	-0.600061	0.283246	0.704363	0.252132
44223	9.658702	0.156247	-1.577063	-0.600466	0.281786	0.704996	0.251035
44224	9.671071	0.154901	-1.532466	-0.600957	0.280265	0.705591	0.249887
44225	9.664492	0.154523	-1.545181	-0.601357	0.278794	0.706221	0.248789
44226	9.680442	0.196800	-1.595251	-0.601800	0.277230	0.706840	0.247704
44227	9.674692	0.247311	-1.551552	-0.602226	0.275691	0.707428	0.246707
44228	9.708056	0.232951	-1.580965	-0.602598	0.274197	0.708020	0.245761
44229	9.702375	0.233180	-1.525247	-0.603046	0.272740	0.708496	0.244910
44230	9.616067	0.216249	-1.491087	-0.603405	0.271304	0.709039	0.244049
44231	9.600314	0.303838	-1.569704	-0.603652	0.269948	0.709623	0.243244
44232	9.612997	0.315677	-1.545334	-0.603876	0.268722	0.710120	0.242593
44233	9.667050	0.327285	-1.576161	-0.604054	0.267524	0.710666	0.241875
44234	9.720532	0.321765	-1.501524	-0.604303	0.266313	0.711142	0.241190
44235	9.689351	0.369618	-1.463478	-0.604523	0.265117	0.711647	0.240465
44236	9.668067	0.349547	-1.464825	-0.604656	0.264180	0.712047	0.239977
44237	9.667505	0.363142	-1.552752	-0.604655	0.263498	0.712385	0.239727
44238	9.639174	0.332600	-1.546942	-0.604727	0.262822	0.712634	0.239546
44239	9.635577	0.366452	-1.570266	-0.604671	0.262221	0.712956	0.239389
44240	9.597943	0.420029	-1.566433	-0.604524	0.261782	0.713255	0.239350
44241	9.544347	0.384684	-1.567310	-0.604177	0.261674	0.713532	0.239518
44242	9.558422	0.368851	-1.594027	-0.603752	0.261613	0.713891	0.239586
44243	9.630846	0.388817	-1.593737	-0.603420	0.261486	0.714238	0.239526
44244	9.705705	0.423254	-1.562861	-0.603189	0.261400	0.714469	0.239515
44245	9.691421	0.351901	-1.541988	-0.602997	0.261314	0.714693	0.239424
44246	9.650480	0.301935	-1.477290	-0.602925	0.261296	0.714765	0.239409
44247	9.607348	0.184608	-1.494980	-0.602758	0.261336	0.714898	0.239390
44248	9.674434	0.264802	-1.554010	-0.602621	0.261181	0.715108	0.239275
44249	9.639167	0.285726	-1.595340	-0.602499	0.260976	0.715328	0.239151
44250	9.614645	0.341000	-1.566695	-0.602346	0.260852	0.715539	0.239037
44251	9.621394	0.318143	-1.671536	-0.601904	0.261179	0.715704	0.239301
44252	9.685949	0.258407	-1.678450	-0.601600	0.261455	0.715768	0.239572
44253	9.624185	0.352797	-1.622107	-0.601547	0.261473	0.715789	0.239622
44254	9.605906	0.350658	-1.613429	-0.601437	0.261587	0.715836	0.239632
44255	9.632358	0.260555	-1.606904	-0.601259	0.261756	0.715905	0.239690
44256	9.648594	0.238485	-1.562110	-0.601116	0.261877	0.715975	0.239707
44257	9.619863	0.260846	-1.590622	-0.600874	0.262057	0.716089	0.239776
44258	9.636644	0.211964	-1.659918	-0.600542	0.262405	0.716175	0.239971
44259	9.614859	0.187034	-1.665721	-0.600178	0.262693	0.716329	0.240106
44260	9.667970	0.236366	-1.628585	-0.599891	0.262857	0.716522	0.240070
44261	9.648778	0.233672	-1.625526	-0.599567	0.263086	0.716717	0.240046
44262	9.631274	0.194987	-1.648143	-0.599288	0.263304	0.716882	0.240010
44263	9.643842	0.207845	-1.648722	-0.599043	0.263359	0.717132	0.239816
