// Start Time: Unknown
// Update Rate: 60.0Hz
// Filter Profile: human (46.1)
// Option Flags: AHS Disabled ICC Disabled 
// Firmware Version: 4.3.5
PacketCounter	Acc_X	Acc_Y	Acc_Z	Quat_q0	Quat_q1	Quat_q2	Quat_q3
39183	-5.329801	0.517858	8.169653	0.956312	0.045579	0.281037	-0.066391
39184	-5.330621	0.484986	8.185723	0.956323	0.045532	0.281009	-0.066379
39185	-5.305518	0.484246	8.187043	0.956327	0.045521	0.281000	-0.066376
39186	-5.321468	0.485174	8.162025	0.956330	0.045507	0.280990	-0.066386
39187	-5.315062	0.493067	8.192760	0.956336	0.045487	0.280971	-0.066392
39188	-5.330930	0.493894	8.167800	0.956339	0.045473	0.280961	-0.066402
39189	-5.314874	0.503127	8.175096	0.956342	0.045435	0.280960	-0.066389
39190	-5.342660	0.479567	8.207851	0.956342	0.045430	0.280959	-0.066391
39191	-5.315825	0.502118	8.174540	0.956348	0.045425	0.280942	-0.066385
39192	-5.324823	0.491037	8.179238	0.956355	0.045411	0.280924	-0.066367
39193	-5.308745	0.479989	8.185201	0.956352	0.045407	0.280937	-0.066357
39194	-5.333791	0.511854	8.167428	0.956355	0.045416	0.280924	-0.066360
39195	-5.317523	0.480312	8.172173	0.956358	0.045413	0.280920	-0.066342
39196	-5.325824	0.480779	8.159444	0.956359	0.045411	0.280920	-0.066333
39197	-5.318598	0.479914	8.171497	0.956360	0.045419	0.280917	-0.066317
39198	-5.327100	0.522075	8.161280	0.956361	0.045440	0.280914	-0.066300
39199	-5.294436	0.521212	8.174849	0.956366	0.045425	0.280900	-0.066302
39200	-5.329912	0.498260	8.195252	0.956367	0.045388	0.280902	-0.066297
39201	-5.328344	0.499876	8.159228	0.956372	0.045387	0.280889	-0.066288
39202	-5.320006	0.489663	8.152807	0.956371	0.045387	0.280893	-0.066286
39203	-5.313973	0.498063	8.183298	0.956370	0.045401	0.280898	-0.066273
39204	-5.322511	0.519399	8.171734	0.956369	0.045403	0.280903	-0.066259
39205	-5.315187	0.477270	8.181178	0.956368	0.045418	0.280908	-0.066247
39206	-5.315933	0.497949	8.182031	0.956368	0.045428	0.280908	-0.066238
39207	-5.314484	0.499820	8.145906	0.956369	0.045407	0.280912	-0.066222
39208	-5.316021	0.508769	8.164138	0.956374	0.045417	0.280896	-0.066207
39209	-5.317435	0.517911	8.182439	0.956379	0.045417	0.280883	-0.066198
39210	-5.316650	0.508232	8.163762	0.956385	0.045396	0.280865	-0.066202
39211	-5.334373	0.465473	8.171962	0.956386	0.045379	0.280863	-0.066203
39212	-5.301025	0.496423	8.169496	0.956384	0.045375	0.280867	-0.066213
39213	-5.300663	0.507509	8.151879	0.956383	0.045380	0.280866	-0.066229
39214	-5.328592	0.525510	8.187191	0.956390	0.045363	0.280847	-0.066225
39215	-5.310938	0.463488	8.172306	0.956396	0.045319	0.280837	-0.066208
39216	-5.337866	0.492604	8.190415	0.956399	0.045308	0.280828	-0.066205
39217	-5.311965	0.503868	8.174395	0.956401	0.045325	0.280815	-0.066221
39218	-5.312198	0.503502	8.174266	0.956412	0.045293	0.280788	-0.066198
39219	-5.321333	0.512852	8.180223	0.956414	0.045284	0.280783	-0.066205
39220	-5.312830	0.502223	8.173934	0.956421	0.045252	0.280764	-0.066209
39221	-5.320664	0.502077	8.161527	0.956431	0.045226	0.280727	-0.066232
39222	-5.330399	0.479169	8.183615	0.956439	0.045205	0.280704	-0.066229
39223	-5.304409	0.490314	8.167668	0.956442	0.045209	0.280696	-0.066217
39224	-5.322224	0.489279	8.178464	0.956452	0.045198	0.280667	-0.066200
39225	-5.304768	0.510381	8.168832	0.956463	0.045195	0.280627	-0.066216
39226	-5.305792	0.498328	8.186072	0.956472	0.045156	0.280609	-0.066196
39227	-5.307147	0.506635	8.204480	0.956478	0.045116	0.280593	-0.066196
39228	-5.306271	0.475983	8.184496	0.956480	0.045107	0.280588	-0.066202
39229	-5.316526	0.473892	8.207595	0.956484	0.045083	0.280578	-0.066199
39230	-5.307166	0.495405	8.185359	0.956490	0.045063	0.280560	-0.066204
39231	-5.315116	0.495744	8.172843	0.956496	0.045073	0.280534	-0.066208
39232	-5.316300	0.483810	8.189968	0.956501	0.045042	0.280519	-0.066220
39233	-5.308924	0.482300	8.202181	0.956504	0.045021	0.280513	-0.066225
39234	-5.308275	0.472473	8.183400	0.956505	0.045011	0.280508	-0.066231
39235	-5.309810	0.460809	8.200279	0.956504	0.045025	0.280513	-0.066218
39236	-5.327297	0.471557	8.193400	0.956495	0.045053	0.280540	-0.066221
39237	-5.302065	0.483297	8.176946	0.956487	0.045075	0.280567	-0.066200
39238	-5.309744	0.495492	8.146707	0.956484	0.045087	0.280575	-0.066205
39239	-5.312426	0.513654	8.183470	0.956492	0.045074	0.280549	-0.066209
39240	-5.294533	0.492935	8.171421	0.956510	0.045024	0.280494	-0.066223
39241	-5.311950	0.470614	8.181123	0.956513	0.045013	0.280484	-0.066220
39242	-5.295074	0.532644	8.173935	0.956524	0.044967	0.280451	-0.066236
39243	-5.302820	0.511618	8.160204	0.956527	0.044937	0.280441	-0.066256
39244	-5.303745	0.457783	8.174752	0.956531	0.044900	0.280424	-0.066291
39245	-5.315359	0.505754	8.219029	0.956536	0.044866	0.280408	-0.066316
39246	-5.278970	0.476410	8.177400	0.956546	0.044825	0.280370	-0.066350
39247	-5.295439	0.505790	8.172700	0.956566	0.044710	0.280306	-0.066411
39248	-5.278237	0.492129	8.179566	0.956588	0.044546	0.280250	-0.066445
39249	-5.311603	0.498626	8.184933	0.956618	0.044405	0.280155	-0.066508
39250	-5.302742	0.453596	8.195402	0.956632	0.044282	0.280111	-0.066570
39251	-5.311385	0.440386	8.200382	0.956639	0.044197	0.280093	-0.066602
39252	-5.303182	0.469948	8.196788	0.956643	0.044129	0.280083	-0.066639
39253	-5.303392	0.468202	8.196751	0.956653	0.044053	0.280057	-0.066657
39254	-5.293429	0.447560	8.172148	0.956661	0.044000	0.280032	-0.066674
39255	-5.284865	0.477461	8.168790	0.956678	0.043920	0.279985	-0.066689
39256	-5.303063	0.463376	8.197239	0.956693	0.043848	0.279938	-0.066714
39257	-5.320088	0.440253	8.207161	0.956709	0.043787	0.279887	-0.066732
39258	-5.292357	0.441512	8.173171	0.956726	0.043745	0.279838	-0.066732
39259	-5.286909	0.458432	8.222676	0.956730	0.043730	0.279823	-0.066735
39260	-5.285065	0.439741	8.185340	0.956730	0.043740	0.279824	-0.066725
39261	-5.303559	0.459686	8.197125	0.956727	0.043771	0.279835	-0.066708
39262	-5.286678	0.461187	8.185714	0.956725	0.043827	0.279835	-0.066694
39263	-5.296532	0.492195	8.192647	0.956722	0.043838	0.279849	-0.066672
39264	-5.305521	0.460643	8.195802	0.956727	0.043843	0.279831	-0.066681
39265	-5.306647	0.448850	8.212910	0.956734	0.043838	0.279805	-0.066695
39266	-5.314741	0.469703	8.201761	0.956743	0.043815	0.279778	-0.066684
39267	-5.306214	0.479972	8.196888	0.956750	0.043805	0.279756	-0.066683
39268	-5.288367	0.438983	8.183248	0.956756	0.043784	0.279738	-0.066687
39269	-5.288716	0.459145	8.184512	0.956767	0.043777	0.279703	-0.066688
39270	-5.281339	0.478444	8.198187	0.956773	0.043737	0.279688	-0.066688
39271	-5.299436	0.476716	8.208824	0.956771	0.043717	0.279700	-0.066686
39272	-5.308102	0.476872	8.195847	0.956761	0.043718	0.279729	-0.066705
39273	-5.297538	0.427314	8.150796	0.956756	0.043697	0.279744	-0.066725
39274	-5.299522	0.476722	8.171801	0.956770	0.043634	0.279701	-0.066738
39275	-5.285428	0.450795	8.231443	0.956792	0.043559	0.279632	-0.066763
39276	-5.292196	0.482135	8.203413	0.956802	0.043506	0.279604	-0.066773
39277	-5.283261	0.470854	8.197388	0.956813	0.043445	0.279569	-0.066801
39278	-5.315149	0.481333	8.166526	0.956831	0.043387	0.279509	-0.066830
39279	-5.289677	0.468502	8.186008	0.956868	0.043312	0.279384	-0.066874
39280	-5.248447	0.494676	8.233504	0.956914	0.043155	0.279236	-0.066939
39281	-5.295748	0.440436	8.210590	0.956943	0.043014	0.279141	-0.067003
39282	-5.286889	0.436270	8.223894	0.956970	0.042841	0.279056	-0.067086
39283	-5.259074	0.382231	8.204827	0.956987	0.042674	0.279006	-0.067162
39284	-5.267831	0.409159	8.212775	0.957006	0.042511	0.278953	-0.067205
39285	-5.274290	0.511921	8.172027	0.957035	0.042333	0.278869	-0.067264
39286	-5.291329	0.422108	8.214401	0.957073	0.042158	0.278745	-0.067342
39287	-5.322583	0.471338	8.187308	0.957110	0.041954	0.278634	-0.067411
39288	-5.272179	0.412435	8.241945	0.957161	0.041753	0.278467	-0.067487
39289	-5.250799	0.359121	8.211169	0.957196	0.041595	0.278353	-0.067567
39290	-5.266540	0.387254	8.207282	0.957226	0.041468	0.278265	-0.067591
39291	-5.267226	0.362047	8.242376	0.957246	0.041415	0.278181	-0.067678
39292	-5.233876	0.267136	8.267725	0.957226	0.041497	0.278227	-0.067715
39293	-5.244475	0.364027	8.242101	0.957179	0.041682	0.278364	-0.067713
39294	-5.264048	0.483276	8.204769	0.957131	0.041863	0.278507	-0.067692
39295	-5.260324	0.493949	8.233760	0.957097	0.041957	0.278615	-0.067668
39296	-5.252855	0.463870	8.225067	0.957089	0.041935	0.278650	-0.067644
39297	-5.294956	0.464018	8.198033	0.957073	0.041906	0.278697	-0.067699
39298	-5.293245	0.487020	8.163652	0.957091	0.042030	0.278567	-0.067900
39299	-5.257732	0.424745	8.211283	0.957159	0.042338	0.278186	-0.068317
39300	-5.238970	0.489770	8.242591	0.957187	0.042716	0.277927	-0.068741
39301	-5.186104	0.557030	8.251233	0.957211	0.043090	0.277646	-0.069310
39302	-5.177396	0.641570	8.270186	0.957204	0.043313	0.277478	-0.069935
39303	-5.212675	0.626364	8.309861	0.957168	0.043291	0.277435	-0.070604
39304	-5.214195	0.640211	8.310977	0.957116	0.043004	0.277485	-0.071289
39305	-5.192799	0.881031	8.393912	0.957038	0.042283	0.277636	-0.072173
39306	-5.101756	0.941390	8.577200	0.956857	0.041132	0.278113	-0.073386
39307	-5.193224	1.269736	8.687809	0.956464	0.039553	0.279187	-0.075278
39308	-5.202256	2.382789	9.020258	0.955636	0.037877	0.281211	-0.079027
39309	-4.995711	2.102711	9.744908	0.954147	0.034888	0.284913	-0.084911
39310	-5.793101	2.286009	9.591927	0.951358	0.032232	0.291623	-0.094000
39311	-5.537301	2.791205	9.988533	0.946907	0.030541	0.301610	-0.107077
39312	-6.114945	3.261499	9.838164	0.940496	0.029256	0.315246	-0.123416
39313	-6.851716	4.136825	9.800400	0.932240	0.027135	0.331518	-0.142435
39314	-7.965906	5.437837	10.005128	0.922548	0.022529	0.348905	-0.163290
39315	-7.717671	6.200638	9.855614	0.912328	0.010269	0.365283	-0.184719
39316	-4.138832	2.682599	8.483093	0.902079	-0.006896	0.380310	-0.203889
39317	-6.674468	7.256221	6.672542	0.896374	-0.009501	0.392120	-0.206554
39318	-4.286445	12.123768	8.472058	0.897424	-0.003538	0.396959	-0.192462
39319	-1.071230	6.851227	8.302368	0.899793	-0.000726	0.401483	-0.170833
39320	-2.057913	1.079411	9.245250	0.903043	0.006697	0.403031	-0.148439
39321	-2.207521	0.732018	9.791924	0.907449	0.018008	0.399763	-0.128067
39322	-2.193936	-0.605477	9.919836	0.912257	0.029234	0.393255	-0.110828
39323	-2.707671	-1.868336	10.234471	0.917258	0.040332	0.384061	-0.097506
39324	-3.427382	-1.698882	10.393339	0.922595	0.050627	0.372133	-0.088160
39325	-3.639029	-1.200247	10.109528	0.928190	0.059759	0.357891	-0.082495
39326	-4.159528	-0.025713	9.791609	0.933810	0.067982	0.342079	-0.079743
39327	-4.565356	1.146278	9.519800	0.939315	0.075775	0.325381	-0.077926
39328	-4.746728	2.348737	9.331797	0.944644	0.082773	0.308639	-0.074425
39329	-4.695125	2.519677	9.179294	0.949687	0.088694	0.292704	-0.067468
39330	-5.040483	1.654958	9.199900	0.954192	0.094607	0.278069	-0.056956
39331	-6.042624	0.730888	9.358035	0.958057	0.101315	0.264393	-0.044248
39332	-7.696135	0.241089	9.565093	0.961508	0.108126	0.250706	-0.030944
39333	-8.138860	-0.771629	9.178915	0.964781	0.113899	0.236359	-0.018970
39334	-7.558561	-1.633450	8.360203	0.967594	0.118992	0.222506	-0.009694
39335	-7.039999	-1.979189	7.496511	0.969698	0.123695	0.210645	-0.003720
39336	-7.342351	0.396911	6.388065	0.971263	0.125758	0.202070	-0.000583
39337	-9.655868	-2.988195	4.580814	0.972502	0.122764	0.197910	0.000880
39338	-9.658206	-2.294231	3.190230	0.973015	0.121124	0.196377	0.002773
39339	-10.852600	-1.198925	2.105864	0.972933	0.116932	0.199258	0.005029
39340	-12.258695	-1.269598	0.990739	0.972599	0.109582	0.204847	0.009008
39341	-12.029761	-2.819617	-1.689413	0.971611	0.098156	0.214780	0.014388
39342	-7.071914	-3.764672	2.902105	0.968905	0.087689	0.230548	0.019517
39343	-4.327323	0.478659	13.054910	0.965964	0.079527	0.244899	0.024750
39344	-5.870675	-5.509056	9.810143	0.962247	0.073136	0.261070	0.023950
39345	-14.323412	-2.330770	12.012047	0.959119	0.071089	0.273274	0.018927
39346	-8.345077	6.861440	8.671452	0.957562	0.067583	0.279724	0.016171
39347	-5.403380	-0.723261	8.783424	0.955802	0.061551	0.287082	0.015417
39348	-9.908501	-0.545169	9.157167	0.954993	0.057436	0.290713	0.013249
39349	-5.878326	2.990719	8.197603	0.954505	0.053121	0.293178	0.012022
39350	-6.643789	-0.350288	8.307009	0.954473	0.050059	0.293860	0.011008
39351	-6.112225	0.975480	8.272998	0.954580	0.048118	0.293864	0.010320
39352	-5.778370	0.979357	8.101550	0.954799	0.046825	0.293373	0.009882
39353	-5.726655	0.732640	8.168655	0.955118	0.045712	0.292526	0.009443
39354	-5.629020	0.684893	8.162273	0.955431	0.045144	0.291597	0.009169
39355	-5.399324	0.602576	8.224187	0.955650	0.044983	0.290908	0.009056
39356	-5.260532	0.760889	8.252187	0.955754	0.045025	0.290561	0.009039
39357	-5.244658	0.871042	8.181317	0.955782	0.044933	0.290483	0.008989
39358	-5.247094	0.935633	8.024843	0.955792	0.044568	0.290510	0.008961
39359	-5.432749	1.098547	7.975604	0.955904	0.043678	0.290280	0.008860
39360	-5.406097	1.027943	8.129478	0.956077	0.042459	0.289891	0.008788
39361	-5.600612	0.823887	8.097535	0.956250	0.041359	0.289483	0.008679
39362	-5.473941	0.714483	8.135839	0.956355	0.040679	0.289234	0.008582
39363	-5.247208	0.764500	8.106706	0.956401	0.040300	0.289138	0.008467
39364	-5.190515	0.527065	8.166411	0.956323	0.040416	0.289382	0.008417
39365	-5.403350	0.500623	8.203086	0.956106	0.041057	0.290009	0.008362
39366	-5.422008	0.702600	8.144839	0.955807	0.042352	0.290812	0.008240
39367	-5.370190	0.783943	8.223323	0.955439	0.043911	0.291790	0.008133
39368	-5.435738	0.881002	8.207212	0.954856	0.045556	0.293445	0.008002
39369	-5.588121	0.951141	8.024027	0.954282	0.047058	0.295076	0.007784
39370	-5.564917	1.030726	8.001021	0.953742	0.048197	0.296642	0.007475
39371	-5.590529	1.083725	8.020308	0.953242	0.048956	0.298132	0.007080
39372	-5.658230	0.915620	7.944911	0.952762	0.049594	0.299568	0.006646
39373	-5.648652	0.940536	7.943792	0.952274	0.050350	0.301000	0.006171
39374	-5.686264	0.883994	7.887366	0.951770	0.051249	0.302450	0.005639
39375	-5.707078	0.980625	7.863772	0.951315	0.052081	0.303744	0.005274
39376	-5.704798	1.095227	7.833911	0.950911	0.052795	0.304889	0.004867
39377	-5.688089	1.110193	7.818410	0.950561	0.053337	0.305892	0.004419
39378	-5.747995	1.021748	7.733291	0.950322	0.053656	0.306584	0.003941
39379	-5.712666	1.082478	7.826890	0.950167	0.053863	0.307033	0.003503
39380	-5.709495	1.158879	7.877087	0.950060	0.053871	0.307368	0.003018
39381	-5.712330	1.043867	7.938016	0.949964	0.053760	0.307688	0.002519
39382	-5.744915	0.973373	7.870664	0.949836	0.053627	0.308110	0.002071
39383	-5.819820	1.062114	7.815195	0.949754	0.053359	0.308412	0.001697
39384	-5.926029	1.030742	7.597695	0.949781	0.052922	0.308405	0.001384
39385	-5.830522	0.956344	7.742079	0.949911	0.052445	0.308086	0.001210
39386	-5.767023	1.119799	7.726717	0.950118	0.051970	0.307530	0.000958
39387	-5.739483	1.144560	7.765438	0.950417	0.051322	0.306712	0.000488
39388	-5.733780	1.107337	7.764094	0.950844	0.050321	0.305555	-0.000172
39389	-5.663480	0.832440	7.835200	0.951362	0.049098	0.304137	-0.000854
39390	-5.625072	0.802850	7.994503	0.951859	0.047965	0.302759	-0.001368
39391	-5.694096	0.733321	7.935742	0.952317	0.046884	0.301482	-0.001668
39392	-5.603188	0.752722	7.904326	0.952791	0.045866	0.300136	-0.001705
39393	-5.388593	1.230665	8.410783	0.953191	0.044888	0.299011	-0.001965
39394	-5.431170	1.012401	8.336979	0.953363	0.043753	0.298626	-0.002610
39395	-5.491840	0.880846	8.191453	0.953438	0.042470	0.298564	-0.003433
39396	-5.396296	0.643879	8.190824	0.953418	0.041142	0.298802	-0.004227
39397	-5.224696	0.873968	8.660183	0.953042	0.040184	0.300115	-0.005226
39398	-5.211367	0.675297	8.767056	0.952148	0.039393	0.303020	-0.006451
39399	-5.228694	0.701746	8.936992	0.950613	0.039025	0.307815	-0.007900
39400	-5.150708	0.178179	9.193410	0.948222	0.039902	0.314950	-0.009410
39401	-5.028997	0.753994	9.709493	0.944721	0.041284	0.325087	-0.010790
39402	-5.000593	1.025985	9.969198	0.939708	0.042429	0.339132	-0.011744
39403	-4.763210	1.373947	10.497982	0.932719	0.042881	0.357831	-0.012353
39404	-5.197039	1.514704	10.208001	0.923177	0.042435	0.381809	-0.012827
39405	-5.356865	2.469733	10.136364	0.910704	0.040239	0.410832	-0.014713
39406	-7.099266	2.782488	9.899179	0.894730	0.036768	0.444667	-0.019449
39407	-10.327152	3.281196	10.444423	0.876255	0.033706	0.479964	-0.025992
39408	-12.882094	4.176391	12.418139	0.858277	0.033461	0.510753	-0.037043
39409	-11.525633	5.206329	12.051780	0.841413	0.034055	0.536725	-0.052820
39410	-8.296790	5.181846	11.259710	0.824433	0.031284	0.560558	-0.071458
39411	-3.824108	7.343117	10.213975	0.805374	0.022281	0.585606	-0.089118
39412	-16.429083	9.742540	13.009239	0.791860	0.017978	0.602917	-0.095532
39413	-2.387173	8.073889	9.926076	0.784681	0.018059	0.612430	-0.094230
39414	-7.209638	5.136701	10.047381	0.778605	0.019346	0.620554	-0.091178
39415	-5.816248	3.870260	10.032909	0.777578	0.020900	0.622299	-0.087633
39416	-3.728696	1.627806	8.035427	0.779242	0.023043	0.620331	-0.086265
39417	-3.989674	1.595348	7.519504	0.783411	0.026046	0.614805	-0.087196
39418	-3.679859	1.468086	7.011652	0.790371	0.030289	0.605361	-0.089068
39419	-3.810480	2.267527	6.499414	0.799343	0.035079	0.593015	-0.090299
39420	-3.954251	1.268286	5.779635	0.808921	0.040936	0.579551	-0.089957
39421	-4.575546	1.250755	5.458956	0.818137	0.048882	0.566139	-0.088033
39422	-5.092013	0.980917	5.552591	0.827427	0.057846	0.552216	-0.084122
39423	-5.745357	0.324350	5.603557	0.837135	0.067733	0.537035	-0.078809
39424	-6.231405	0.386998	6.014778	0.847408	0.077681	0.520184	-0.072624
39425	-6.730103	0.447172	6.275027	0.858307	0.086727	0.501433	-0.065976
39426	-6.536027	0.375742	6.182891	0.869711	0.094795	0.480701	-0.059530
39427	-6.757367	0.772459	6.298648	0.881240	0.101923	0.458478	-0.053163
39428	-6.742743	1.227535	5.892879	0.892935	0.108147	0.434581	-0.045955
39429	-6.111303	1.660283	5.533554	0.904253	0.113765	0.409869	-0.037299
39430	-5.824654	2.233302	5.951043	0.914959	0.119377	0.384618	-0.025850
39431	-5.863921	2.139733	6.809232	0.924853	0.125525	0.358836	-0.011290
39432	-5.658013	2.097864	7.417349	0.933968	0.131672	0.332173	0.005267
39433	-5.605276	1.722944	7.980500	0.942070	0.137389	0.305172	0.022314
39434	-5.866538	1.734957	8.627477	0.949095	0.142461	0.278182	0.039222
39435	-7.205476	2.046996	9.548990	0.955255	0.147238	0.250514	0.055243
39436	-8.759116	2.603185	10.326357	0.960860	0.151489	0.221092	0.070120
39437	-9.407284	2.447898	10.192786	0.965956	0.154861	0.189930	0.082914
39438	-9.636375	1.536000	9.641423	0.970188	0.158135	0.158726	0.092387
39439	-10.375053	1.264675	9.323761	0.973411	0.161777	0.128821	0.098515
39440	-10.796269	1.317359	8.621851	0.975807	0.164719	0.101389	0.101926
39441	-11.805423	1.702619	7.270133	0.977622	0.165925	0.077385	0.103613
39442	-12.665142	1.314548	5.160831	0.978878	0.166062	0.057610	0.104414
39443	-12.671586	1.387337	2.755505	0.979626	0.165619	0.043648	0.104866
39444	-13.317407	0.384179	1.446271	0.980032	0.164352	0.036557	0.105781
39445	-12.397118	-1.999010	-2.053437	0.980124	0.162358	0.041485	0.106193
39446	-17.459889	1.535298	-4.146770	0.980172	0.155236	0.068697	0.102202
39447	-7.047260	9.863907	18.339059	0.980398	0.142885	0.094339	0.097489
39448	-10.131191	2.518164	10.191384	0.979651	0.128513	0.122041	0.094204
39449	-9.496058	-0.325639	12.312208	0.977662	0.119006	0.145291	0.094369
39450	-4.519653	-2.517200	9.771402	0.975581	0.111947	0.165521	0.091169
39451	-2.330982	0.246940	8.166001	0.973180	0.106954	0.185168	0.084823
39452	-5.068012	3.793477	8.525116	0.970068	0.102464	0.205615	0.078691
39453	-10.108266	4.886110	9.971537	0.966259	0.099197	0.224779	0.077311
39454	-9.298671	2.783965	10.207605	0.962978	0.095148	0.239953	0.077734
39455	-5.875216	1.940329	8.941581	0.960217	0.091174	0.252415	0.077187
39456	-7.005070	4.168106	8.461867	0.957414	0.085870	0.264641	0.077141
39457	-8.331591	1.586072	9.441937	0.955323	0.079042	0.274315	0.076555
39458	-8.896084	0.430438	9.270703	0.953952	0.072926	0.280806	0.076196
39459	-6.765724	-0.124674	9.031163	0.953101	0.070051	0.284468	0.075951
39460	-6.633796	0.600052	8.833818	0.952437	0.069103	0.286825	0.076289
39461	-5.827305	1.670692	8.325985	0.951954	0.069003	0.288303	0.076831
39462	-5.391760	1.222680	8.215388	0.951530	0.069482	0.289415	0.077465
39463	-4.894944	1.938461	7.890525	0.951171	0.069872	0.290395	0.077867
39464	-5.402099	2.120558	7.951129	0.950781	0.069808	0.291629	0.078070
39465	-5.004677	2.091133	7.637398	0.950474	0.069193	0.292706	0.078317
39466	-3.957522	3.048875	7.105276	0.949888	0.066075	0.295364	0.078150
39467	-5.045244	2.255826	7.515272	0.949416	0.060036	0.298509	0.076792
39468	-5.552961	1.770851	7.601502	0.949282	0.051618	0.300950	0.075026
39469	-6.736042	0.929856	8.506531	0.949448	0.044141	0.302035	0.073319
39470	-6.089738	0.785744	8.082833	0.950045	0.039896	0.301159	0.071599
39471	-6.018378	1.649669	8.156768	0.950828	0.035749	0.299595	0.069930
39472	-5.706050	0.491124	8.165529	0.951457	0.032558	0.298233	0.068745
39473	-5.432375	0.763797	8.135545	0.952066	0.029614	0.296816	0.067775
39474	-5.738469	0.251372	8.030186	0.952541	0.027185	0.295635	0.067282
39475	-5.366925	0.423259	8.212456	0.952891	0.025495	0.294661	0.067253
39476	-5.512139	0.793299	8.048464	0.953141	0.024021	0.293961	0.067315
39477	-5.649953	1.128605	7.954873	0.953451	0.022634	0.293178	0.066824
39478	-5.470406	0.568647	8.074216	0.953791	0.021563	0.292328	0.066040
39479	-5.354219	0.725041	8.217947	0.954011	0.020943	0.291786	0.065462
39480	-5.334123	0.409371	8.156076	0.954126	0.020571	0.291517	0.065096
39481	-5.355397	0.572171	8.150793	0.954092	0.020631	0.291645	0.065015
39482	-5.482947	0.798682	8.076576	0.954018	0.020927	0.291865	0.065011
39483	-5.492041	0.902457	8.069388	0.953886	0.021307	0.292324	0.064757
39484	-5.534197	0.881583	8.006109	0.953796	0.021515	0.292691	0.064357
39485	-5.537219	0.739100	8.010640	0.953802	0.021507	0.292761	0.063961
39486	-5.464089	0.670091	8.156380	0.953819	0.021380	0.292770	0.063694
39487	-5.470558	0.711944	8.138376	0.953814	0.021061	0.292842	0.063543
39488	-5.487930	0.899492	8.032732	0.953793	0.020645	0.292978	0.063369
39489	-5.439359	0.808373	8.117521	0.953822	0.020175	0.292984	0.063058
39490	-5.398733	0.458830	8.041449	0.953800	0.019832	0.293207	0.062471
39491	-5.366112	0.201050	8.129889	0.953716	0.019842	0.293553	0.062118
39492	-5.471933	0.509714	8.044730	0.953519	0.020381	0.294170	0.062050
39493	-5.520736	1.081387	7.953159	0.953352	0.020937	0.294740	0.061730
39494	-5.652355	1.132648	7.927183	0.953420	0.020836	0.294744	0.060673
39495	-5.471228	1.318399	8.268580	0.953606	0.020441	0.294489	0.059119
39496	-5.127006	1.549126	8.604645	0.953721	0.019800	0.294728	0.056205
39497	-4.904292	1.391505	8.892367	0.953531	0.018569	0.296042	0.052847
39498	-4.891322	0.447160	9.357486	0.952703	0.017557	0.299364	0.049292
39499	-4.823329	0.247327	9.491600	0.950768	0.017763	0.306022	0.045548
39500	-5.212863	0.292818	9.558724	0.947559	0.017814	0.316322	0.041902
39501	-5.372460	-0.267464	9.284471	0.942785	0.018257	0.330605	0.039039
39502	-6.143080	-0.637585	8.185955	0.937061	0.018889	0.346586	0.037928
39503	-6.553836	-0.941573	7.673555	0.931013	0.019579	0.362345	0.039219
39504	-6.469107	-0.140154	7.149905	0.925261	0.020289	0.376398	0.042487
39505	-6.488206	0.371430	6.463698	0.919802	0.020602	0.389100	0.046282
39506	-6.602871	0.417550	5.587705	0.914527	0.020242	0.400859	0.050429
39507	-7.345310	1.319582	5.193447	0.909258	0.019859	0.412159	0.054601
39508	-7.788920	2.706836	5.352727	0.904428	0.019795	0.422316	0.057157
39509	-7.642150	2.742122	4.867697	0.900351	0.019520	0.430903	0.057529
39510	-7.918688	1.921488	4.762836	0.896975	0.018997	0.438042	0.056511
39511	-8.185599	1.344449	4.757518	0.894354	0.018482	0.443669	0.054287
39512	-8.127787	0.676200	4.876417	0.892532	0.018100	0.447683	0.051365
39513	-8.029696	0.235448	4.680265	0.891301	0.018405	0.450439	0.048463
39514	-7.769507	-0.093686	4.965435	0.890472	0.019341	0.452265	0.046277
39515	-7.841870	-0.080240	5.499412	0.889965	0.020251	0.453326	0.045262
39516	-8.011659	0.266063	5.723034	0.889727	0.020853	0.453764	0.045263
39517	-8.032670	0.594291	5.732827	0.889708	0.021272	0.453745	0.045632
39518	-7.984562	0.573625	5.706220	0.889826	0.021639	0.453452	0.046076
39519	-7.854619	0.660021	5.740938	0.889968	0.022039	0.453106	0.046535
39520	-7.860731	0.720160	5.924305	0.890045	0.022643	0.452879	0.046974
39521	-7.868675	1.066178	5.910890	0.889990	0.023096	0.452930	0.047326
39522	-7.984849	1.348208	5.517565	0.889943	0.023242	0.453015	0.047321
39523	-7.930658	1.008380	5.480703	0.890138	0.023198	0.452675	0.046917
39524	-7.924796	0.680331	5.507241	0.890501	0.023190	0.452001	0.046541
39525	-7.838519	0.594616	5.777748	0.890908	0.023405	0.451209	0.046314
39526	-7.833999	0.577866	5.832447	0.891271	0.023723	0.450486	0.046224
39527	-7.790618	0.629918	5.908653	0.891524	0.024164	0.449948	0.046336
39528	-7.792266	0.630419	5.808803	0.891686	0.024704	0.449571	0.046604
39529	-7.777570	0.403415	5.789397	0.891812	0.025355	0.449216	0.047262
39530	-7.789811	0.585180	5.742555	0.891929	0.026298	0.448825	0.048230
39531	-7.801222	1.249748	5.847032	0.891997	0.027226	0.448539	0.049118
39532	-7.879386	1.671591	5.786268	0.892094	0.027623	0.448288	0.049425
39533	-7.826405	1.452892	5.750041	0.892324	0.027568	0.447872	0.049077
39534	-7.745968	0.856195	5.993025	0.892536	0.027325	0.447524	0.048525
39535	-7.701092	0.718452	6.127491	0.892556	0.026941	0.447544	0.048196
39536	-7.698351	0.860768	6.095494	0.892344	0.026342	0.448024	0.047978
39537	-7.737768	0.679463	5.989707	0.891926	0.025721	0.448906	0.047840
39538	-7.692745	0.478965	6.040793	0.891314	0.025250	0.450125	0.048060
39539	-7.713703	0.886072	6.077794	0.890444	0.024716	0.451823	0.048527
39540	-7.745776	1.255620	5.964506	0.889360	0.023690	0.453977	0.048813
39541	-7.796459	1.289148	5.787169	0.888086	0.022384	0.456550	0.048635
39542	-7.844144	1.314293	5.798849	0.886648	0.020813	0.459472	0.048031
39543	-7.893223	0.844924	5.781457	0.885003	0.018855	0.462809	0.047142
39544	-7.934175	0.476968	5.703126	0.883166	0.016753	0.466456	0.046431
39545	-7.986184	0.173208	5.587439	0.881140	0.014783	0.470361	0.046203
39546	-8.049094	0.329541	5.407810	0.878962	0.013122	0.474444	0.046438
39547	-8.150434	0.540679	5.224953	0.876688	0.011761	0.478632	0.046809
39548	-8.249851	0.651897	4.986195	0.874467	0.010542	0.482684	0.047047
39549	-8.381387	0.398015	4.785211	0.872460	0.009601	0.486304	0.047227
39550	-8.407801	0.196062	4.596043	0.870727	0.009049	0.489360	0.047738
39551	-8.432743	0.182447	4.613538	0.869336	0.008978	0.491737	0.048677
39552	-8.427972	0.345993	4.697259	0.868183	0.009269	0.493627	0.050041
39553	-8.482119	0.871570	4.745803	0.867245	0.009486	0.495126	0.051437
39554	-8.457442	1.134818	4.735377	0.866553	0.009381	0.496239	0.052381
39555	-8.508722	1.107332	4.769433	0.866000	0.009159	0.497170	0.052739
39556	-8.426270	0.673427	4.866969	0.865547	0.008883	0.497962	0.052757
39557	-8.361921	0.570487	5.004399	0.865042	0.008464	0.498837	0.052840
39558	-8.348797	0.558784	5.087678	0.864372	0.008070	0.499983	0.053031
39559	-8.411287	0.569164	4.931240	0.863524	0.007604	0.501426	0.053289
39560	-8.423180	0.682081	4.856119	0.862623	0.007050	0.502954	0.053557
39561	-8.479641	0.438060	4.765357	0.861701	0.006555	0.504505	0.053890
39562	-8.472146	0.333505	4.752417	0.860746	0.006164	0.506065	0.054565
39563	-8.492840	0.574185	4.796569	0.859726	0.005864	0.507705	0.055438
39564	-8.557531	0.594334	4.555513	0.858679	0.005668	0.509371	0.056384
39565	-8.571836	0.512172	4.424367	0.857761	0.005715	0.510795	0.057461
39566	-8.573135	0.373032	4.492880	0.856937	0.005990	0.512026	0.058757
39567	-8.608717	0.333730	4.543609	0.856163	0.006357	0.513111	0.060507
39568	-8.657568	0.672967	4.483649	0.855451	0.006634	0.514054	0.062513
39569	-8.727835	1.096528	4.314532	0.854880	0.006638	0.514767	0.064432
39570	-8.656449	1.129769	4.339165	0.854557	0.006502	0.515114	0.065932
39571	-8.645787	1.156954	4.308968	0.854426	0.006382	0.515207	0.066918
39572	-8.600408	1.055182	4.492484	0.854441	0.006407	0.515124	0.067359
39573	-8.599023	0.928793	4.610547	0.854482	0.006428	0.515042	0.067456
39574	-8.581159	0.769289	4.673793	0.854456	0.006362	0.515089	0.067434
39575	-8.542872	0.622550	4.753194	0.854318	0.006229	0.515316	0.067470
39576	-8.560681	0.709421	4.738617	0.853991	0.006003	0.515839	0.067629
39577	-8.591323	0.688620	4.644013	0.853535	0.005758	0.516569	0.067837
39578	-8.631333	0.816311	4.480648	0.853042	0.005464	0.517349	0.068110
39579	-8.582745	0.757379	4.494829	0.852517	0.005112	0.518181	0.068386
39580	-8.598619	0.684057	4.578207	0.851904	0.004688	0.519140	0.068781
39581	-8.601437	0.897713	4.510667	0.851225	0.004174	0.520213	0.069115
39582	-8.639916	1.069219	4.475808	0.850535	0.003547	0.521340	0.069151
39583	-8.687313	1.025996	4.381320	0.849836	0.002867	0.522539	0.068730
39584	-8.647720	0.790682	4.311585	0.849101	0.002098	0.523823	0.068064
39585	-8.651231	0.546368	4.358740	0.848343	0.001430	0.525134	0.067425
39586	-8.630067	0.473728	4.376468	0.847521	0.000954	0.526515	0.067002
39587	-8.672405	0.399831	4.356591	0.846548	0.000665	0.528102	0.066818
39588	-8.705605	0.462871	4.323835	0.845433	0.000548	0.529874	0.066908
39589	-8.772806	0.750552	4.241373	0.844240	0.000493	0.531750	0.067095
39590	-8.830856	0.996689	4.116739	0.843141	0.000571	0.533489	0.067096
39591	-8.775344	0.999753	4.084749	0.842060	0.000450	0.535248	0.066659
39592	-8.798514	0.862374	4.162277	0.840938	0.000186	0.537103	0.065898
39593	-8.805023	0.863923	4.293343	0.839705	-0.000248	0.539158	0.064839
39594	-8.841377	0.863636	4.295918	0.838250	-0.000942	0.541567	0.063567
39595	-8.815186	0.683354	4.171473	0.836597	-0.001820	0.544276	0.062172
39596	-8.918783	0.552263	3.999445	0.834752	-0.002732	0.547251	0.060806
39597	-8.931297	0.631954	3.783266	0.832889	-0.003697	0.550227	0.059427
39598	-8.950832	0.302707	3.758316	0.831045	-0.004633	0.553141	0.058120
39599	-8.943187	0.313179	3.799127	0.829131	-0.005430	0.556095	0.057196
39600	-9.008914	0.415295	3.656973	0.827180	-0.006088	0.559064	0.056425
39601	-8.964452	0.188608	3.692395	0.825160	-0.006435	0.562100	0.055789
39602	-9.011553	0.208927	3.721386	0.823006	-0.006653	0.565279	0.055476
39603	-9.061301	0.563013	3.713300	0.820526	-0.006968	0.568897	0.055183
39604	-9.167411	0.955467	3.623726	0.817800	-0.007599	0.572857	0.054584
39605	-9.200830	0.983646	3.361424	0.814919	-0.008760	0.577036	0.053477
39606	-9.209884	0.681139	3.194749	0.812049	-0.010244	0.581182	0.051954
39607	-9.157899	0.378741	3.270576	0.809135	-0.011799	0.585352	0.050237
39608	-9.210974	0.591836	3.333660	0.805942	-0.013602	0.589856	0.048400
39609	-9.339009	0.706218	3.208736	0.802394	-0.015794	0.594800	0.046122
39610	-9.327611	0.625397	3.276568	0.798358	-0.018137	0.600348	0.043340
39611	-9.356616	0.461042	3.067074	0.793808	-0.020619	0.606492	0.040146
39612	-9.574005	0.393245	2.752967	0.788839	-0.023291	0.613066	0.036623
39613	-9.682696	0.300348	2.349072	0.783572	-0.025958	0.619900	0.032632
39614	-9.539361	0.264866	2.161520	0.778227	-0.028294	0.626721	0.027977
39615	-9.848656	0.291949	1.761533	0.772894	-0.029982	0.633427	0.022513
39616	-9.844155	0.476881	1.446280	0.767771	-0.031069	0.639772	0.015950
39617	-10.208194	0.568976	0.986883	0.763220	-0.031306	0.645334	0.007647
39618	-10.299447	0.723439	0.613271	0.759553	-0.030073	0.649743	-0.003094
39619	-9.987495	0.781684	0.413948	0.756807	-0.026947	0.652870	-0.016657
39620	-9.549071	0.265115	-0.271805	0.754909	-0.021630	0.654629	-0.033241
39621	-9.432902	0.185294	-0.078389	0.753324	-0.013765	0.655366	-0.052996
39622	-9.713751	0.224702	0.248736	0.752230	-0.004310	0.654545	-0.075512
39623	-10.300797	0.193373	0.365195	0.751680	0.005669	0.651819	-0.100386
39624	-10.560315	0.303928	0.365899	0.752197	0.015462	0.646336	-0.127320
39625	-9.893311	0.543508	0.483512	0.753424	0.025685	0.638129	-0.156472
39626	-8.270067	-0.709718	0.676643	0.754225	0.036825	0.628002	-0.188155
39627	-7.744890	-1.508006	1.264749	0.753016	0.050828	0.617111	-0.222614
39628	-9.154522	-1.568236	1.956887	0.750319	0.066869	0.604505	-0.259084
39629	-9.192691	-0.836881	3.207182	0.746760	0.082667	0.589726	-0.296209
39630	-9.010362	-1.406981	3.792257	0.742392	0.096554	0.573376	-0.332823
39631	-8.529295	-1.275945	4.603588	0.737293	0.109482	0.555569	-0.368451
39632	-7.945110	-1.532583	4.632746	0.731418	0.120691	0.536944	-0.402682
39633	-7.067367	-2.924036	5.433308	0.724593	0.131477	0.517842	-0.435337
39634	-6.887974	-2.897620	6.412638	0.717531	0.140173	0.499865	-0.464366
39635	-6.689925	-3.509868	6.762350	0.711091	0.146130	0.484047	-0.488564
39636	-6.632536	-3.877892	6.411811	0.705791	0.150083	0.470356	-0.508035
39637	-6.550221	-3.970501	6.348816	0.701914	0.153018	0.458211	-0.523398
39638	-6.676709	-4.225471	6.177675	0.699277	0.156017	0.447220	-0.535411
39639	-6.425762	-4.838966	5.145099	0.697676	0.160009	0.436404	-0.545157
39640	-6.425545	-4.359206	5.910792	0.696776	0.166512	0.425032	-0.553286
39641	-6.554208	-3.627152	6.824719	0.696831	0.172951	0.414575	-0.559144
39642	-6.892967	-2.180634	7.550492	0.698080	0.176800	0.407120	-0.561854
39643	-6.623592	-3.121986	7.173195	0.700258	0.179640	0.402220	-0.561771
39644	-6.731422	-3.029340	6.730850	0.702991	0.183261	0.398642	-0.559735
39645	-7.064115	-2.036488	6.549155	0.705876	0.187628	0.395763	-0.556692
39646	-7.263836	-1.512802	6.368659	0.708581	0.192066	0.393526	-0.553318
39647	-7.461336	-0.972494	6.319986	0.710852	0.196817	0.391632	-0.550069
39648	-7.407072	-1.185206	5.962450	0.712455	0.201829	0.389940	-0.547376
39649	-7.375706	-1.543374	5.827679	0.713251	0.208732	0.387777	-0.545282
39650	-7.204628	-1.949594	5.922021	0.713815	0.217401	0.384977	-0.543136
39651	-7.559685	-1.296755	6.152770	0.714584	0.226353	0.382315	-0.540342
39652	-7.695714	-1.175930	5.964458	0.715843	0.234131	0.380098	-0.536915
39653	-7.688044	-0.733618	5.876253	0.717520	0.241484	0.377895	-0.532959
39654	-7.871425	0.369443	6.195640	0.719314	0.248011	0.376139	-0.528770
39655	-7.966335	1.074282	6.057821	0.720578	0.253742	0.375050	-0.525091
39656	-8.143100	1.232394	5.845333	0.720997	0.258929	0.374442	-0.522409
39657	-8.014235	0.645492	5.746652	0.720763	0.263619	0.374090	-0.520637
39658	-8.071976	0.368383	5.879620	0.720373	0.267512	0.374055	-0.519213
39659	-7.972689	0.063703	5.760996	0.720086	0.270641	0.374411	-0.517731
39660	-7.997556	-0.002261	5.605496	0.719847	0.273511	0.374970	-0.516148
39661	-7.918314	-0.211570	5.522159	0.719649	0.276607	0.375410	-0.514453
39662	-8.067991	-0.057107	5.432628	0.719632	0.279590	0.375734	-0.512624
39663	-8.128912	0.367168	5.492478	0.719818	0.282240	0.376044	-0.510679
39664	-8.192170	0.642556	5.335329	0.720031	0.284371	0.376304	-0.509003
39665	-8.268818	0.729396	5.262405	0.720246	0.285927	0.376395	-0.507758
39666	-8.315288	0.873370	5.165250	0.720454	0.286698	0.376312	-0.507090
39667	-8.334530	0.956444	5.047621	0.720629	0.286528	0.375908	-0.507236
39668	-8.293063	0.918910	5.199018	0.720789	0.285467	0.375143	-0.508172
39669	-8.129590	0.569792	5.328283	0.720892	0.284014	0.374158	-0.509565
39670	-8.183037	0.630748	5.456597	0.720994	0.282142	0.373011	-0.511298
39671	-8.260223	0.731479	5.340725	0.721025	0.279500	0.371852	-0.513546
39672	-8.149256	0.470832	5.154024	0.721127	0.276061	0.370342	-0.516345
39673	-7.882121	-0.374820	5.454741	0.721430	0.272889	0.368184	-0.519143
39674	-7.961851	-0.131392	5.600837	0.722030	0.269765	0.365738	-0.521665
39675	-8.126693	0.458514	5.574597	0.722865	0.265725	0.363264	-0.524305
39676	-7.962953	0.661028	5.641495	0.723766	0.260783	0.360600	-0.527374
39677	-8.050692	0.990558	5.746733	0.724216	0.255329	0.357838	-0.531291
39678	-8.047526	0.791188	5.636753	0.724379	0.248625	0.354804	-0.536260
39679	-7.361614	-0.034984	5.703344	0.724095	0.241623	0.351033	-0.542291
39680	-6.756783	-1.879290	6.134850	0.722874	0.237764	0.346112	-0.548750
39681	-6.883661	-1.207690	6.534692	0.721357	0.235379	0.340710	-0.555120
39682	-6.702275	-1.465223	7.025428	0.720021	0.234136	0.335484	-0.560536
39683	-6.622573	-1.237268	7.390553	0.719329	0.233330	0.331177	-0.564308
39684	-6.709036	-0.987962	7.394339	0.719459	0.232265	0.328184	-0.566328
39685	-6.822878	-0.868731	7.000027	0.720199	0.231237	0.326164	-0.566975
39686	-6.895948	-0.788653	6.842888	0.721193	0.230755	0.324267	-0.566996
39687	-6.883129	-0.610780	6.861524	0.722275	0.230772	0.322411	-0.566669
39688	-7.065946	-0.167357	6.863408	0.723318	0.231114	0.320673	-0.566186
39689	-7.092188	0.145316	6.756013	0.724299	0.230975	0.319154	-0.565847
39690	-7.115600	0.149940	6.787595	0.725133	0.230409	0.317750	-0.565799
39691	-7.056973	0.047314	6.740433	0.725867	0.229494	0.316373	-0.566001
39692	-7.040406	-0.049924	6.725924	0.726567	0.228286	0.314890	-0.566418
39693	-6.929155	-0.211745	6.774536	0.727269	0.226901	0.313253	-0.566982
39694	-6.854269	-0.191283	6.991479	0.727967	0.225483	0.311600	-0.567562
39695	-6.843814	-0.062244	7.111839	0.728572	0.223962	0.310165	-0.568173
39696	-6.891760	0.283925	7.226640	0.728949	0.222084	0.309250	-0.568926
39697	-6.928377	0.291198	7.022049	0.728993	0.219822	0.308640	-0.570079
39698	-6.855668	-0.057633	6.833902	0.728671	0.217300	0.307897	-0.571856
39699	-6.859916	-0.223771	6.786971	0.728087	0.214707	0.306760	-0.574184
39700	-6.796277	-0.200175	6.837637	0.727207	0.212037	0.305345	-0.577039
39701	-6.767779	-0.231878	6.909128	0.726115	0.209256	0.303612	-0.580334
39702	-6.691268	-0.066021	7.044199	0.724496	0.206676	0.301601	-0.584317
39703	-6.773982	-0.013165	7.050716	0.721915	0.204494	0.299281	-0.589451
39704	-6.786429	-0.054118	6.895783	0.717528	0.203563	0.296221	-0.596631
39705	-6.772840	0.080462	6.641223	0.710557	0.204547	0.291696	-0.606781
39706	-6.410439	0.235256	6.863388	0.701079	0.207023	0.285412	-0.619815
39707	-6.083191	0.198713	7.306697	0.689865	0.209937	0.278055	-0.634585
39708	-6.003568	-0.423979	7.311130	0.677733	0.212961	0.270037	-0.649928
39709	-5.837745	-0.807727	7.551739	0.665529	0.215859	0.261546	-0.664884
39710	-5.746889	-1.076189	7.774527	0.654013	0.218171	0.253038	-0.678705
39711	-5.665923	-1.188631	7.873970	0.643496	0.219940	0.244745	-0.691115
39712	-5.782930	-1.129323	7.902820	0.634049	0.221334	0.236706	-0.702113
39713	-5.911643	-1.027935	7.804649	0.625383	0.222475	0.228881	-0.712050
39714	-5.563647	-0.801933	7.583444	0.617353	0.223099	0.220899	-0.721322
39715	-4.826571	-0.434798	8.264797	0.610668	0.222628	0.213231	-0.729420
39716	-4.941756	-1.208362	8.456674	0.606151	0.220880	0.206699	-0.735573
39717	-4.834236	-2.192863	8.675829	0.604839	0.218685	0.201542	-0.738734
39718	-4.754719	-3.317946	8.640068	0.607012	0.217551	0.197141	-0.738474
39719	-5.060177	-1.880288	8.486005	0.610582	0.219475	0.192034	-0.736304
39720	-5.660348	1.124409	8.558130	0.613896	0.222785	0.187201	-0.733795
39721	-5.891920	2.383813	8.350310	0.616245	0.224153	0.183631	-0.732310
39722	-5.567750	1.007458	8.257816	0.617835	0.223953	0.181054	-0.731673
39723	-5.173907	0.412073	8.491515	0.619193	0.223456	0.178927	-0.731200
39724	-4.880945	0.358664	8.604357	0.620261	0.223065	0.177171	-0.730841
39725	-4.942586	0.259854	8.635854	0.621046	0.223365	0.175939	-0.730380
39726	-4.906621	0.612498	8.572222	0.621586	0.224086	0.175091	-0.729903
39727	-5.259216	0.672450	8.343656	0.621880	0.224734	0.174653	-0.729559
39728	-5.329341	0.516949	8.244953	0.622078	0.224962	0.174387	-0.729383
39729	-5.117454	0.295120	8.162659	0.622228	0.225176	0.174173	-0.729240
39730	-5.127942	0.528935	8.227402	0.622288	0.225293	0.174139	-0.729162
39731	-5.200829	0.177276	8.183533	0.622310	0.225366	0.174121	-0.729124
39732	-5.239636	0.153669	8.188595	0.622401	0.225537	0.173966	-0.729031
39733	-5.276527	0.138092	8.146115	0.622581	0.225700	0.173596	-0.728915
39734	-5.254537	0.147589	8.157205	0.622866	0.225754	0.172976	-0.728802
39735	-5.294512	0.243571	8.207880	0.623225	0.225835	0.172245	-0.728643
39736	-5.169344	0.401499	8.230985	0.623611	0.225769	0.171521	-0.728504
39737	-5.192386	0.332479	8.255602	0.623965	0.225562	0.170789	-0.728438
39738	-5.162841	0.364237	8.409438	0.624288	0.225460	0.170146	-0.728342
39739	-5.181696	0.352206	8.414593	0.624563	0.225631	0.169676	-0.728163
39740	-5.172379	0.348250	8.259699	0.624838	0.225722	0.169205	-0.728009
39741	-5.183869	0.463143	8.270953	0.625121	0.225736	0.168739	-0.727870
39742	-5.258042	0.475424	8.225320	0.625388	0.225602	0.168222	-0.727801
39743	-5.343854	0.407238	8.210040	0.625727	0.225305	0.167669	-0.727729
39744	-5.012981	0.495860	8.361744	0.626091	0.225023	0.167050	-0.727647
39745	-5.125070	0.660706	8.352289	0.626313	0.224912	0.166819	-0.727543
39746	-5.189691	0.472851	8.237681	0.626541	0.224503	0.166427	-0.727563
39747	-5.145866	0.490508	8.218169	0.626716	0.224062	0.166099	-0.727623
39748	-4.972250	0.295162	8.455705	0.626885	0.223532	0.165741	-0.727722
39749	-5.096660	0.274435	8.373800	0.627064	0.223412	0.165514	-0.727655
39750	-5.116949	0.357313	8.329200	0.627294	0.223372	0.165258	-0.727528
39751	-5.043682	0.305135	8.347078	0.627536	0.223533	0.164975	-0.727334
39752	-5.179888	0.318483	8.272201	0.627846	0.223725	0.164684	-0.727073
39753	-5.137444	0.530195	8.306544	0.628172	0.223965	0.164399	-0.726782
39754	-5.182734	0.600616	8.328635	0.628451	0.224154	0.164228	-0.726521
39755	-5.070586	0.542497	8.374862	0.628611	0.224342	0.164242	-0.726322
39756	-5.115052	0.422451	8.378873	0.628705	0.224703	0.164415	-0.726090
39757	-5.132080	0.421268	8.341817	0.628771	0.225229	0.164669	-0.725812
39758	-5.097036	0.297106	8.355174	0.628816	0.225862	0.164922	-0.725519
39759	-5.068088	0.272242	8.402122	0.628854	0.226680	0.165183	-0.725172
39760	-5.111499	0.425087	8.338814	0.628859	0.227431	0.165412	-0.724879
39761	-5.170932	0.577194	8.267727	0.628868	0.227997	0.165550	-0.724662
39762	-5.132242	0.501915	8.282874	0.628862	0.228385	0.165608	-0.724532
39763	-5.238197	0.414728	8.221830	0.628869	0.228751	0.165600	-0.724413
39764	-5.186339	0.440757	8.269953	0.628919	0.228982	0.165548	-0.724308
39765	-5.073325	0.439530	8.334459	0.628966	0.229324	0.165518	-0.724166
39766	-5.129773	0.468111	8.291586	0.629022	0.229861	0.165540	-0.723942
39767	-5.168604	0.682561	8.235594	0.629085	0.230423	0.165615	-0.723691
39768	-5.255918	0.534037	8.177379	0.629116	0.230793	0.165697	-0.723528
39769	-5.188884	0.374254	8.254221	0.629143	0.231186	0.165766	-0.723363
