// Start Time: Unknown
// Update Rate: 60.0Hz
// Filter Profile: human (46.1)
// Option Flags: AHS Disabled ICC Disabled 
// Firmware Version: 4.3.5
PacketCounter	Acc_X	Acc_Y	Acc_Z	Quat_q0	Quat_q1	Quat_q2	Quat_q3
40913	-1.287674	8.446329	5.526889	-0.484533	-0.320609	0.352227	0.733740
40914	-1.263379	8.381448	5.512330	-0.484398	-0.320238	0.352494	0.733862
40915	-1.153284	8.372406	5.480160	-0.484523	-0.319836	0.352644	0.733883
40916	-1.167508	8.377051	5.437600	-0.484834	-0.319476	0.352686	0.733814
40917	-1.248939	8.249097	5.404218	-0.485095	-0.319128	0.352588	0.733841
40918	-1.181674	8.048076	5.375505	-0.485155	-0.318862	0.352490	0.733963
40919	-1.179248	7.942122	5.295095	-0.484951	-0.318869	0.352548	0.734068
40920	-1.169729	8.011700	5.263699	-0.484610	-0.319127	0.352756	0.734080
40921	-1.256506	8.070031	5.229202	-0.484253	-0.319507	0.353010	0.734029
40922	-1.313870	8.076384	5.221026	-0.483874	-0.319958	0.353290	0.733947
40923	-1.393606	8.251012	5.149878	-0.483479	-0.320295	0.353482	0.733968
40924	-1.387663	8.198590	5.170602	-0.483130	-0.320444	0.353514	0.734118
40925	-1.428585	8.175080	5.215041	-0.482827	-0.320410	0.353416	0.734379
40926	-1.468996	8.124243	5.279608	-0.482555	-0.320144	0.353212	0.734772
40927	-1.314208	8.152213	5.350863	-0.482332	-0.319703	0.352851	0.735284
40928	-1.235349	8.075110	5.425255	-0.482238	-0.319140	0.352271	0.735867
40929	-1.227391	7.960384	5.496922	-0.482193	-0.318629	0.351582	0.736448
40930	-1.244215	7.867039	5.574127	-0.482196	-0.318204	0.350876	0.736966
40931	-1.334301	7.815482	5.682110	-0.482090	-0.317996	0.350277	0.737410
40932	-1.397758	7.896552	5.747196	-0.481830	-0.317942	0.349855	0.737803
40933	-1.418899	7.934935	5.821583	-0.481403	-0.317983	0.349593	0.738188
40934	-1.394256	8.017162	5.852025	-0.480929	-0.318025	0.349464	0.738541
40935	-1.379020	8.025859	5.789257	-0.480470	-0.318024	0.349375	0.738882
40936	-1.367069	8.008806	5.766385	-0.480067	-0.318001	0.349360	0.739161
40937	-1.324902	8.012605	5.749025	-0.479708	-0.317982	0.349379	0.739393
40938	-1.296051	7.944436	5.723454	-0.479380	-0.318055	0.349491	0.739522
40939	-1.342241	7.975387	5.655430	-0.479053	-0.318252	0.349654	0.739571
40940	-1.360772	7.990481	5.614829	-0.478725	-0.318494	0.349873	0.739576
40941	-1.374163	8.048346	5.585000	-0.478359	-0.318734	0.350151	0.739578
40942	-1.347273	8.069492	5.524423	-0.478003	-0.318941	0.350442	0.739581
40943	-1.313328	8.006583	5.468755	-0.477708	-0.319106	0.350711	0.739573
40944	-1.353918	8.019510	5.448491	-0.477435	-0.319300	0.351049	0.739506
40945	-1.321603	7.996204	5.454148	-0.477192	-0.319491	0.351386	0.739420
40946	-1.342502	8.124933	5.451338	-0.476948	-0.319670	0.351784	0.739310
40947	-1.337018	8.143174	5.412219	-0.476706	-0.319779	0.352129	0.739255
40948	-1.299600	8.120492	5.394287	-0.476484	-0.319857	0.352419	0.739226
40949	-1.295786	8.038185	5.420166	-0.476237	-0.319896	0.352683	0.739243
40950	-1.296274	8.000193	5.379630	-0.475907	-0.319970	0.352928	0.739306
40951	-1.307108	8.073308	5.402887	-0.475497	-0.320085	0.353265	0.739359
40952	-1.367980	8.100022	5.432050	-0.475026	-0.320196	0.353635	0.739437
40953	-1.331158	8.130770	5.441963	-0.474523	-0.320277	0.354054	0.739525
40954	-1.353565	8.030812	5.435125	-0.473980	-0.320371	0.354509	0.739614
40955	-1.277495	8.154466	5.480957	-0.473462	-0.320430	0.354911	0.739728
40956	-1.289028	8.224585	5.442569	-0.473047	-0.320534	0.355251	0.739785
40957	-1.335955	8.194107	5.412007	-0.472641	-0.320655	0.355445	0.739898
40958	-1.417255	8.153386	5.393722	-0.472136	-0.320864	0.355649	0.740032
40959	-1.396187	8.045895	5.352133	-0.471556	-0.321193	0.355907	0.740135
40960	-1.371866	8.173438	5.345916	-0.471001	-0.321658	0.356223	0.740135
40961	-1.418545	8.187627	5.321378	-0.470580	-0.322180	0.356558	0.740014
40962	-1.469107	8.197045	5.260736	-0.470233	-0.322775	0.356908	0.739807
40963	-1.454401	8.164681	5.215721	-0.469990	-0.323406	0.357275	0.739508
40964	-1.467194	8.140876	5.209047	-0.469775	-0.324072	0.357637	0.739179
40965	-1.423976	8.076849	5.139721	-0.469646	-0.324808	0.358054	0.738736
40966	-1.303453	8.167429	5.224517	-0.469621	-0.325609	0.358444	0.738209
40967	-1.282609	8.232952	5.215293	-0.469742	-0.326574	0.358729	0.737567
40968	-1.283258	8.350106	5.229986	-0.469890	-0.327692	0.358913	0.736887
40969	-1.292426	8.094696	5.237452	-0.470029	-0.329035	0.359069	0.736124
40970	-1.199579	8.061805	5.307736	-0.470090	-0.330786	0.359443	0.735117
40971	-1.266844	8.164147	5.347555	-0.470092	-0.333065	0.360085	0.733771
40972	-1.380473	8.347153	5.277366	-0.469960	-0.335670	0.360971	0.732232
40973	-1.351536	8.391173	5.177740	-0.469723	-0.338480	0.361989	0.730586
40974	-1.305221	8.229025	5.029600	-0.469430	-0.341518	0.363272	0.728721
40975	-1.324376	8.018044	4.920784	-0.468933	-0.345041	0.365193	0.726418
40976	-1.364376	8.246378	4.794141	-0.468129	-0.349135	0.367847	0.723636
40977	-1.284831	8.347035	4.540497	-0.467116	-0.353805	0.371172	0.720316
40978	-1.252939	8.546102	4.371753	-0.466037	-0.358779	0.374889	0.716621
40979	-1.090048	7.959823	4.279505	-0.464762	-0.364254	0.379091	0.712464
40980	-1.085756	8.266645	4.229408	-0.463297	-0.370396	0.383948	0.707635
40981	-1.118431	8.166263	4.245241	-0.461586	-0.377157	0.389357	0.702205
40982	-0.850945	7.988926	4.123423	-0.459655	-0.384683	0.395452	0.695955
40983	-0.786341	7.829160	3.875005	-0.457305	-0.393296	0.402235	0.688765
40984	-0.821043	7.841317	3.561602	-0.454293	-0.403280	0.409910	0.680409
40985	-1.013482	8.629752	3.369141	-0.450682	-0.414291	0.418132	0.671129
40986	-1.401000	8.858961	3.152302	-0.446720	-0.425525	0.426245	0.661577
40987	-1.621287	8.793439	2.660396	-0.442226	-0.436725	0.434470	0.651876
40988	-1.576344	9.158590	2.205139	-0.437393	-0.447756	0.443032	0.641814
40989	-1.713111	9.714283	1.801486	-0.432560	-0.458377	0.451610	0.631530
40990	-1.864716	10.530168	1.347488	-0.428198	-0.468062	0.459624	0.621538
40991	-2.355852	10.734893	0.939947	-0.424342	-0.476620	0.466540	0.612461
40992	-2.778928	10.444515	0.478149	-0.420683	-0.483670	0.472497	0.604844
40993	-2.601722	10.496614	0.074146	-0.417034	-0.489369	0.478021	0.598412
40994	-1.575568	10.680473	-0.232209	-0.414085	-0.493707	0.482926	0.592932
40995	-0.898771	10.520098	-0.429350	-0.412530	-0.497461	0.486863	0.587635
40996	-1.618112	10.295056	-0.322511	-0.412074	-0.500966	0.489559	0.582718
40997	-2.610486	9.761550	-0.390576	-0.411683	-0.503976	0.491453	0.578792
40998	-2.684969	9.288570	-0.392425	-0.410465	-0.506359	0.493440	0.575879
40999	-1.933443	9.851275	-0.422603	-0.409033	-0.508146	0.495521	0.573532
41000	-1.412825	9.609470	-0.640613	-0.407981	-0.509354	0.497434	0.571550
41001	-1.341901	9.259195	-0.689401	-0.407384	-0.510483	0.499105	0.569508
41002	-2.443384	9.591071	-0.572220	-0.406757	-0.511450	0.500519	0.567846
41003	-2.257459	9.860882	-0.567868	-0.405716	-0.511910	0.502194	0.566695
41004	-1.806526	9.906078	-0.548250	-0.404952	-0.512018	0.504118	0.565435
41005	-1.447595	10.178193	-0.738341	-0.404688	-0.511727	0.506230	0.563998
41006	-1.431338	9.639252	-0.942302	-0.404896	-0.511186	0.508272	0.562502
41007	-1.934169	9.154731	-0.942719	-0.404846	-0.510630	0.510422	0.561093
41008	-2.283690	9.308405	-0.816140	-0.404110	-0.509959	0.512591	0.560256
41009	-1.957178	9.214446	-0.771088	-0.402945	-0.508899	0.514793	0.560041
41010	-1.742529	9.043251	-0.908598	-0.401776	-0.507702	0.517088	0.559852
41011	-1.808705	9.503246	-1.230599	-0.400706	-0.506229	0.519540	0.559683
41012	-1.990671	10.183718	-1.492607	-0.399773	-0.504328	0.521949	0.559826
41013	-2.139729	10.513287	-1.415214	-0.398989	-0.501785	0.523915	0.560832
41014	-2.263381	10.389192	-1.290838	-0.398255	-0.498685	0.525291	0.562828
41015	-2.130836	10.019411	-1.299805	-0.397482	-0.495049	0.526221	0.565708
41016	-1.821606	9.377477	-1.244163	-0.396738	-0.491125	0.527068	0.568853
41017	-1.401438	8.695484	-1.231614	-0.396163	-0.487312	0.528031	0.571634
41018	-1.374799	8.757842	-1.338022	-0.395912	-0.483885	0.529121	0.573707
41019	-1.723370	8.807087	-1.332561	-0.395748	-0.480829	0.530015	0.575561
41020	-2.008902	8.565021	-1.495898	-0.395282	-0.478128	0.530711	0.577487
41021	-2.017024	8.731681	-1.597941	-0.394390	-0.475853	0.531211	0.579513
41022	-2.422487	8.925199	-1.493855	-0.393158	-0.473983	0.531412	0.581694
41023	-2.673531	9.188040	-1.409371	-0.391586	-0.472170	0.531229	0.584390
41024	-2.529662	8.957224	-1.430273	-0.389881	-0.470212	0.530756	0.587530
41025	-2.201751	8.658977	-1.250306	-0.388215	-0.468371	0.529988	0.590788
41026	-2.506560	8.518733	-1.164778	-0.386916	-0.467021	0.529221	0.593391
41027	-3.362005	8.610815	-1.171850	-0.385371	-0.465999	0.528736	0.595628
41028	-3.762900	8.987065	-1.195103	-0.383357	-0.464747	0.528731	0.597905
41029	-3.833540	9.309689	-0.980564	-0.381060	-0.462949	0.528892	0.600621
41030	-3.996167	9.115862	-0.851083	-0.378441	-0.460826	0.529299	0.603543
41031	-3.999852	9.096483	-0.594462	-0.375517	-0.458477	0.530283	0.606288
41032	-3.797237	9.059710	-0.559588	-0.372093	-0.456305	0.531899	0.608618
41033	-3.704342	8.934556	-0.556069	-0.368219	-0.454345	0.533934	0.610655
41034	-2.947946	9.569947	-0.673392	-0.364324	-0.452717	0.536360	0.612072
41035	-3.104339	10.325352	-0.676663	-0.360820	-0.451292	0.538510	0.613312
41036	-3.210096	10.170147	-0.658078	-0.357164	-0.449927	0.540586	0.614626
41037	-3.376418	12.604028	-1.048522	-0.353196	-0.448529	0.543196	0.615640
41038	-3.414937	10.985915	-0.335612	-0.348536	-0.446363	0.545447	0.617876
41039	-1.988127	10.416426	-0.653888	-0.343164	-0.444387	0.548571	0.619539
41040	-1.424339	9.836512	0.679459	-0.338397	-0.442164	0.551237	0.621382
41041	-0.567011	9.410812	1.163111	-0.334613	-0.440031	0.553607	0.622837
41042	-0.922543	11.983287	1.143711	-0.332070	-0.437979	0.555169	0.624253
41043	-0.961346	13.746352	1.541758	-0.330399	-0.434938	0.555291	0.627150
41044	0.163698	10.897669	2.120231	-0.329428	-0.430996	0.554298	0.631247
41045	1.119970	9.064322	2.512625	-0.328820	-0.427652	0.553969	0.634120
41046	0.574696	9.973279	3.072150	-0.328141	-0.425413	0.554355	0.635640
41047	-0.225750	10.695428	2.889995	-0.326557	-0.423405	0.555032	0.637203
41048	-0.131140	10.202985	2.904513	-0.323856	-0.421137	0.555817	0.639397
41049	0.288786	9.011244	2.719612	-0.320464	-0.418854	0.557084	0.641499
41050	0.184748	8.533945	2.575044	-0.316957	-0.416819	0.558745	0.643120
41051	-0.211373	8.545183	2.234955	-0.313387	-0.414925	0.560814	0.644293
41052	-0.247209	9.281716	1.869862	-0.309742	-0.413037	0.563035	0.645330
41053	0.050775	9.719915	1.820866	-0.306284	-0.411025	0.564752	0.646764
41054	0.564110	9.250820	1.751586	-0.303499	-0.409041	0.565726	0.648482
41055	0.454287	8.519969	1.969323	-0.301454	-0.407158	0.566360	0.650065
41056	0.445783	8.161721	2.052486	-0.300072	-0.405577	0.567044	0.651096
41057	-0.138765	8.226533	1.680685	-0.299034	-0.404176	0.568007	0.651605
41058	-0.483434	8.370279	1.200133	-0.297754	-0.402692	0.569326	0.651959
41059	-0.294441	8.005451	0.395501	-0.296395	-0.401185	0.571059	0.651991
41060	-0.417767	7.392114	-0.385754	-0.295562	-0.399868	0.573062	0.651421
41061	-1.639053	6.661703	-1.300295	-0.294876	-0.398815	0.575471	0.650253
41062	-1.960287	8.540493	-2.047490	-0.293945	-0.397462	0.578241	0.649044
41063	-1.387687	8.626700	-2.364926	-0.293842	-0.395984	0.579354	0.649001
41064	-2.141197	8.474936	-2.995148	-0.295537	-0.395500	0.579346	0.648533
41065	-4.344219	10.191463	-2.709818	-0.298088	-0.395955	0.577792	0.648475
41066	-5.900592	9.929349	-2.735308	-0.300258	-0.396310	0.573963	0.650653
41067	-6.082175	10.082422	-1.803922	-0.302064	-0.396131	0.569949	0.653449
41068	-5.440286	9.611798	-0.379257	-0.304232	-0.395353	0.565746	0.656560
41069	-4.536337	9.168092	0.190988	-0.308140	-0.395377	0.561960	0.657972
41070	-6.000413	8.531632	0.645188	-0.313234	-0.396230	0.558639	0.657882
41071	-6.344358	8.120644	0.372443	-0.317292	-0.397530	0.556596	0.656884
41072	-4.656170	9.142819	0.195349	-0.320997	-0.399326	0.555162	0.655206
41073	-3.535880	10.759638	-0.201511	-0.325392	-0.402652	0.554433	0.651610
41074	-2.906289	14.260658	0.299197	-0.331728	-0.407456	0.552862	0.646746
41075	-3.816972	13.998045	1.410662	-0.340028	-0.413196	0.548605	0.642404
41076	-2.911271	11.562871	1.675339	-0.350133	-0.420497	0.542832	0.637120
41077	-4.125668	11.213271	1.611027	-0.360937	-0.431138	0.537040	0.628835
41078	-3.763161	12.472527	1.230503	-0.371974	-0.444363	0.531068	0.618178
41079	-3.763835	12.289795	0.147246	-0.383834	-0.459872	0.524884	0.604720
41080	-5.343279	12.067559	-0.283272	-0.395395	-0.476717	0.518397	0.589634
41081	-6.066771	11.966933	-0.239761	-0.405106	-0.493277	0.511564	0.575212
41082	-4.765993	11.813886	0.102667	-0.413727	-0.508145	0.503452	0.563164
41083	-4.194642	9.333897	0.425690	-0.421663	-0.520885	0.493701	0.554201
41084	-2.683400	7.092877	1.034538	-0.428342	-0.531882	0.484073	0.547081
41085	-1.121263	6.353500	1.801839	-0.434398	-0.541639	0.474788	0.540835
41086	-0.180875	5.679311	2.424829	-0.440487	-0.549824	0.465550	0.535657
41087	1.495496	4.534487	2.695166	-0.446962	-0.556349	0.456697	0.531159
41088	1.992877	3.876546	2.516424	-0.454239	-0.562198	0.448323	0.525935
41089	0.256007	4.659107	2.148038	-0.460887	-0.567226	0.440889	0.521013
41090	0.414981	6.055422	1.538685	-0.465298	-0.571117	0.435168	0.517641
41091	1.463349	9.017227	1.528872	-0.468528	-0.574112	0.430426	0.515374
41092	0.654830	10.317015	2.337895	-0.471647	-0.575421	0.424238	0.516200
41093	1.435044	9.206110	2.125227	-0.474501	-0.575039	0.417836	0.519223
41094	3.465557	11.020664	1.215777	-0.478154	-0.574321	0.413908	0.519812
41095	3.363152	12.931528	0.665439	-0.483310	-0.574191	0.411328	0.517228
41096	0.235833	12.807974	0.620811	-0.487928	-0.574928	0.409371	0.513614
41097	-1.640546	14.085341	0.903909	-0.489638	-0.574727	0.409091	0.512434
41098	0.167512	16.118838	1.240412	-0.489998	-0.572021	0.410186	0.514238
41099	1.188865	15.924446	1.699818	-0.489896	-0.567152	0.412856	0.517582
41100	-0.112755	15.799313	2.323509	-0.487618	-0.560527	0.418544	0.522359
41101	1.119893	15.624768	1.995362	-0.482003	-0.551918	0.428111	0.528943
41102	2.457272	15.555998	1.552831	-0.474029	-0.542043	0.440228	0.536363
41103	3.138344	15.174074	1.521438	-0.464996	-0.531088	0.453250	0.544325
41104	3.013141	12.900455	1.812437	-0.455704	-0.519300	0.465749	0.552937
41105	1.743838	9.736339	1.981295	-0.445122	-0.507932	0.477826	0.561742
41106	1.021767	9.439280	2.464258	-0.432313	-0.496616	0.490344	0.571000
41107	2.279402	8.180413	2.432992	-0.418751	-0.484592	0.502485	0.580798
41108	3.841238	6.925388	2.653226	-0.405689	-0.472506	0.513690	0.590150
41109	5.587034	6.058543	3.105640	-0.395300	-0.461088	0.523026	0.597980
41110	4.863067	3.523780	3.945407	-0.388645	-0.450942	0.530117	0.603807
41111	2.040687	1.721897	4.750949	-0.382620	-0.442829	0.535892	0.608542
41112	0.129921	2.305528	5.235251	-0.374834	-0.435923	0.540652	0.614138
41113	-0.656404	3.395850	5.085227	-0.365523	-0.429479	0.544126	0.621183
41114	-0.934940	7.061435	4.994939	-0.357509	-0.423673	0.547571	0.626781
41115	-3.954776	7.916610	4.691455	-0.352796	-0.418350	0.549598	0.631237
41116	-7.891196	6.423634	3.471315	-0.346617	-0.413975	0.552715	0.634813
41117	-5.763398	9.493348	2.436996	-0.338464	-0.409581	0.557417	0.637943
41118	-5.205414	9.992111	1.500709	-0.330452	-0.405431	0.562179	0.640611
41119	-3.795390	10.725445	1.702129	-0.322728	-0.400915	0.566942	0.643188
41120	-2.024484	11.554204	0.955392	-0.317462	-0.397289	0.571221	0.644271
41121	-4.525217	14.792917	0.566125	-0.314718	-0.395700	0.573943	0.644177
41122	-6.439251	15.094505	-0.223047	-0.312293	-0.394933	0.575385	0.644541
41123	-7.165836	15.866816	-0.924046	-0.309488	-0.395617	0.576347	0.644615
41124	-7.453342	16.484025	-1.322912	-0.306512	-0.397252	0.577216	0.644253
41125	-6.928799	15.832923	-1.304836	-0.304079	-0.399282	0.577863	0.643571
41126	-4.869424	14.708075	-1.056760	-0.303545	-0.402444	0.578565	0.641219
41127	-3.631567	13.150566	-0.698920	-0.306215	-0.407817	0.578523	0.636576
41128	-4.504041	10.512355	-0.681250	-0.311306	-0.415744	0.577354	0.630007
41129	-5.786910	8.322054	-1.015654	-0.316607	-0.425118	0.575412	0.622844
41130	-5.875899	6.334277	-1.059492	-0.321056	-0.434696	0.572723	0.616402
41131	-3.547784	4.646180	-1.269830	-0.325776	-0.443922	0.569691	0.610128
41132	-2.999083	4.256713	-1.656680	-0.332641	-0.453238	0.566985	0.602041
41133	-4.443407	5.413488	-2.234865	-0.340388	-0.461975	0.565191	0.592684
41134	-4.878352	7.407893	-2.202456	-0.347498	-0.469206	0.563735	0.584204
41135	-4.028666	8.251681	-2.348832	-0.353902	-0.474674	0.561587	0.577978
41136	-3.475000	9.050400	-1.804983	-0.359876	-0.478807	0.558380	0.573973
41137	-2.084145	7.713100	-1.588290	-0.365943	-0.481317	0.553632	0.572635
41138	0.243349	5.216932	-2.422493	-0.372452	-0.484224	0.549648	0.569819
41139	-0.730243	6.659296	-2.553959	-0.378761	-0.489166	0.547140	0.563821
41140	-1.738053	9.763417	-2.493328	-0.383802	-0.494716	0.545255	0.557359
41141	-1.119952	12.754002	-2.239921	-0.388344	-0.499590	0.542362	0.552668
41142	1.258913	13.484463	-2.049426	-0.393688	-0.503004	0.537601	0.550437
41143	3.541867	11.326094	-2.480120	-0.400705	-0.506707	0.530806	0.548569
41144	1.602118	9.601715	-2.488435	-0.407382	-0.512336	0.523549	0.545388
41145	-0.497305	9.308323	-1.890637	-0.411353	-0.518313	0.517276	0.542739
41146	-1.251067	9.500096	-1.457971	-0.412460	-0.523479	0.512187	0.541767
41147	-1.119915	9.431349	-1.445463	-0.411518	-0.527054	0.508055	0.542907
41148	-0.180076	9.347295	-1.901650	-0.409971	-0.529095	0.504736	0.545183
41149	-0.115601	8.195168	-2.318760	-0.408486	-0.529973	0.501835	0.548115
41150	0.076102	7.542836	-2.841696	-0.406651	-0.530312	0.500046	0.550779
41151	0.229586	6.494027	-2.581933	-0.404997	-0.529777	0.498897	0.553548
41152	0.386559	5.872360	-2.253335	-0.403781	-0.528657	0.498586	0.555783
41153	-0.072063	5.449048	-1.608518	-0.403338	-0.526559	0.498149	0.558481
41154	0.053955	3.653998	-1.057569	-0.403733	-0.523005	0.497304	0.562276
41155	1.162701	0.798805	-0.882941	-0.404823	-0.518416	0.496583	0.566364
41156	2.115292	-1.286709	-0.487146	-0.405939	-0.514573	0.497523	0.568242
41157	2.316104	-0.927379	-0.045032	-0.406724	-0.512458	0.500057	0.567367
41158	1.478317	1.285344	0.751060	-0.407469	-0.511324	0.502329	0.565847
41159	0.985526	0.995010	1.107453	-0.408648	-0.509665	0.503113	0.565796
41160	0.807569	-0.639443	1.340003	-0.409500	-0.508122	0.503512	0.566213
41161	0.626835	-1.650117	1.078456	-0.409148	-0.507753	0.504793	0.565658
41162	0.202884	-0.489138	0.928088	-0.407738	-0.508700	0.506885	0.563953
41163	-0.533228	0.157046	1.186522	-0.406061	-0.509771	0.508231	0.562983
41164	-1.002308	0.597755	0.295862	-0.404421	-0.511037	0.509397	0.561960
41165	-1.756518	5.085328	0.011840	-0.403182	-0.512224	0.511325	0.560015
41166	-1.720043	6.971326	0.603378	-0.403530	-0.511395	0.511463	0.560396
41167	-0.974440	2.572222	0.964659	-0.404914	-0.509264	0.509812	0.562839
41168	-0.609197	1.877366	0.229791	-0.404883	-0.509317	0.510623	0.562077
41169	-0.862404	8.733615	1.044173	-0.404675	-0.509895	0.512810	0.559707
41170	-0.536264	13.248729	0.681087	-0.406793	-0.508660	0.512633	0.559457
41171	-2.000586	13.795953	1.985721	-0.410317	-0.506326	0.509570	0.561795
41172	-3.216275	8.997795	2.757745	-0.411735	-0.504218	0.507078	0.564899
41173	-1.266384	9.877259	2.850220	-0.410530	-0.503385	0.508197	0.565512
41174	-1.222487	15.199599	1.433888	-0.408971	-0.503838	0.510831	0.563864
41175	-1.004301	21.043240	1.335275	-0.407910	-0.503630	0.512421	0.563374
41176	-0.865187	17.724312	2.265115	-0.407872	-0.503525	0.511763	0.564093
41177	-3.616963	15.449000	2.300236	-0.406053	-0.505594	0.511780	0.563539
41178	-3.829199	18.784138	1.479971	-0.402399	-0.507538	0.514205	0.562204
41179	-3.651057	22.545395	0.228195	-0.399038	-0.508398	0.517371	0.560916
41180	-3.502801	26.146330	-0.536179	-0.396402	-0.508855	0.519613	0.560299
41181	-5.417105	28.482669	-1.636530	-0.394459	-0.509633	0.520937	0.559733
41182	-9.163927	30.345158	-2.164490	-0.391600	-0.508903	0.523657	0.559867
41183	-8.716828	30.901858	-2.995111	-0.386934	-0.505176	0.528852	0.561600
41184	-4.779878	32.578294	-3.299247	-0.383077	-0.499319	0.534377	0.564246
41185	-2.836601	30.023667	-2.174035	-0.381499	-0.493478	0.538785	0.566258
41186	-3.046911	23.550760	-1.023480	-0.379965	-0.489137	0.542842	0.567181
41187	-2.618714	21.317594	-0.624890	-0.376775	-0.486152	0.547763	0.567144
41188	-2.038397	21.216986	-0.216417	-0.372602	-0.483571	0.552136	0.567867
41189	-1.393620	18.758621	0.206017	-0.368331	-0.481177	0.555119	0.569775
41190	-1.475689	17.156574	0.908163	-0.364527	-0.478817	0.557815	0.571574
41191	-0.998760	16.140222	1.611345	-0.361608	-0.476109	0.560879	0.572691
41192	-0.356195	14.046930	1.931207	-0.359325	-0.473986	0.564138	0.572687
41193	-0.610850	13.815921	1.707293	-0.357149	-0.472706	0.567612	0.571673
41194	-1.291979	13.842139	1.411930	-0.354648	-0.471590	0.570842	0.570935
41195	-1.354687	12.714085	0.781400	-0.351479	-0.470178	0.573693	0.571202
41196	-1.679734	11.850875	-0.006011	-0.347848	-0.468723	0.575717	0.572582
41197	-1.376299	11.262499	-0.737651	-0.344024	-0.467146	0.576696	0.575190
41198	-0.508063	9.059001	-0.930857	-0.341450	-0.465554	0.576185	0.578517
41199	-1.489669	6.444724	-1.356863	-0.340148	-0.464325	0.575467	0.580982
41200	-1.902616	6.725368	-2.010696	-0.339014	-0.463154	0.575640	0.582406
41201	-1.608150	7.874355	-1.864641	-0.338189	-0.461686	0.575738	0.583952
41202	-1.330790	7.721750	-1.483338	-0.337800	-0.459870	0.574396	0.586924
41203	-0.411328	7.182635	-0.997394	-0.338297	-0.458071	0.571159	0.591189
41204	-0.381476	5.653650	-0.275191	-0.340343	-0.456334	0.565937	0.596357
41205	-0.692272	2.768610	0.315886	-0.343245	-0.454501	0.560119	0.601564
41206	-1.328893	0.974818	0.830660	-0.345762	-0.453457	0.555068	0.605578
41207	-2.064976	1.069317	1.166752	-0.346715	-0.453190	0.550749	0.609167
41208	-1.935602	1.338891	1.400656	-0.346751	-0.452743	0.546926	0.612910
41209	-1.526802	0.919969	1.412195	-0.346969	-0.451505	0.543986	0.616308
41210	-1.268949	0.488727	1.201949	-0.347710	-0.449425	0.542263	0.618923
41211	-0.914139	-0.072702	0.995120	-0.348540	-0.446730	0.542151	0.620503
41212	-0.792508	-0.547979	0.652404	-0.348825	-0.443908	0.543452	0.621230
41213	-0.606404	0.193798	-0.007332	-0.347900	-0.441403	0.546617	0.620756
41214	-0.526683	1.892852	-0.489530	-0.345982	-0.438875	0.550848	0.619880
41215	-0.006928	3.205293	-0.986803	-0.343439	-0.436145	0.555606	0.618974
41216	0.291888	3.794194	-1.062639	-0.340911	-0.433294	0.560018	0.618398
41217	0.247037	2.674464	-2.132372	-0.338003	-0.430630	0.564281	0.617980
41218	1.438603	5.862085	-4.091038	-0.334564	-0.429370	0.571027	0.614522
41219	0.507426	10.705152	-4.709430	-0.332362	-0.428105	0.577279	0.610746
41220	0.144457	12.762955	-5.194651	-0.330615	-0.426696	0.581463	0.608708
41221	-0.924838	12.442782	-4.052996	-0.329414	-0.425808	0.582066	0.609404
41222	-3.184673	7.695269	-4.027285	-0.327320	-0.425036	0.580778	0.612294
41223	-3.715197	8.031498	-4.122291	-0.323122	-0.423843	0.581473	0.614685
41224	-2.369031	10.000907	-3.659459	-0.319013	-0.421039	0.582699	0.617592
41225	-2.685543	9.958776	-3.249866	-0.316465	-0.417619	0.583127	0.620812
41226	-4.510952	8.670087	-2.833823	-0.314271	-0.413892	0.582661	0.624847
41227	-5.317059	6.647233	-2.755512	-0.311302	-0.409584	0.582248	0.629539
41228	-4.792179	6.442694	-2.319984	-0.308297	-0.405263	0.582455	0.633609
41229	-5.242873	6.208940	-2.053802	-0.306451	-0.401671	0.581806	0.637377
41230	-6.776482	4.615680	-2.341521	-0.305142	-0.398946	0.580567	0.640837
41231	-7.736201	6.120817	-2.471369	-0.303423	-0.397538	0.579432	0.643550
41232	-6.014873	9.324796	-2.345683	-0.302601	-0.397521	0.576569	0.646513
41233	-5.392561	10.045173	-2.225407	-0.305331	-0.400959	0.570355	0.648614
41234	-7.277208	9.851125	-2.067531	-0.310768	-0.408126	0.562024	0.648834
41235	-6.427863	11.278235	-1.553906	-0.319798	-0.417269	0.552651	0.646678
41236	-4.879225	11.596789	-1.649200	-0.332930	-0.426980	0.543009	0.641862
41237	-4.278876	11.976844	-2.844751	-0.349180	-0.437758	0.533795	0.633644
41238	-6.096643	13.893578	-2.494582	-0.365567	-0.449846	0.524799	0.623366
41239	-8.615344	11.543900	-1.738990	-0.378585	-0.461259	0.515394	0.615047
41240	-7.308090	11.392833	-1.012232	-0.388354	-0.470941	0.507828	0.607870
41241	-5.598494	10.707133	0.073990	-0.397307	-0.478065	0.500326	0.602723
41242	-4.673063	7.436824	1.415249	-0.406141	-0.482946	0.493194	0.598809
41243	-3.809281	4.788485	3.166723	-0.413984	-0.486658	0.487679	0.594937
41244	-2.025675	3.099376	4.392569	-0.420170	-0.489339	0.483508	0.591797
41245	2.125773	3.663692	4.768788	-0.425704	-0.492103	0.480657	0.587860
41246	3.317671	4.662673	5.037371	-0.432235	-0.495574	0.476660	0.583415
41247	2.664306	6.290854	4.934046	-0.438605	-0.500079	0.471500	0.578995
41248	4.237758	13.057873	5.915964	-0.446181	-0.503551	0.464632	0.575739
41249	4.597620	14.145362	7.095563	-0.457623	-0.505296	0.453067	0.574446
41250	1.049982	11.208076	8.100140	-0.469042	-0.506367	0.440674	0.573933
41251	1.767320	10.053865	7.238748	-0.477758	-0.507478	0.431286	0.572893
41252	2.127538	11.993598	5.450906	-0.484354	-0.510434	0.424345	0.569902
41253	-0.141850	12.429783	3.858909	-0.488364	-0.514846	0.419213	0.566299
41254	-2.025705	13.777100	3.460113	-0.489734	-0.518297	0.416804	0.563741
41255	-2.722918	14.390472	3.570045	-0.489310	-0.518443	0.418411	0.562783
41256	-2.443501	13.361832	2.912148	-0.487016	-0.513482	0.425897	0.563705
41257	0.031800	15.195843	2.462461	-0.481949	-0.505141	0.436997	0.567090
41258	-1.458479	14.555178	2.303216	-0.473745	-0.492935	0.450951	0.573781
41259	-1.865971	14.169114	1.987623	-0.460677	-0.475468	0.469321	0.584333
41260	-2.457686	13.757667	1.282248	-0.442530	-0.451403	0.490857	0.599552
41261	-1.003761	11.349784	0.085837	-0.418224	-0.421530	0.514836	0.618341
41262	0.749625	11.342589	-0.443670	-0.388804	-0.387946	0.540461	0.637363
41263	2.486800	11.450910	-1.261362	-0.355929	-0.351208	0.566128	0.655337
41264	3.926644	11.559011	-1.435315	-0.320940	-0.312302	0.589448	0.672321
41265	6.118604	7.698606	-1.865359	-0.283282	-0.272578	0.609092	0.688810
41266	7.730432	8.234414	-1.219393	-0.244428	-0.234817	0.628261	0.700288
41267	8.028342	10.075320	-0.339010	-0.206107	-0.197139	0.644993	0.708971
41268	10.329261	9.156655	0.100452	-0.168438	-0.160706	0.658210	0.715934
41269	10.807944	8.756440	0.548107	-0.132402	-0.128289	0.668292	0.720692
41270	9.096967	9.800612	1.520415	-0.096497	-0.099189	0.675656	0.724112
41271	10.125893	8.560575	1.254613	-0.061140	-0.072243	0.679691	0.727367
41272	11.418269	7.973212	1.227400	-0.028273	-0.048995	0.681351	0.729768
41273	12.418535	7.226651	1.930613	-0.000732	-0.030421	0.680976	0.731673
41274	9.944541	6.275909	3.688865	0.020193	-0.017136	0.678618	0.734014
41275	5.802112	3.871375	5.147126	0.037133	-0.007778	0.674168	0.737603
41276	2.494767	0.715692	5.047627	0.052361	-0.000555	0.669321	0.741126
41277	0.392862	1.082079	4.267949	0.066084	0.006352	0.666893	0.742190
41278	-0.225855	4.384881	3.520757	0.078339	0.013225	0.665849	0.741844
41279	-1.871046	5.656713	3.586009	0.089705	0.019214	0.663423	0.742600
41280	-4.452469	2.968694	3.510932	0.101464	0.026046	0.659949	0.743972
41281	-3.588636	2.454151	3.432250	0.112559	0.035163	0.658468	0.743313
41282	-3.772286	4.451114	3.614318	0.121974	0.044197	0.658501	0.741313
41283	-5.756942	8.107999	3.643559	0.132049	0.051477	0.658226	0.739359
41284	-5.838727	11.229122	3.710271	0.144011	0.057429	0.655407	0.739191
41285	-6.495100	11.769626	3.958152	0.155063	0.062132	0.652056	0.739539
41286	-7.622671	13.620104	4.272806	0.164797	0.066044	0.649561	0.739291
41287	-7.803400	15.634126	4.291968	0.173398	0.069444	0.647536	0.738788
41288	-6.859756	15.981801	4.512411	0.180578	0.072521	0.645224	0.738795
41289	-5.202190	15.707721	4.672939	0.184860	0.075258	0.643040	0.739367
41290	-4.598995	15.832277	4.903062	0.185799	0.076874	0.641264	0.740506
41291	-5.149457	14.455314	5.050116	0.185177	0.077700	0.639542	0.742064
41292	-4.325896	13.068430	4.712730	0.184306	0.078111	0.638124	0.743456
41293	-3.030395	11.671320	4.408943	0.183236	0.077679	0.637244	0.744520
41294	-2.208072	10.192804	3.959513	0.181282	0.076016	0.637692	0.744786
41295	-2.258620	9.128397	3.439049	0.178384	0.073149	0.639540	0.744189
41296	-2.388052	8.923041	2.883303	0.174893	0.069329	0.642467	0.742861
41297	-2.268468	8.669609	2.357854	0.170921	0.064883	0.645616	0.741456
41298	-2.284928	8.796557	1.595094	0.165760	0.059652	0.648884	0.740213
41299	-3.073470	8.630693	1.012382	0.159566	0.053654	0.651917	0.739367
41300	-3.657378	8.748919	0.509957	0.152687	0.047186	0.654998	0.738538
41301	-2.839304	9.816993	0.437647	0.145159	0.039277	0.657586	0.738219
41302	-2.391069	11.314291	0.672891	0.135095	0.027833	0.659576	0.738874
41303	-3.824392	12.063298	1.129136	0.121702	0.011915	0.660378	0.740910
41304	-4.623286	11.201601	1.140618	0.105157	-0.008701	0.660135	0.743699
41305	-3.842989	11.028191	1.000484	0.084042	-0.034379	0.659046	0.746601
41306	-3.948380	11.840303	0.707891	0.057419	-0.066268	0.656668	0.749066
41307	-5.470470	12.492696	0.817917	0.025989	-0.104361	0.651090	0.751342
41308	-6.571160	9.197967	0.775847	-0.008611	-0.146247	0.640991	0.753437
41309	-6.113268	4.940941	-0.216368	-0.045411	-0.190163	0.628259	0.753038
41310	-4.456306	2.457558	-1.031323	-0.084357	-0.234807	0.614131	0.748727
41311	-4.343416	0.907006	-1.568104	-0.125602	-0.279905	0.599309	0.739396
41312	-5.198663	2.003991	-1.436730	-0.166996	-0.323797	0.582893	0.726295
41313	-4.270594	3.045172	-1.338693	-0.208515	-0.364848	0.562630	0.711937
41314	-3.479241	1.901616	-1.424266	-0.251098	-0.403300	0.538640	0.695820
41315	-4.206979	1.538217	-0.810220	-0.294154	-0.439445	0.512117	0.676829
41316	-4.955176	2.148720	0.054961	-0.336109	-0.472273	0.483281	0.656071
41317	-5.671524	2.929846	0.974811	-0.375561	-0.500903	0.452428	0.635105
41318	-6.901898	2.883162	2.513453	-0.411317	-0.524663	0.421365	0.614816
41319	-8.559862	5.294560	5.051370	-0.441017	-0.543237	0.393420	0.596338
41320	-5.416013	7.882578	7.048646	-0.465592	-0.555129	0.369338	0.581932
41321	-2.575967	7.783343	8.326359	-0.487581	-0.562161	0.348772	0.569735
41322	-3.356139	7.740478	8.953153	-0.505669	-0.566975	0.332945	0.558557
41323	-5.739320	11.774917	9.635213	-0.518439	-0.569346	0.323009	0.550210
41324	-4.947146	13.107062	9.146225	-0.527261	-0.567269	0.318709	0.546467
41325	-2.929451	13.127410	7.876689	-0.532928	-0.562791	0.320107	0.544780
41326	-1.748384	14.351288	7.159321	-0.535636	-0.557494	0.325510	0.544369
41327	-1.148748	15.490188	6.551241	-0.536011	-0.551722	0.332890	0.545417
41328	-1.610123	15.701677	5.858280	-0.534196	-0.545776	0.341483	0.547861
41329	-2.365576	16.153916	5.205604	-0.530255	-0.539358	0.351442	0.551735
41330	-2.192343	15.811717	4.728394	-0.524305	-0.532153	0.362651	0.557137
41331	-1.525579	14.949532	4.057305	-0.517038	-0.524821	0.374743	0.562853
41332	-2.155764	14.203132	3.377414	-0.508606	-0.517716	0.387435	0.568493
41333	-2.050102	13.317495	2.564980	-0.499090	-0.510846	0.400616	0.573979
41334	-1.635413	12.558769	1.754099	-0.488892	-0.504470	0.413916	0.578937
41335	-1.196102	11.879092	1.111635	-0.478597	-0.498519	0.426999	0.583177
41336	-0.671426	12.154729	0.748812	-0.468778	-0.492675	0.439244	0.587012
41337	0.422881	11.733933	0.871644	-0.460177	-0.486340	0.449638	0.591216
41338	1.414139	9.916615	0.984519	-0.453149	-0.480069	0.457886	0.595425
41339	1.190280	8.002142	1.453722	-0.446987	-0.474814	0.464697	0.599008
41340	0.577726	6.468410	1.906566	-0.440624	-0.470671	0.471056	0.602017
41341	0.989868	6.174363	2.168113	-0.433996	-0.467245	0.477070	0.604760
41342	1.278457	6.451530	2.405609	-0.427997	-0.464127	0.482138	0.607411
41343	1.453255	6.537426	2.471876	-0.422794	-0.460812	0.485963	0.610522
41344	1.310241	6.901215	2.203610	-0.418166	-0.457547	0.488979	0.613749
41345	0.964444	7.405040	2.668894	-0.413569	-0.454187	0.491446	0.617378
41346	1.060553	6.230067	3.039166	-0.409474	-0.450623	0.493463	0.621099
41347	0.578870	6.028491	3.346758	-0.405630	-0.447405	0.495739	0.624128
41348	0.553534	6.960415	3.615863	-0.402373	-0.444065	0.497928	0.626874
41349	0.982833	7.293965	3.672576	-0.399882	-0.440849	0.499332	0.629614
41350	0.954456	7.307849	3.650837	-0.398029	-0.438690	0.499850	0.631881
41351	-0.327573	7.363713	3.797777	-0.396673	-0.437635	0.499766	0.633529
41352	-2.022630	6.374548	3.792086	-0.395057	-0.436830	0.499944	0.634953
41353	-1.977655	7.055037	3.542299	-0.393110	-0.435722	0.501152	0.635970
41354	-1.400380	7.862863	2.989190	-0.391937	-0.434355	0.502448	0.636606
41355	-1.193369	8.968227	2.250985	-0.391864	-0.433223	0.503682	0.636447
41356	-1.026356	9.781654	1.428038	-0.393438	-0.432404	0.504486	0.635396
41357	-1.537722	9.948581	0.913607	-0.396275	-0.432034	0.504784	0.633644
41358	-2.099546	9.510191	0.698445	-0.399550	-0.432267	0.504560	0.631604
41359	-2.874350	8.883104	0.897651	-0.402458	-0.433384	0.503970	0.629460
41360	-3.427748	8.333511	0.962416	-0.404511	-0.435260	0.503230	0.627439
41361	-3.144765	8.827370	1.014428	-0.406197	-0.437590	0.502334	0.625444
41362	-2.842266	8.314651	0.527130	-0.408389	-0.440240	0.501161	0.623093
41363	-2.908143	8.210107	0.008198	-0.410944	-0.443414	0.500530	0.619660
41364	-3.565715	8.847646	-0.213057	-0.413158	-0.447161	0.500371	0.615610
41365	-4.187976	8.931327	-0.227561	-0.414624	-0.450784	0.499898	0.612358
41366	-4.404648	8.601140	-0.473776	-0.415132	-0.454229	0.499446	0.609832
41367	-4.070336	9.500266	-0.717251	-0.415146	-0.457236	0.498843	0.608067
41368	-3.482862	10.709798	-0.950955	-0.415658	-0.459530	0.497883	0.606773
41369	-2.828934	10.660753	-0.958529	-0.417292	-0.461043	0.496229	0.605857
41370	-2.340349	9.708510	-0.621229	-0.420046	-0.462280	0.494206	0.604664
41371	-2.628169	8.344272	-0.518180	-0.423197	-0.463578	0.492638	0.602750
41372	-2.566517	9.417653	-0.543482	-0.425825	-0.465131	0.492093	0.600143
41373	-2.796705	10.779414	-0.738866	-0.428044	-0.466326	0.491787	0.597882
41374	-2.602091	10.835834	-0.593159	-0.429538	-0.466915	0.491270	0.596776
41375	-2.107506	8.570173	-0.347532	-0.430607	-0.467641	0.490547	0.596031
41376	-3.122413	7.362580	0.060388	-0.430619	-0.469223	0.490926	0.594465
41377	-3.630476	8.391315	0.204736	-0.429660	-0.470790	0.492359	0.592733
41378	-3.495261	9.209219	0.245598	-0.428418	-0.471743	0.493771	0.591698
41379	-3.059268	9.069478	0.407644	-0.427339	-0.472257	0.494676	0.591313
41380	-3.048356	8.246934	0.414196	-0.426780	-0.472773	0.495200	0.590865
41381	-3.343380	7.827357	0.560047	-0.426266	-0.473480	0.496052	0.589955
41382	-3.027542	7.512886	0.548709	-0.425789	-0.474430	0.497111	0.588643
41383	-3.018224	7.564256	0.560740	-0.425167	-0.475920	0.498004	0.587133
41384	-3.260440	8.081788	0.562336	-0.424201	-0.477742	0.498475	0.585951
41385	-2.985794	8.036008	0.589028	-0.423284	-0.479153	0.498370	0.585552
41386	-2.637122	7.338931	0.332077	-0.422593	-0.480258	0.498492	0.585040
41387	-2.085349	8.610161	0.188444	-0.422370	-0.481159	0.499273	0.583794
41388	-1.361740	9.049850	0.192003	-0.423286	-0.481350	0.499800	0.582521
41389	-0.961287	8.138132	0.034224	-0.424833	-0.481346	0.500155	0.581092
41390	-0.715250	7.626217	-0.178026	-0.425989	-0.481835	0.500787	0.579294
41391	-0.400071	8.082318	-0.456086	-0.426250	-0.483131	0.501827	0.577118
41392	-0.129311	8.604182	-0.720948	-0.425420	-0.485269	0.502994	0.574916
41393	-0.077897	9.019256	-0.295267	-0.424344	-0.487550	0.503667	0.573189
41394	-0.254336	8.593498	-0.248500	-0.423208	-0.489782	0.504244	0.571617
41395	-0.425820	9.784832	-0.033187	-0.422483	-0.491341	0.504689	0.570421
41396	-0.475603	10.020672	-0.009543	-0.422338	-0.492129	0.504789	0.569761
41397	-0.523003	10.789078	0.098595	-0.422598	-0.492188	0.504511	0.569764
41398	-0.582415	11.343514	0.465771	-0.423209	-0.491627	0.503895	0.570339
41399	-0.557776	11.700148	0.953998	-0.424204	-0.490384	0.502876	0.571568
41400	-0.452574	11.028427	1.393263	-0.425199	-0.488914	0.501745	0.573079
41401	-0.146423	10.397676	1.491166	-0.425746	-0.487971	0.501088	0.574052
41402	-0.425530	11.644138	1.303616	-0.425381	-0.488390	0.501396	0.573697
41403	-0.308392	12.873851	0.817919	-0.424404	-0.489640	0.501997	0.572828
41404	-0.620295	13.498577	0.146897	-0.423207	-0.491659	0.502799	0.571280
41405	-1.141293	14.632755	-0.159013	-0.421884	-0.493900	0.503668	0.569557
41406	-1.770828	15.055955	-0.181027	-0.420696	-0.495658	0.504489	0.568180
41407	-1.823016	15.323368	-0.321360	-0.419557	-0.496798	0.505593	0.567045
41408	-1.759295	15.422321	-0.739157	-0.418637	-0.497653	0.506681	0.566003
41409	-2.134528	15.855719	-1.076743	-0.417570	-0.498524	0.507587	0.565212
41410	-2.043985	16.546301	-1.117573	-0.416816	-0.499175	0.508064	0.564765
41411	-2.217100	17.098365	-0.753953	-0.416885	-0.499220	0.508052	0.564685
41412	-2.408295	17.502742	-0.109686	-0.417766	-0.498319	0.507418	0.565400
41413	-2.073968	16.298451	0.391048	-0.418942	-0.496753	0.506318	0.566892
41414	-2.104201	15.406109	0.652568	-0.419766	-0.495533	0.505432	0.568139
41415	-2.355901	14.708752	0.523719	-0.419638	-0.494924	0.505176	0.568992
41416	-2.215782	14.485166	0.207285	-0.418389	-0.495024	0.505617	0.569432
41417	-2.015673	15.333648	-0.001388	-0.416783	-0.495642	0.506151	0.569599
41418	-2.067724	15.868868	0.136311	-0.415617	-0.496181	0.505951	0.570158
41419	-1.982299	14.707412	0.257575	-0.415369	-0.496570	0.505290	0.570586
41420	-2.399745	14.117028	0.302762	-0.415689	-0.496925	0.504963	0.570335
41421	-2.249312	13.577824	0.026532	-0.416110	-0.497024	0.505146	0.569778
41422	-2.047192	13.002933	-0.505408	-0.416371	-0.497066	0.505884	0.568895
41423	-2.074405	12.902921	-0.923210	-0.416038	-0.497089	0.506865	0.568246
41424	-2.576962	12.242856	-0.987389	-0.414902	-0.496605	0.507848	0.568622
41425	-2.945219	11.040563	-1.132929	-0.412317	-0.495286	0.509359	0.570298
41426	-3.089861	10.233238	-1.232445	-0.408167	-0.492820	0.511806	0.573222
41427	-3.109542	9.896514	-1.173146	-0.402624	-0.488875	0.515543	0.577157
41428	-2.862358	8.930222	-0.885239	-0.396032	-0.483059	0.520251	0.582367
41429	-1.469417	7.142103	-0.545482	-0.388646	-0.475771	0.525865	0.588270
41430	0.042018	5.628497	-0.344944	-0.381280	-0.468103	0.532377	0.593363
41431	0.522803	4.755271	0.124751	-0.374552	-0.460572	0.539435	0.597155
41432	0.562607	3.574038	0.381591	-0.368297	-0.453475	0.546530	0.600019
41433	0.525366	2.815120	0.569710	-0.361920	-0.447377	0.553536	0.602051
41434	0.916782	2.762047	0.520707	-0.355546	-0.442339	0.560271	0.603340
41435	1.478757	3.611487	0.491864	-0.349878	-0.438441	0.566400	0.603777
41436	1.999576	3.908279	0.616047	-0.345873	-0.435298	0.571066	0.603963
41437	2.011675	3.441780	0.338885	-0.343432	-0.433384	0.574482	0.603492
41438	1.818307	3.220112	0.179641	-0.341918	-0.433082	0.576878	0.602282
41439	1.423203	3.081023	-0.037143	-0.340674	-0.434595	0.578839	0.600011
41440	1.281848	4.062224	-0.358954	-0.339792	-0.437601	0.580625	0.596592
41441	1.008558	5.515400	-0.658455	-0.339649	-0.441539	0.582013	0.592405
41442	0.916679	6.601339	-0.987861	-0.340817	-0.445982	0.582368	0.588041
41443	0.177666	8.211830	-1.541865	-0.343259	-0.451182	0.581935	0.583061
41444	-0.586743	10.336368	-1.528476	-0.346996	-0.456342	0.580141	0.578604
41445	-0.640894	10.575447	-1.677715	-0.352266	-0.461370	0.576694	0.574865
41446	-1.364298	10.116868	-1.718346	-0.358548	-0.467081	0.571886	0.571161
41447	-2.905563	8.617885	-1.556593	-0.364567	-0.473457	0.566506	0.567451
41448	-4.020763	8.260305	-1.586283	-0.369277	-0.480400	0.561571	0.563461
41449	-3.765000	9.321196	-1.797967	-0.373192	-0.487177	0.557363	0.559226
41450	-3.594748	9.597595	-2.148153	-0.377523	-0.493584	0.553496	0.554521
41451	-3.832392	10.127854	-1.933599	-0.382744	-0.499639	0.550123	0.548847
41452	-3.965851	9.173726	-1.502701	-0.388995	-0.505061	0.546759	0.542817
41453	-4.028305	8.894566	-1.157144	-0.395759	-0.510389	0.543567	0.536109
41454	-3.794362	9.003535	-0.770353	-0.403080	-0.515384	0.540101	0.529335
41455	-3.416730	8.348600	-0.680374	-0.410890	-0.520411	0.536293	0.522237
41456	-3.830722	8.648845	-0.581280	-0.418863	-0.526041	0.532636	0.513940
41457	-4.052138	8.884178	-0.236433	-0.426785	-0.531704	0.529062	0.505212
41458	-3.500658	8.850802	0.089570	-0.434800	-0.537312	0.525556	0.496020
41459	-3.522538	8.343408	0.516852	-0.443120	-0.542797	0.521930	0.486421
41460	-3.638440	8.325058	0.617132	-0.450981	-0.548543	0.518476	0.476338
41461	-3.426136	9.144531	1.065645	-0.458773	-0.554186	0.515230	0.465773
41462	-3.203098	8.384674	1.320886	-0.466978	-0.559336	0.512102	0.454781
41463	-3.486244	7.487515	1.459758	-0.474976	-0.564434	0.509515	0.442953
41464	-3.599147	6.745892	1.711272	-0.482045	-0.569671	0.507614	0.430621
41465	-3.146441	6.687485	1.519149	-0.487749	-0.575447	0.506329	0.417843
41466	-2.827047	8.534293	1.173288	-0.492843	-0.581535	0.505438	0.404296
41467	-3.470715	9.613158	0.821012	-0.497732	-0.586985	0.505228	0.390457
41468	-2.769391	9.505846	1.095936	-0.502392	-0.590990	0.506194	0.376962
41469	-0.924873	6.607550	1.528108	-0.506970	-0.593912	0.508095	0.363441
41470	0.185705	3.910360	0.773141	-0.510155	-0.597574	0.510542	0.349277
41471	1.428122	7.650628	-0.544260	-0.510736	-0.603574	0.513474	0.333455
41472	2.418745	11.186909	-1.474581	-0.512449	-0.608589	0.515577	0.318112
41473	1.454262	12.479738	-3.006382	-0.514664	-0.613350	0.516245	0.303997
41474	2.538620	13.928777	-2.127507	-0.517454	-0.615937	0.516638	0.293169
41475	5.648223	9.047667	-2.106380	-0.522886	-0.616206	0.516315	0.283371
41476	2.921643	9.946120	-2.029496	-0.528782	-0.616968	0.515246	0.272509
41477	4.031036	10.958162	-1.903063	-0.535324	-0.615204	0.515574	0.262938
41478	4.862872	9.908931	-1.807027	-0.542903	-0.611830	0.516629	0.253012
41479	5.597315	7.232036	-1.583527	-0.550286	-0.608101	0.517770	0.243541
41480	6.297380	4.791927	-1.579988	-0.556144	-0.606386	0.518065	0.233687
41481	5.551599	5.103248	-2.030023	-0.559854	-0.607677	0.517353	0.222796
41482	5.158216	6.221873	-2.462089	-0.562019	-0.610661	0.516197	0.211587
41483	4.890264	5.938677	-2.376279	-0.563824	-0.614183	0.514540	0.200325
41484	4.317993	5.057739	-1.895094	-0.565792	-0.617767	0.512185	0.189499
41485	3.290031	4.125723	-1.185698	-0.567683	-0.621332	0.509350	0.179571
41486	3.461992	2.545306	-0.777672	-0.569161	-0.624729	0.506548	0.170820
41487	3.966315	2.529195	-1.131245	-0.569821	-0.629002	0.503633	0.161290
41488	3.895668	5.871562	-1.806944	-0.570184	-0.633378	0.501245	0.149917
41489	5.187378	7.767319	-2.010856	-0.572299	-0.635558	0.499511	0.137945
41490	6.030958	5.911373	-2.260672	-0.576275	-0.636396	0.497106	0.125667
41491	5.929969	6.497470	-1.872980	-0.580233	-0.637861	0.493548	0.113462
41492	5.499453	7.749623	-1.209923	-0.584388	-0.639328	0.488827	0.103916
41493	5.814155	7.913014	-1.337516	-0.589317	-0.640271	0.483025	0.097187
41494	7.681977	7.696998	-1.698918	-0.595336	-0.640253	0.476683	0.091783
41495	8.909394	6.664764	-2.707058	-0.602977	-0.639972	0.468945	0.083334
41496	7.879298	6.880134	-3.082651	-0.611320	-0.639499	0.460495	0.072615
41497	8.162269	6.756602	-3.779186	-0.618642	-0.639941	0.451904	0.059503
41498	9.096517	6.675365	-4.623768	-0.624738	-0.641282	0.443191	0.045191
41499	7.711879	10.291049	-4.896688	-0.628825	-0.644936	0.433175	0.031548
41500	8.410413	12.802082	-4.697657	-0.633256	-0.647767	0.422972	0.021914
41501	8.406012	12.536115	-4.740918	-0.638426	-0.649528	0.412659	0.015468
41502	7.472736	12.352508	-4.293975	-0.643508	-0.650198	0.403778	0.010168
41503	7.041703	12.540101	-3.587814	-0.647946	-0.649654	0.397590	0.006044
41504	7.992291	12.379823	-3.530849	-0.652327	-0.648352	0.392553	0.003164
41505	7.666032	13.262235	-3.701378	-0.656871	-0.646618	0.387820	0.001318
41506	7.997621	13.332580	-4.761034	-0.659911	-0.646271	0.383207	-0.001960
41507	9.020494	13.428836	-4.977400	-0.661084	-0.647138	0.379644	-0.007171
41508	9.831991	12.895455	-5.007520	-0.660628	-0.649799	0.375693	-0.013647
41509	8.550815	16.318222	-4.019543	-0.660285	-0.652489	0.371456	-0.017370
41510	8.276810	16.560044	-3.584361	-0.661612	-0.652612	0.368992	-0.014553
41511	9.172094	13.287862	-3.811499	-0.662289	-0.652581	0.368049	-0.007147
41512	9.167757	12.110968	-4.021564	-0.660265	-0.654694	0.368000	0.001163
41513	8.650199	13.485813	-4.234999	-0.655613	-0.658574	0.369253	0.010174
41514	10.178539	14.927198	-4.308621	-0.650303	-0.662361	0.371464	0.019950
41515	9.914107	14.314811	-3.716066	-0.646164	-0.664534	0.374050	0.030868
41516	9.073001	12.139772	-3.527850	-0.641295	-0.666373	0.377804	0.044181
41517	9.554105	12.657509	-3.704916	-0.634329	-0.669074	0.382783	0.058684
41518	9.227279	12.280712	-3.877010	-0.626598	-0.671216	0.388996	0.074338
41519	7.606967	11.596627	-3.870511	-0.617698	-0.673113	0.396252	0.091395
41520	6.157320	11.028659	-3.580741	-0.607638	-0.673980	0.405343	0.110559
41521	5.261920	10.789358	-3.223026	-0.596539	-0.673500	0.416241	0.131460
41522	5.186096	11.059470	-2.717715	-0.585779	-0.670542	0.428676	0.153207
41523	6.181676	10.734999	-2.164532	-0.577324	-0.664283	0.441680	0.174197
41524	6.053486	8.126609	-1.207987	-0.572282	-0.655135	0.453778	0.193330
41525	5.181263	4.364790	-0.516364	-0.568602	-0.645509	0.464299	0.210799
41526	5.129288	2.853968	-0.177768	-0.564092	-0.637904	0.473169	0.225811
41527	5.349884	3.264631	0.111525	-0.559736	-0.631948	0.480462	0.237686
41528	4.706714	3.198257	0.615710	-0.556687	-0.626597	0.485754	0.248031
41529	3.558488	1.820976	0.950294	-0.554579	-0.622095	0.488766	0.257969
41530	1.433631	0.698942	1.174547	-0.551602	-0.619178	0.489970	0.268857
41531	0.886413	-0.237121	0.446590	-0.545761	-0.618551	0.490860	0.280350
41532	0.152412	2.577059	0.076155	-0.536991	-0.620354	0.492213	0.290738
41533	-0.316875	4.459435	0.079118	-0.527692	-0.621477	0.493717	0.302574
41534	-0.695117	3.277131	-0.150738	-0.517781	-0.622311	0.495070	0.315497
41535	-1.438964	3.526012	-0.430289	-0.506310	-0.623956	0.496345	0.328589
41536	-2.442412	3.881742	-0.653149	-0.493427	-0.625808	0.498005	0.341884
41537	-1.737366	4.476544	-1.156650	-0.479705	-0.627079	0.500586	0.355061
41538	-1.140355	5.875287	-1.990580	-0.466161	-0.627985	0.503522	0.367142
41539	-0.604003	7.874112	-2.519724	-0.453853	-0.628146	0.506200	0.378433
41540	-0.869338	8.311415	-2.903256	-0.443547	-0.627055	0.508284	0.389507
41541	-1.034185	7.316824	-3.270049	-0.434249	-0.624952	0.510209	0.400685
41542	-1.333688	7.150103	-3.840049	-0.424775	-0.622549	0.512329	0.411725
41543	-1.919301	9.448792	-4.192192	-0.414951	-0.619474	0.514632	0.423346
41544	-2.089580	11.280566	-4.542779	-0.405994	-0.614427	0.516658	0.436708
41545	-2.081397	11.007164	-4.442213	-0.398299	-0.606944	0.518404	0.451923
41546	-1.974879	9.318603	-4.358398	-0.390561	-0.598212	0.520368	0.467784
41547	-2.582050	9.944964	-4.021897	-0.381888	-0.588854	0.522804	0.483827
41548	-2.151100	9.432483	-3.985219	-0.372469	-0.578509	0.525605	0.500334
41549	-2.374778	12.498679	-4.067638	-0.362000	-0.567742	0.529108	0.516401
41550	-0.766381	13.180940	-3.552895	-0.352727	-0.555281	0.532012	0.533113
41551	0.002470	10.429236	-2.773984	-0.344875	-0.542881	0.534710	0.548112
41552	0.334906	8.517945	-1.790791	-0.337661	-0.531575	0.538046	0.560284
41553	0.903466	6.731508	-0.676885	-0.331160	-0.521920	0.541964	0.569392
41554	0.958502	5.950423	0.182715	-0.325316	-0.514316	0.546279	0.575524
41555	-0.097781	7.098559	0.323784	-0.319493	-0.509278	0.550812	0.578936
41556	-1.795575	11.439074	0.416534	-0.313229	-0.505815	0.554550	0.581819
41557	-1.370988	10.110109	0.713173	-0.307766	-0.501894	0.556710	0.586051
41558	-1.637155	9.755017	0.452870	-0.302072	-0.499023	0.559254	0.589036
41559	-2.089239	11.491221	0.049413	-0.296201	-0.496177	0.561841	0.591953
41560	-2.274866	10.633261	-0.136770	-0.290224	-0.493213	0.564590	0.594768
41561	-3.624282	10.424589	0.402563	-0.283402	-0.489800	0.567785	0.597829
41562	-4.296776	10.549469	0.869935	-0.275357	-0.485170	0.571728	0.601595
41563	-3.986691	11.781327	1.174294	-0.266893	-0.478898	0.576138	0.606210
41564	-3.557740	11.899352	1.438988	-0.259212	-0.471010	0.580357	0.611673
41565	-3.542228	10.981273	1.680790	-0.252048	-0.462312	0.584232	0.617586
41566	-3.893401	9.197983	1.862023	-0.244304	-0.453492	0.587790	0.623830
41567	-3.850549	7.850670	1.923636	-0.234783	-0.444925	0.591997	0.629650
41568	-3.851288	7.643732	1.920829	-0.223316	-0.436522	0.597085	0.634877
41569	-3.769911	7.810410	1.622038	-0.210123	-0.427859	0.603019	0.639651
41570	-4.139004	8.063774	1.238937	-0.195509	-0.418791	0.609535	0.644094
41571	-4.719514	7.873964	0.856566	-0.179614	-0.409022	0.616339	0.648511
41572	-6.127396	6.868961	0.550196	-0.161943	-0.398018	0.623763	0.652898
41573	-7.477568	5.654249	-0.011302	-0.141534	-0.384460	0.633217	0.656654
41574	-7.578167	6.176784	-0.967095	-0.118349	-0.367128	0.645816	0.658887
41575	-7.575873	7.616864	-1.605528	-0.093670	-0.345115	0.660548	0.660150
41576	-7.975483	7.588893	-2.156803	-0.067913	-0.317625	0.676231	0.661221
41577	-8.208985	6.794280	-2.448344	-0.040559	-0.283811	0.692957	0.661526
41578	-7.653289	7.250725	-2.797761	-0.011461	-0.242822	0.710047	0.660863
41579	-5.617753	9.020989	-3.599667	0.018526	-0.195194	0.725628	0.659561
41580	-2.721554	10.459864	-3.744225	0.047481	-0.142998	0.737400	0.658436
41581	-0.258932	10.062039	-3.343021	0.073875	-0.088770	0.744060	0.658055
41582	0.788628	8.673235	-3.229443	0.098199	-0.035065	0.746585	0.657067
41583	1.787050	8.583822	-3.125230	0.121602	0.016247	0.746765	0.653675
41584	3.658427	9.705383	-2.870062	0.143866	0.063320	0.744872	0.648428
41585	5.564727	9.872941	-2.309562	0.164223	0.104110	0.741444	0.642224
41586	6.180132	9.957174	-1.802539	0.181498	0.137075	0.738153	0.635137
41587	5.125590	10.881013	-0.857179	0.196089	0.162603	0.735222	0.628138
41588	3.556642	10.277503	-0.452461	0.208675	0.182060	0.732381	0.622034
41589	2.438552	10.573615	-0.362574	0.220496	0.196981	0.730184	0.615964
41590	2.587201	10.991405	-0.480116	0.231201	0.208415	0.728119	0.610697
41591	2.294509	10.196449	-0.518392	0.240594	0.217077	0.726102	0.606438
41592	1.622153	9.086618	-0.541075	0.248414	0.223929	0.724540	0.602650
41593	0.605014	8.915930	-0.443889	0.255399	0.229832	0.723546	0.598690
41594	0.356484	9.208475	-0.541240	0.261841	0.235222	0.723074	0.594369
41595	0.326705	10.149264	-0.539253	0.267741	0.240110	0.722667	0.590267
41596	0.171215	9.748853	-0.669512	0.273327	0.244402	0.721822	0.586970
41597	-0.154364	9.276946	-0.972447	0.278818	0.248152	0.721086	0.583708
41598	-0.049219	9.183277	-1.221772	0.284299	0.251577	0.720581	0.580212
41599	-0.054747	9.816277	-1.319227	0.289373	0.254542	0.720336	0.576704
41600	-0.349545	10.089665	-1.547226	0.294344	0.256715	0.719883	0.573784
41601	-0.692936	9.778801	-1.729083	0.299087	0.258435	0.719350	0.571221
41602	-0.973743	9.537455	-1.856708	0.303510	0.260015	0.718892	0.568743
41603	-1.263583	9.096296	-1.830973	0.307575	0.262005	0.718575	0.566040
41604	-1.138444	8.698333	-1.863278	0.310954	0.264651	0.718394	0.563185
41605	-1.840214	9.161896	-1.848401	0.313896	0.267809	0.718340	0.560121
41606	-2.225037	9.986616	-1.987603	0.317249	0.271259	0.717959	0.557051
41607	-2.164596	10.603399	-2.295931	0.321093	0.274820	0.717032	0.554290
41608	-2.091809	10.961323	-2.737922	0.324997	0.278415	0.715690	0.551951
41609	-1.876484	11.006990	-3.072385	0.328502	0.282068	0.714171	0.549986
41610	-1.764506	11.151949	-2.994659	0.331478	0.285645	0.712650	0.548324
41611	-1.690939	10.487759	-2.789015	0.334376	0.288991	0.710985	0.546970
41612	-1.523500	10.564310	-2.807188	0.337252	0.292110	0.709727	0.545179
41613	-0.904840	10.758514	-2.790473	0.340147	0.294991	0.708509	0.543411
41614	-0.587180	10.347849	-2.989389	0.342764	0.297607	0.707387	0.541800
41615	-0.666913	10.582256	-3.208399	0.345030	0.299911	0.706805	0.539846
41616	-0.601449	10.391721	-3.153079	0.347223	0.301765	0.706328	0.538029
41617	-1.417163	9.672746	-2.982365	0.349560	0.303208	0.706166	0.535913
41618	-1.462499	9.319180	-2.907342	0.352138	0.304773	0.706371	0.533059
41619	-1.391141	9.749923	-2.834348	0.354483	0.306430	0.706862	0.529894
41620	-1.166619	10.415326	-2.789491	0.356468	0.307878	0.707073	0.527436
41621	-1.223606	9.834697	-2.550462	0.358204	0.308896	0.706502	0.526430
41622	-2.011618	8.663317	-2.326015	0.360125	0.309660	0.705701	0.525744
41623	-1.732788	8.373759	-2.305080	0.362450	0.310646	0.705056	0.524428
41624	-1.494124	8.875989	-2.379971	0.364700	0.311818	0.704666	0.522695
41625	-1.040101	9.304089	-2.399147	0.366708	0.313077	0.704151	0.521229
41626	-0.754335	9.206013	-2.462788	0.367977	0.314324	0.703601	0.520326
41627	-0.967559	9.515657	-2.287179	0.368534	0.315158	0.703074	0.520140
41628	-1.832195	8.436103	-2.077522	0.369380	0.315451	0.702360	0.520326
41629	-1.572368	8.412608	-2.051922	0.370611	0.315790	0.701969	0.519773
41630	-1.073446	8.774039	-2.081198	0.371793	0.316181	0.701739	0.519001
41631	-0.827500	9.291774	-2.275088	0.372791	0.316541	0.701395	0.518531
41632	-0.459852	9.199929	-2.526958	0.373332	0.316806	0.700887	0.518665
41633	-0.363459	9.277870	-2.701745	0.373209	0.316651	0.700590	0.519251
41634	-0.706108	8.848581	-2.690902	0.372727	0.315759	0.700422	0.520365
41635	-1.597753	8.024899	-2.516420	0.372471	0.314242	0.700641	0.521172
41636	-1.927645	7.907031	-2.622631	0.372875	0.312450	0.701554	0.520731
41637	-1.582195	8.226817	-2.833264	0.373786	0.310544	0.702960	0.519321
41638	-1.163141	8.339671	-2.991267	0.374613	0.308563	0.704816	0.517386
41639	-1.061994	8.649711	-3.144175	0.374839	0.306706	0.706962	0.515394
41640	-1.207140	9.218823	-3.154438	0.374553	0.304926	0.709314	0.513423
41641	-1.013498	9.669413	-3.104081	0.374019	0.302719	0.711605	0.511947
41642	-1.788019	9.378896	-2.993100	0.373562	0.299767	0.713867	0.510868
41643	-2.504744	8.967953	-2.766145	0.373890	0.296710	0.715971	0.509465
41644	-2.389076	8.301672	-2.966188	0.374735	0.294157	0.718063	0.507376
41645	-2.049852	8.328553	-3.097248	0.375279	0.292606	0.720424	0.504516
41646	-1.813910	8.546249	-3.310379	0.375011	0.292018	0.722935	0.501455
41647	-2.067311	8.820457	-3.305304	0.373999	0.292120	0.725345	0.498664
41648	-2.216849	8.687677	-3.393587	0.372598	0.292878	0.727415	0.496247
41649	-2.033564	8.681717	-3.393743	0.370822	0.294260	0.729152	0.494206
41650	-1.677874	8.790892	-3.337164	0.368616	0.295956	0.730538	0.492794
41651	-1.209384	9.042046	-3.549666	0.365765	0.297551	0.731653	0.492304
41652	-1.449466	9.698713	-3.482203	0.362391	0.298712	0.732588	0.492706
41653	-1.517564	9.362119	-3.489648	0.358862	0.299455	0.733194	0.493934
41654	-1.703170	9.722833	-3.185799	0.355538	0.300051	0.733501	0.495518
41655	-2.091238	10.581050	-4.364491	0.351788	0.300560	0.734377	0.496587
41656	-2.467518	13.414368	-3.881139	0.349149	0.300791	0.734884	0.497559
41657	-0.619329	8.641094	-2.255511	0.347264	0.300357	0.733685	0.500899
41658	-1.682587	6.663816	-1.905299	0.344262	0.299803	0.733524	0.503532
41659	-2.840336	10.347850	-2.012460	0.342150	0.298713	0.733785	0.505236
41660	-2.803214	10.999556	-2.189576	0.341788	0.296339	0.733208	0.507711
41661	-2.935956	10.266417	-2.250034	0.342145	0.293281	0.732617	0.510093
41662	-3.234265	9.782388	-2.100669	0.342679	0.290203	0.732286	0.511967
41663	-3.603844	9.377877	-1.818487	0.343225	0.287628	0.732125	0.513284
41664	-3.923192	9.538990	-1.484145	0.343843	0.285760	0.731908	0.514222
41665	-4.350973	9.937057	-1.400085	0.344822	0.284397	0.731498	0.514904
41666	-4.436260	10.566180	-1.601517	0.346399	0.283424	0.730826	0.515336
41667	-3.700960	10.061169	-1.737930	0.348023	0.282950	0.729791	0.515970
41668	-3.226852	9.415065	-1.670621	0.348901	0.283058	0.728791	0.516730
41669	-3.001510	8.759189	-1.548873	0.348865	0.283682	0.727836	0.517757
41670	-3.161540	8.199413	-1.454809	0.348264	0.284665	0.727104	0.518650
41671	-3.014351	8.260557	-1.494321	0.347434	0.285909	0.726628	0.519189
41672	-2.607065	8.151171	-1.615972	0.346340	0.287474	0.726268	0.519560
41673	-2.330009	8.061502	-1.681816	0.344850	0.289350	0.726041	0.519827
41674	-2.291561	8.093065	-1.718350	0.343201	0.291322	0.725923	0.519982
41675	-2.114343	8.217671	-1.886622	0.341602	0.293171	0.725917	0.520004
41676	-2.187117	8.545306	-2.119198	0.339957	0.294649	0.726124	0.519957
41677	-2.271779	8.728390	-2.312588	0.338333	0.295887	0.726457	0.519848
41678	-2.352488	8.783971	-2.365223	0.336768	0.296961	0.726856	0.519694
41679	-2.527196	9.395229	-2.495601	0.335222	0.297907	0.727328	0.519491
41680	-2.809393	9.987503	-2.571127	0.334014	0.298573	0.727468	0.519692
41681	-3.005468	10.049658	-2.578931	0.333406	0.298825	0.727276	0.520206
41682	-3.218242	10.197892	-2.549443	0.333714	0.298531	0.726655	0.521045
41683	-3.188856	9.919584	-2.493944	0.334918	0.297811	0.725629	0.522113
41684	-2.939954	9.512607	-2.438423	0.336724	0.296854	0.724275	0.523374
41685	-2.453833	8.820064	-2.529294	0.338277	0.295914	0.722854	0.524867
41686	-2.559605	8.127115	-2.694259	0.338957	0.295226	0.721893	0.526138
41687	-2.803195	7.726954	-2.767907	0.338979	0.294916	0.721635	0.526651
41688	-2.897810	7.693872	-2.757954	0.338577	0.295143	0.722048	0.526215
41689	-2.921728	7.837449	-2.755241	0.337938	0.295835	0.722944	0.525006
41690	-2.706291	8.201552	-2.814350	0.337039	0.297133	0.724029	0.523352
41691	-2.526726	8.503302	-2.881787	0.335753	0.299024	0.725017	0.521732
41692	-2.436986	8.454600	-2.975392	0.334005	0.301388	0.725855	0.520326
41693	-2.583205	8.298333	-3.036808	0.331962	0.304170	0.726665	0.518883
41694	-2.499951	8.440199	-3.151986	0.329811	0.307325	0.727502	0.517221
41695	-2.295343	8.789894	-3.202573	0.327595	0.310756	0.728259	0.515510
41696	-2.106722	8.976105	-3.168501	0.325191	0.314346	0.728791	0.514103
41697	-1.976882	8.938469	-3.185800	0.322579	0.318079	0.729057	0.513074
41698	-1.921802	8.871049	-3.222218	0.319847	0.321802	0.729099	0.512402
41699	-1.701827	8.724755	-3.274346	0.317002	0.325532	0.729020	0.511926
41700	-1.400019	8.769247	-3.302171	0.313889	0.329193	0.728863	0.511726
41701	-1.197578	8.673239	-3.354437	0.310294	0.332785	0.728669	0.511873
41702	-1.198061	8.717927	-3.499101	0.306037	0.336286	0.728648	0.512176
41703	-1.420755	8.917530	-3.637496	0.301465	0.339689	0.728742	0.512509
41704	-1.433079	9.002384	-3.644204	0.296931	0.342925	0.728895	0.512783
41705	-1.334617	8.996690	-3.594883	0.292638	0.346030	0.728949	0.513088
41706	-1.139131	9.108925	-3.837387	0.288314	0.349085	0.729043	0.513334
41707	-1.129528	10.249285	-4.111268	0.283813	0.352158	0.729161	0.513575
41708	-1.234737	10.740607	-4.259922	0.279709	0.355070	0.728988	0.514066
41709	-1.146845	11.325646	-4.261601	0.276176	0.357738	0.728490	0.514833
41710	-0.888531	11.370506	-4.146904	0.273359	0.360004	0.727447	0.516230
41711	-0.405786	11.732136	-4.267478	0.270758	0.362107	0.725928	0.518264
41712	-0.266689	12.089968	-4.435367	0.268118	0.363778	0.723965	0.521204
41713	-0.366072	11.921694	-4.386352	0.265654	0.365123	0.721670	0.524696
41714	-0.436313	11.341317	-4.092028	0.263752	0.366111	0.719312	0.528193
41715	-0.259002	10.322567	-3.510003	0.262699	0.366678	0.716920	0.531566
41716	0.113657	9.785244	-2.986689	0.262242	0.367109	0.714528	0.534705
41717	0.398747	9.741947	-2.560599	0.262305	0.367395	0.711850	0.538040
41718	0.588319	9.378664	-2.141642	0.262963	0.367455	0.708794	0.541699
41719	0.693291	8.728442	-1.760153	0.264257	0.367239	0.705504	0.545498
41720	0.853179	8.388020	-1.632005	0.266031	0.366814	0.702293	0.549054
41721	1.021587	8.413227	-1.516325	0.268136	0.366114	0.699280	0.552333
41722	1.117620	8.461650	-1.368238	0.270462	0.364996	0.696640	0.555266
41723	1.010670	8.539407	-1.100446	0.273033	0.363355	0.694333	0.557968
41724	0.812478	8.651257	-0.852617	0.275972	0.361237	0.692314	0.560400
41725	0.692784	8.973673	-0.694419	0.279318	0.358764	0.690508	0.562555
41726	0.623293	9.380758	-0.644553	0.283084	0.356044	0.688698	0.564616
41727	0.619083	9.830751	-0.605357	0.287236	0.353132	0.686668	0.566816
41728	0.485682	10.118125	-0.528818	0.291685	0.350088	0.684259	0.569339
41729	0.579990	10.306301	-0.490636	0.296370	0.346881	0.681413	0.572289
41730	0.568765	10.017554	-0.478493	0.300948	0.343552	0.678362	0.575523
41731	0.415907	9.930254	-0.451430	0.305212	0.340216	0.675343	0.578800
41732	0.208673	9.997401	-0.295356	0.309320	0.336969	0.672457	0.581872
41733	0.165895	9.767982	-0.070595	0.313414	0.333715	0.669616	0.584825
41734	-0.056767	9.433487	0.033448	0.317559	0.330490	0.666875	0.587546
41735	0.034156	9.206793	0.058171	0.321693	0.327446	0.664339	0.589870
41736	0.025406	9.200973	0.003265	0.325595	0.324561	0.661882	0.592081
41737	0.036098	9.407510	-0.099945	0.329226	0.321767	0.659458	0.594298
41738	-0.080731	9.520867	-0.197647	0.332746	0.318908	0.656902	0.596706
41739	-0.027590	10.270968	-0.289974	0.336247	0.315762	0.654005	0.599591
41740	0.131198	10.254811	-0.455141	0.339815	0.311970	0.650412	0.603460
41741	0.170892	10.200077	-0.507456	0.343274	0.307325	0.646279	0.608307
41742	0.161512	10.262697	-0.550385	0.346807	0.301608	0.641488	0.614208
41743	0.290140	10.620402	-0.576674	0.350554	0.294524	0.635865	0.621323
