// Start Time: Unknown
// Update Rate: 60.0Hz
// Filter Profile: human (46.1)
// Option Flags: AHS Disabled ICC Disabled 
// Firmware Version: 4.3.5
PacketCounter	Acc_X	Acc_Y	Acc_Z	Quat_q0	Quat_q1	Quat_q2	Quat_q3
39183	-0.312629	8.481502	5.145657	-0.401744	-0.230309	0.424218	0.778202
39184	-0.252671	8.366501	5.095318	-0.401546	-0.231898	0.423792	0.778065
39185	-0.239091	8.245654	5.118320	-0.401262	-0.233498	0.423391	0.777951
39186	-0.280325	8.265960	5.108829	-0.400922	-0.235203	0.423038	0.777805
39187	-0.355393	8.384931	5.147131	-0.400554	-0.236965	0.422671	0.777659
39188	-0.404242	8.375604	5.148727	-0.400244	-0.238720	0.422263	0.777503
39189	-0.519376	8.388177	5.125713	-0.400067	-0.240356	0.421788	0.777348
39190	-0.564030	8.373574	5.104973	-0.399999	-0.241774	0.421334	0.777190
39191	-0.585724	8.439972	5.083533	-0.400040	-0.242993	0.420885	0.777032
39192	-0.616878	8.320333	5.061880	-0.400105	-0.243957	0.420512	0.776898
39193	-0.620378	8.329382	5.066553	-0.400166	-0.244730	0.420217	0.776783
39194	-0.616986	8.446635	5.058531	-0.400248	-0.245281	0.419933	0.776721
39195	-0.548189	8.357554	5.033735	-0.400346	-0.245688	0.419706	0.776664
39196	-0.492824	8.247387	5.054726	-0.400469	-0.246060	0.419558	0.776563
39197	-0.558276	8.391874	5.113438	-0.400581	-0.246479	0.419485	0.776412
39198	-0.544977	8.423426	5.141640	-0.400615	-0.246842	0.419375	0.776338
39199	-0.556225	8.475243	5.177955	-0.400634	-0.247147	0.419165	0.776345
39200	-0.548758	8.451032	5.131881	-0.400659	-0.247322	0.418858	0.776442
39201	-0.533643	8.328629	5.134138	-0.400726	-0.247410	0.418516	0.776564
39202	-0.492785	8.256373	5.163440	-0.400811	-0.247552	0.418267	0.776608
39203	-0.537022	8.394845	5.175669	-0.400942	-0.247691	0.418030	0.776625
39204	-0.533152	8.377363	5.249392	-0.401139	-0.247805	0.417750	0.776637
39205	-0.556391	8.384976	5.270265	-0.401345	-0.247914	0.417417	0.776675
39206	-0.497011	8.322787	5.264680	-0.401550	-0.248031	0.417039	0.776735
39207	-0.450005	8.194879	5.232906	-0.401764	-0.248239	0.416706	0.776736
39208	-0.544193	8.174985	5.256416	-0.401929	-0.248597	0.416477	0.776659
39209	-0.610790	8.315687	5.290845	-0.402037	-0.249022	0.416390	0.776513
39210	-0.585676	8.393179	5.279188	-0.402105	-0.249440	0.416272	0.776407
39211	-0.551285	8.410486	5.267019	-0.402218	-0.249807	0.416125	0.776310
39212	-0.512926	8.269397	5.258265	-0.402405	-0.250170	0.415900	0.776217
39213	-0.584113	8.359286	5.240589	-0.402611	-0.250545	0.415640	0.776128
39214	-0.572815	8.246653	5.203804	-0.402806	-0.250978	0.415373	0.776030
39215	-0.561110	8.212772	5.249042	-0.402929	-0.251545	0.415281	0.775832
39216	-0.561550	8.248596	5.256834	-0.403009	-0.252245	0.415327	0.775538
39217	-0.602970	8.348104	5.271481	-0.403099	-0.252995	0.415480	0.775165
39218	-0.678281	8.457834	5.258584	-0.403176	-0.253759	0.415593	0.774815
39219	-0.718688	8.403710	5.215665	-0.403232	-0.254418	0.415657	0.774535
39220	-0.728272	8.292521	5.172100	-0.403253	-0.254961	0.415772	0.774284
39221	-0.604147	8.206640	5.106304	-0.403271	-0.255539	0.416090	0.773913
39222	-0.600413	8.253345	5.157573	-0.403341	-0.256190	0.416583	0.773396
39223	-0.618111	8.453396	5.261672	-0.403399	-0.257019	0.417257	0.772727
39224	-0.568124	8.472336	5.284569	-0.403477	-0.257853	0.417895	0.772064
39225	-0.527434	8.394239	5.225987	-0.403531	-0.258880	0.418552	0.771336
39226	-0.483246	8.350082	5.178512	-0.403585	-0.260032	0.419220	0.770556
39227	-0.257822	8.087139	5.270467	-0.403557	-0.261416	0.420065	0.769642
39228	0.299210	7.635716	5.537609	-0.403520	-0.263776	0.421469	0.768087
39229	0.560092	7.468925	5.832864	-0.403264	-0.268160	0.423878	0.765373
39230	0.437847	7.460599	5.930074	-0.402567	-0.274980	0.427323	0.761394
39231	-0.107615	8.199550	5.786068	-0.401353	-0.283783	0.431406	0.756486
39232	-0.328538	8.487489	5.371818	-0.399873	-0.293637	0.435548	0.751117
39233	-0.349407	8.157703	4.835506	-0.398345	-0.304382	0.439743	0.745184
39234	-0.220541	8.249677	4.459798	-0.396824	-0.316155	0.444292	0.738364
39235	-0.257555	8.570142	4.293152	-0.395605	-0.329140	0.448884	0.730525
39236	-0.908541	8.529985	4.012267	-0.394393	-0.343273	0.453527	0.721755
39237	-1.521452	8.773250	3.561671	-0.392745	-0.358080	0.458155	0.712477
39238	-1.718234	8.849516	3.061420	-0.390704	-0.372983	0.462725	0.702936
39239	-1.855856	8.800618	2.534854	-0.388508	-0.387762	0.467328	0.693041
39240	-2.227862	9.245912	2.144292	-0.386193	-0.402099	0.472034	0.682902
39241	-2.443500	9.705265	1.812260	-0.384013	-0.415390	0.476540	0.672975
39242	-2.689359	9.939746	1.456961	-0.382054	-0.427320	0.480719	0.663583
39243	-2.653652	9.704528	1.094548	-0.380227	-0.437755	0.484687	0.654886
39244	-2.531407	9.329102	0.872799	-0.378481	-0.447086	0.488709	0.646552
39245	-2.619364	9.561871	0.648360	-0.376613	-0.455511	0.492869	0.638555
39246	-2.593284	9.696497	0.460697	-0.374775	-0.462943	0.496978	0.631063
39247	-2.609488	9.866223	0.108070	-0.373001	-0.469332	0.500848	0.624299
39248	-2.369061	9.599760	-0.142519	-0.371351	-0.474756	0.504480	0.618228
39249	-2.357439	9.335326	-0.202183	-0.369687	-0.479624	0.508069	0.612502
39250	-2.327043	9.537053	-0.146049	-0.367995	-0.484043	0.511708	0.606990
39251	-2.289309	9.762987	-0.190542	-0.366375	-0.488112	0.515275	0.601671
39252	-2.234853	9.584043	-0.296789	-0.364715	-0.491905	0.518700	0.596626
39253	-2.188174	9.459158	-0.531266	-0.362975	-0.495594	0.522042	0.591699
39254	-2.001794	9.156131	-0.681742	-0.361069	-0.499295	0.525352	0.586804
39255	-2.055647	9.179511	-0.758419	-0.359082	-0.503197	0.528803	0.581567
39256	-2.102217	9.433785	-0.766082	-0.357095	-0.507067	0.532326	0.576190
39257	-2.051832	9.399384	-0.836736	-0.355160	-0.510898	0.535814	0.570744
39258	-2.058634	9.380321	-0.912798	-0.353230	-0.514719	0.539297	0.565200
39259	-1.884377	9.292351	-1.017954	-0.351273	-0.518567	0.542710	0.559607
39260	-1.829684	9.319509	-1.135690	-0.349227	-0.522547	0.546183	0.553777
39261	-1.853347	9.358412	-1.406554	-0.347149	-0.526647	0.549685	0.547701
39262	-1.933021	9.187587	-1.696620	-0.344886	-0.530839	0.553217	0.541494
39263	-1.956428	9.403275	-1.918860	-0.342504	-0.534964	0.556871	0.535163
39264	-2.041886	9.786394	-2.094733	-0.340162	-0.538839	0.560455	0.528991
39265	-1.968642	9.855783	-2.203346	-0.337992	-0.542302	0.563848	0.523208
39266	-1.976612	9.661456	-2.268506	-0.336077	-0.545380	0.566959	0.517852
39267	-2.005981	9.379906	-2.495611	-0.334090	-0.548276	0.569865	0.512866
39268	-2.124664	9.426296	-2.645133	-0.331991	-0.551085	0.572588	0.508164
39269	-2.060858	9.323750	-2.772557	-0.329766	-0.553666	0.575127	0.503922
39270	-2.063419	9.092082	-2.926211	-0.327467	-0.556103	0.577531	0.499973
39271	-2.089517	8.970896	-3.087777	-0.324918	-0.558442	0.580003	0.496153
39272	-2.107402	8.958334	-3.256045	-0.322200	-0.560698	0.582459	0.492489
39273	-2.012079	9.660060	-3.293525	-0.319341	-0.562887	0.584823	0.489041
39274	-2.175067	9.988368	-3.243308	-0.317058	-0.564694	0.586551	0.486368
39275	-2.287369	9.603861	-3.299195	-0.315109	-0.566072	0.587874	0.484431
39276	-2.355253	9.197038	-3.443727	-0.313442	-0.567127	0.588990	0.482920
39277	-2.505297	8.687538	-3.607709	-0.311669	-0.567958	0.590091	0.481745
39278	-2.114228	9.009872	-3.786541	-0.309769	-0.568666	0.591349	0.480592
39279	-2.151895	9.613300	-3.604782	-0.308469	-0.569164	0.592382	0.479565
39280	-2.323373	9.291402	-3.589936	-0.307727	-0.569354	0.593086	0.478946
39281	-2.333549	9.012733	-3.571643	-0.307484	-0.569254	0.593683	0.478482
39282	-2.355102	8.474141	-3.620884	-0.307600	-0.568929	0.594448	0.477843
39283	-2.107834	8.528940	-3.674352	-0.307858	-0.568537	0.595650	0.476645
39284	-2.117958	9.051232	-3.568583	-0.308569	-0.568128	0.596900	0.475107
39285	-2.903612	8.890747	-3.301887	-0.309463	-0.567600	0.597696	0.474155
39286	-2.965044	8.179406	-3.273190	-0.309790	-0.567054	0.598461	0.473629
39287	-2.506546	8.057534	-3.326915	-0.309496	-0.566559	0.599786	0.472736
39288	-1.852581	8.315353	-3.441507	-0.309365	-0.566003	0.601884	0.470818
39289	-1.581741	8.490876	-3.496544	-0.309833	-0.565458	0.604424	0.467901
39290	-2.276919	8.609117	-3.611341	-0.310424	-0.565240	0.606963	0.464475
39291	-2.300777	8.784503	-3.744622	-0.310604	-0.565236	0.609392	0.461166
39292	-1.817356	8.615379	-3.978022	-0.310690	-0.565302	0.611890	0.457707
39293	-1.524832	8.960306	-4.131265	-0.310803	-0.565348	0.614574	0.453962
39294	-1.080809	8.918015	-4.279375	-0.311303	-0.565192	0.617115	0.450352
39295	-1.213548	8.643592	-4.408080	-0.311854	-0.565320	0.619309	0.446785
39296	-1.604437	8.848128	-4.474358	-0.312073	-0.565731	0.621006	0.443746
39297	-1.417840	8.812222	-4.525958	-0.311855	-0.566207	0.622177	0.441646
39298	-1.005162	8.795395	-4.673911	-0.311550	-0.566684	0.623090	0.439960
39299	-0.945520	8.966557	-4.756546	-0.311599	-0.566866	0.623806	0.438674
39300	-1.185570	8.845660	-4.889757	-0.311864	-0.566740	0.624379	0.437832
39301	-1.353917	8.906557	-5.029723	-0.311916	-0.566381	0.624841	0.437601
39302	-1.196145	9.197981	-5.113822	-0.311904	-0.565789	0.625057	0.438067
39303	-1.106536	9.499043	-5.213289	-0.312107	-0.564912	0.624804	0.439412
39304	-1.161840	9.485023	-5.317329	-0.312716	-0.563677	0.623871	0.441884
39305	-1.137325	9.346808	-5.387261	-0.313708	-0.562043	0.622220	0.445576
39306	-1.142072	9.509484	-5.435318	-0.315237	-0.559807	0.620003	0.450376
39307	-1.032567	9.784083	-5.355983	-0.317552	-0.556912	0.617264	0.456065
39308	-1.154428	9.980014	-5.317415	-0.320744	-0.553302	0.613724	0.462950
39309	-1.302260	9.679002	-5.230089	-0.324555	-0.548912	0.609295	0.471295
39310	-1.034006	8.704068	-5.009517	-0.328728	-0.543773	0.604219	0.480800
39311	-0.698415	8.295999	-4.820644	-0.333135	-0.538047	0.598930	0.490723
39312	-0.563621	8.597087	-4.645822	-0.337864	-0.531846	0.593669	0.500544
39313	-0.765213	9.179283	-4.371357	-0.343112	-0.524948	0.588157	0.510662
39314	-1.054692	9.311416	-4.046159	-0.348483	-0.517423	0.582261	0.521350
39315	-0.894052	9.575716	-3.820783	-0.353748	-0.509256	0.575987	0.532692
39316	-0.678217	9.856445	-3.498632	-0.359096	-0.500413	0.569392	0.544453
39317	-0.496349	9.894882	-2.990276	-0.364642	-0.490845	0.562452	0.556556
39318	-0.235686	9.398818	-2.532332	-0.370234	-0.480883	0.555328	0.568586
39319	-0.283425	9.307600	-1.908320	-0.375417	-0.470986	0.548325	0.580150
39320	-0.333888	8.681960	-1.234251	-0.379814	-0.461305	0.541590	0.591287
39321	-0.174029	8.518683	-0.809391	-0.383120	-0.452078	0.535625	0.601623
39322	0.073473	8.300757	-0.568940	-0.385503	-0.443325	0.530529	0.611056
39323	0.491360	8.052235	-0.335986	-0.387154	-0.435355	0.526562	0.619121
39324	0.833933	8.240062	0.059826	-0.388499	-0.428321	0.523478	0.625764
39325	0.723481	8.563744	0.181691	-0.389698	-0.422309	0.520870	0.631257
39326	0.477592	9.080528	0.148522	-0.390765	-0.417129	0.518215	0.636207
39327	0.297022	9.366170	0.010197	-0.391744	-0.412468	0.515495	0.640837
39328	0.179523	9.010219	-0.011131	-0.392752	-0.408061	0.512722	0.645251
39329	0.197460	8.717905	0.053387	-0.393593	-0.404121	0.510393	0.649053
39330	0.270886	8.928129	0.213414	-0.394477	-0.400478	0.508550	0.652213
39331	0.215418	9.621221	0.422033	-0.395658	-0.396913	0.506825	0.655014
39332	0.235473	10.044547	0.551405	-0.397229	-0.393096	0.504532	0.658127
39333	0.290766	9.844147	0.548894	-0.398976	-0.389272	0.501470	0.661675
39334	0.017905	9.304019	0.588282	-0.400422	-0.385749	0.497922	0.665532
39335	-0.047510	9.021397	0.614460	-0.401265	-0.382616	0.494448	0.669412
39336	-0.038294	9.225886	0.753111	-0.401762	-0.379719	0.491252	0.673106
39337	-0.161671	9.835737	0.918570	-0.402041	-0.376959	0.488161	0.676730
39338	-0.194102	9.810196	1.169192	-0.402270	-0.374152	0.484629	0.680679
39339	-0.284761	9.673123	1.460552	-0.402257	-0.371650	0.480891	0.684696
39340	-0.405686	9.523597	1.690626	-0.401984	-0.369481	0.477091	0.688677
39341	-0.585569	9.857119	1.895286	-0.401535	-0.367556	0.473329	0.692554
39342	-0.535004	9.550091	2.248766	-0.401129	-0.365775	0.469508	0.696323
39343	-0.559514	9.832644	2.509337	-0.400835	-0.364519	0.466066	0.699457
39344	-0.678753	10.067954	2.820276	-0.400752	-0.363857	0.462703	0.702077
39345	-0.890137	10.193018	3.009554	-0.400820	-0.364118	0.459673	0.703891
39346	-1.160839	11.133950	3.419503	-0.401248	-0.364803	0.456530	0.705336
39347	-0.971793	10.414447	3.917369	-0.402303	-0.365735	0.453229	0.706381
39348	-1.445314	10.707171	4.361924	-0.403809	-0.367056	0.449900	0.706964
39349	-1.925769	11.721713	4.700158	-0.405504	-0.368446	0.446229	0.707597
39350	-1.898317	11.205382	5.182582	-0.407577	-0.369534	0.441731	0.708661
39351	-2.047204	11.072676	5.735824	-0.410099	-0.370634	0.436563	0.709832
39352	-1.802859	9.783019	6.207383	-0.413268	-0.371719	0.430739	0.710984
39353	-1.856175	8.763485	6.382213	-0.416798	-0.373578	0.425069	0.711361
39354	-2.251865	8.134316	6.305034	-0.420182	-0.376301	0.420027	0.710931
39355	-2.616936	8.016903	6.022856	-0.423000	-0.379871	0.415835	0.709824
39356	-2.841314	8.351468	5.733001	-0.425370	-0.383898	0.412319	0.708291
39357	-2.888451	7.777941	5.502589	-0.427482	-0.388141	0.409322	0.706443
39358	-2.495236	7.725505	5.350792	-0.429529	-0.392582	0.406969	0.704103
39359	-2.302138	7.891687	5.013018	-0.432001	-0.397100	0.404830	0.701284
39360	-2.685236	8.040933	4.483545	-0.434436	-0.401793	0.402975	0.698168
39361	-2.989286	8.490229	4.078982	-0.436538	-0.406346	0.401167	0.695257
39362	-3.032654	7.777892	3.708475	-0.438195	-0.410727	0.399499	0.692596
39363	-2.621566	7.852343	3.598924	-0.439570	-0.415094	0.398305	0.689803
39364	-2.213816	8.048307	3.492746	-0.441387	-0.419519	0.397214	0.686588
39365	-2.601320	7.786951	3.329288	-0.443264	-0.424175	0.396320	0.683025
39366	-2.539816	7.838737	3.136842	-0.444848	-0.428927	0.395731	0.679359
39367	-2.608557	8.098668	2.759845	-0.446129	-0.433814	0.395260	0.675680
39368	-2.815944	8.106244	2.343421	-0.447063	-0.438620	0.394860	0.672186
39369	-2.973403	8.358735	2.050329	-0.447626	-0.443317	0.394506	0.668929
39370	-3.349978	8.415894	1.881869	-0.447929	-0.447575	0.394060	0.666148
39371	-3.329548	8.564249	1.747269	-0.447989	-0.451224	0.393543	0.663948
39372	-3.162453	8.476152	1.594106	-0.448221	-0.454332	0.392774	0.662125
39373	-3.230115	8.354684	1.505540	-0.448599	-0.457136	0.391810	0.660508
39374	-3.313468	8.199532	1.542343	-0.448964	-0.459829	0.390819	0.658976
39375	-3.394846	8.442278	1.637640	-0.449249	-0.462291	0.389852	0.657630
39376	-3.324685	8.598812	1.711287	-0.449745	-0.464412	0.388724	0.656464
39377	-3.218994	8.513895	1.660574	-0.450612	-0.466163	0.387343	0.655444
39378	-3.348934	8.679160	1.442753	-0.451758	-0.467782	0.385956	0.654318
39379	-3.492820	8.847860	1.355759	-0.453043	-0.469168	0.384461	0.653316
39380	-3.568062	8.710944	1.284387	-0.454290	-0.470427	0.383012	0.652396
39381	-3.748243	8.947070	1.315594	-0.455367	-0.471551	0.381730	0.651585
39382	-3.668279	9.109563	1.366250	-0.456372	-0.472298	0.380551	0.651030
39383	-3.514136	8.824781	1.331222	-0.457538	-0.472599	0.379398	0.650666
39384	-3.470542	8.462985	1.149560	-0.458595	-0.472728	0.378622	0.650280
39385	-3.283292	8.250543	1.024304	-0.459440	-0.472736	0.378206	0.649920
39386	-3.130422	7.936923	0.863520	-0.460016	-0.472788	0.378146	0.649510
39387	-3.127444	8.074124	0.583630	-0.460366	-0.472809	0.378383	0.649108
39388	-3.056394	8.077667	0.313604	-0.460587	-0.472623	0.378919	0.648774
39389	-2.958974	8.716632	0.142379	-0.461060	-0.471989	0.379539	0.648537
39390	-2.757886	8.679531	0.020962	-0.461867	-0.470747	0.380038	0.648574
39391	-2.582290	9.273739	0.162501	-0.463048	-0.468941	0.380161	0.648967
39392	-2.618064	9.197760	0.352861	-0.464538	-0.466574	0.379615	0.649927
39393	-3.384170	11.987130	0.679895	-0.465819	-0.463759	0.378709	0.651552
39394	-2.650444	9.589754	1.334648	-0.467641	-0.459250	0.376513	0.654706
39395	-2.776164	9.610576	1.932760	-0.468890	-0.455214	0.375156	0.657405
39396	-2.804559	9.080407	2.648536	-0.469997	-0.450655	0.373910	0.660458
39397	-2.769762	8.775853	3.239707	-0.470298	-0.446862	0.373960	0.662788
39398	-2.732748	9.182095	3.813319	-0.470220	-0.443345	0.374464	0.664918
39399	-2.678989	9.609225	4.261961	-0.469939	-0.440213	0.375228	0.666764
39400	-2.698126	10.551870	4.755630	-0.469999	-0.437029	0.375731	0.668530
39401	-2.875432	12.217288	5.214999	-0.470554	-0.433597	0.375914	0.670270
39402	-2.775540	11.495567	5.761131	-0.471731	-0.429622	0.375337	0.672322
39403	-2.868700	10.876090	6.375785	-0.472706	-0.425814	0.374893	0.674304
39404	-2.553265	10.042356	6.627113	-0.473166	-0.422436	0.375042	0.676022
39405	-2.544622	10.924364	6.790212	-0.473030	-0.419611	0.375917	0.677389
39406	-2.576016	10.985709	6.728550	-0.472171	-0.417155	0.377143	0.678822
39407	-2.249351	10.285786	6.616406	-0.470537	-0.415005	0.378770	0.680367
39408	-2.187929	9.205307	6.536653	-0.468173	-0.413369	0.380935	0.681783
39409	-1.991673	8.547207	6.043835	-0.465178	-0.412110	0.383852	0.682959
39410	-1.449735	8.093182	5.367477	-0.462158	-0.411143	0.387576	0.683489
39411	-1.251673	8.174268	4.691832	-0.459641	-0.410252	0.391883	0.683265
39412	-1.149756	8.335105	4.116775	-0.457647	-0.409273	0.396453	0.682554
39413	-1.410192	9.454942	3.559080	-0.455969	-0.408027	0.400989	0.681773
39414	-1.378323	9.423323	3.544907	-0.454585	-0.405792	0.404635	0.681877
39415	-0.806030	8.626049	3.529385	-0.453405	-0.403190	0.407947	0.682233
39416	-0.320755	8.777181	3.420982	-0.452819	-0.400391	0.410793	0.682562
39417	-0.175241	8.581879	3.325665	-0.452882	-0.397688	0.413176	0.682662
39418	-0.453884	8.318843	3.224284	-0.453098	-0.395236	0.415326	0.682638
39419	-0.612565	8.214961	3.196263	-0.452988	-0.392899	0.417463	0.682757
39420	-0.461570	8.094960	3.203475	-0.452474	-0.390613	0.419836	0.682954
39421	-0.172667	8.176637	3.217657	-0.451883	-0.388175	0.422437	0.683131
39422	0.174972	8.255722	3.176824	-0.451456	-0.385699	0.425220	0.683090
39423	0.256310	8.265401	3.075975	-0.451146	-0.383175	0.427933	0.683021
39424	0.199873	8.254834	2.920253	-0.450741	-0.380870	0.430613	0.682893
39425	0.142698	8.160554	2.772909	-0.450095	-0.378762	0.433283	0.682803
39426	0.280285	8.144282	2.599372	-0.449347	-0.376859	0.436041	0.682593
39427	0.398884	8.657927	2.565107	-0.448721	-0.375091	0.438811	0.682203
39428	0.371628	8.581942	2.489783	-0.448452	-0.373318	0.441147	0.681846
39429	0.169140	8.728523	2.457250	-0.448184	-0.371738	0.443087	0.681627
39430	0.051408	8.541728	2.468841	-0.447900	-0.370227	0.444619	0.681639
39431	-0.043226	8.500333	2.506757	-0.447494	-0.368748	0.446000	0.681805
39432	0.045008	8.262590	2.348400	-0.447039	-0.367254	0.447432	0.681971
39433	0.135587	8.119415	2.129034	-0.446528	-0.365888	0.449100	0.681944
39434	0.100724	8.046865	1.792127	-0.445742	-0.364882	0.451126	0.681660
39435	0.052474	8.151188	1.559013	-0.444629	-0.364105	0.453343	0.681332
39436	0.149460	8.264007	1.364508	-0.443354	-0.363441	0.455481	0.681090
39437	0.095569	8.543507	1.369652	-0.442084	-0.362702	0.457220	0.681146
39438	-0.070953	8.382581	1.382206	-0.440940	-0.361650	0.458334	0.681697
39439	-0.092420	7.881303	1.325067	-0.439828	-0.360299	0.458897	0.682752
39440	0.191160	7.330836	1.051610	-0.438761	-0.358958	0.459346	0.683842
39441	0.297379	7.593083	0.544666	-0.437789	-0.358157	0.460167	0.684333
39442	0.165195	8.814672	0.247265	-0.436925	-0.357870	0.461140	0.684380
39443	-0.078526	9.698110	0.198736	-0.436023	-0.357919	0.461734	0.684529
39444	-0.058138	10.513706	0.349975	-0.435396	-0.358070	0.461533	0.684985
39445	-0.277543	10.863768	0.475023	-0.435450	-0.357943	0.460296	0.685848
39446	-0.517799	12.144432	0.314808	-0.435907	-0.357881	0.458711	0.686651
39447	-0.539214	11.990153	0.269950	-0.436639	-0.357581	0.456593	0.687754
39448	-0.676237	11.359832	1.003413	-0.437463	-0.357380	0.454307	0.688847
39449	-0.533226	8.721226	1.953360	-0.437937	-0.357679	0.452531	0.689560
39450	-1.237823	10.960773	3.267068	-0.438157	-0.358208	0.450503	0.690473
39451	-1.186914	11.520489	4.402401	-0.438730	-0.357980	0.447086	0.692445
39452	-1.323695	11.202220	5.393229	-0.439884	-0.357504	0.442404	0.694961
39453	-1.787288	9.597570	6.244741	-0.440896	-0.357509	0.437411	0.697474
39454	-1.836375	9.752457	7.250358	-0.441441	-0.358515	0.433287	0.699185
39455	-1.255047	10.769167	8.053692	-0.442962	-0.360038	0.429282	0.699910
39456	-1.609952	11.653098	8.649439	-0.445929	-0.362147	0.424936	0.699590
39457	-2.404726	11.528074	8.892708	-0.449421	-0.364643	0.420316	0.698850
39458	-2.898675	11.171660	8.789078	-0.452364	-0.367721	0.416146	0.697833
39459	-2.858588	10.290741	8.739427	-0.454478	-0.371218	0.412983	0.696486
39460	-1.911311	10.131048	8.714681	-0.456548	-0.375110	0.410813	0.694326
39461	-1.943521	9.194573	8.238296	-0.458986	-0.379647	0.409038	0.691295
39462	-2.487059	8.720725	7.691114	-0.460636	-0.385017	0.407963	0.687854
39463	-2.576408	8.837108	7.043768	-0.461168	-0.391254	0.407628	0.684166
39464	-3.043949	9.764737	6.819216	-0.460727	-0.398052	0.407816	0.680420
39465	-2.556471	8.594180	6.726382	-0.459777	-0.404951	0.408549	0.676541
39466	-2.236274	8.443105	6.282381	-0.458879	-0.412482	0.410139	0.671621
39467	-2.113189	7.615323	5.573125	-0.458061	-0.420572	0.412256	0.665841
39468	-2.219947	7.137976	4.769702	-0.456947	-0.429566	0.415190	0.659007
39469	-2.548645	7.562597	3.870993	-0.455486	-0.438957	0.418736	0.651544
39470	-2.594791	7.772935	3.095739	-0.453788	-0.448103	0.422388	0.644103
39471	-2.515289	7.349830	2.279117	-0.451956	-0.456865	0.426200	0.636682
39472	-2.580413	7.175413	1.438155	-0.449851	-0.465381	0.430396	0.629137
39473	-2.631304	7.365131	0.614043	-0.447403	-0.473569	0.434903	0.621629
39474	-2.681152	7.568328	-0.072791	-0.444707	-0.481321	0.439581	0.614276
39475	-2.498476	7.788652	-0.534637	-0.442003	-0.488486	0.444156	0.607240
39476	-2.442269	8.193608	-0.735817	-0.439561	-0.495025	0.448361	0.600591
39477	-2.686416	8.719562	-0.825322	-0.437500	-0.500713	0.451749	0.594813
39478	-2.635105	8.517211	-0.984117	-0.435716	-0.505453	0.454102	0.590305
39479	-2.261900	7.909896	-1.283786	-0.434056	-0.509634	0.455803	0.586611
39480	-2.104524	7.641517	-1.361138	-0.432469	-0.513657	0.457249	0.583139
39481	-1.731740	7.604928	-1.285868	-0.431018	-0.517614	0.458812	0.579474
39482	-1.536938	7.885271	-1.061949	-0.430016	-0.521642	0.460493	0.575258
39483	-2.151874	8.618428	-0.823919	-0.429344	-0.525655	0.461926	0.570942
39484	-2.842864	8.746336	-0.433438	-0.428515	-0.529184	0.462998	0.567425
39485	-2.648325	8.481648	-0.255484	-0.427307	-0.532137	0.463965	0.564779
39486	-2.145057	8.603289	-0.227440	-0.426068	-0.534799	0.465037	0.562315
39487	-1.922431	7.921462	-0.224106	-0.425041	-0.537514	0.466175	0.559553
39488	-2.084155	7.514717	-0.346353	-0.423846	-0.540647	0.467425	0.556389
39489	-2.441813	7.887836	-0.572612	-0.422207	-0.544196	0.468684	0.553107
39490	-2.618527	8.510019	-0.713124	-0.420349	-0.547777	0.469753	0.550072
39491	-2.769391	8.890238	-0.750617	-0.418699	-0.550977	0.470264	0.547692
39492	-2.868323	8.775623	-1.087331	-0.417385	-0.553848	0.470419	0.545663
39493	-2.997951	8.792805	-1.262647	-0.416315	-0.556383	0.470492	0.543836
39494	-2.997870	8.725138	-1.349340	-0.415513	-0.558531	0.470753	0.542019
39495	-3.471430	11.497507	-1.891195	-0.414534	-0.560691	0.471735	0.539678
39496	-3.180903	12.601904	-1.341971	-0.414637	-0.561485	0.472187	0.538378
39497	-2.747390	10.978474	-0.786843	-0.415613	-0.561753	0.472373	0.537181
39498	-2.860370	11.199770	-0.334365	-0.416500	-0.562020	0.472715	0.535912
39499	-2.279730	10.942178	-0.175837	-0.417214	-0.562246	0.473650	0.534292
39500	-1.774675	10.869962	-0.167642	-0.417763	-0.562344	0.475645	0.531982
39501	-1.545204	10.849722	-0.112214	-0.418027	-0.562205	0.478771	0.529109
39502	-1.922802	11.215101	-0.170007	-0.417258	-0.561927	0.482928	0.526227
39503	-3.503544	12.002935	0.295605	-0.414820	-0.560439	0.487955	0.525103
39504	-3.897415	9.782836	1.088611	-0.409943	-0.556233	0.494690	0.527098
39505	-4.366113	9.459064	1.020492	-0.402069	-0.548990	0.504855	0.531105
39506	-5.102843	9.679316	0.573240	-0.391074	-0.537300	0.518882	0.537709
39507	-5.247540	9.193790	-0.349935	-0.375945	-0.520715	0.537137	0.546813
39508	-4.733137	9.024534	-1.407191	-0.355991	-0.499456	0.559016	0.557956
39509	-3.979835	8.776987	-2.395899	-0.331348	-0.473642	0.583241	0.570703
39510	-3.351944	8.382426	-3.300813	-0.302435	-0.443354	0.608566	0.584481
39511	-2.094191	8.334869	-4.061631	-0.270067	-0.408630	0.634126	0.598306
39512	-0.822214	8.398758	-4.612894	-0.235876	-0.369943	0.658794	0.611142
39513	0.242545	8.247357	-5.068394	-0.200625	-0.328181	0.681684	0.622377
39514	1.477624	8.254536	-5.358756	-0.165229	-0.284584	0.702269	0.631292
39515	2.503147	8.508216	-5.340135	-0.130597	-0.240653	0.720036	0.637636
39516	3.235002	9.037771	-4.996878	-0.097475	-0.197889	0.734359	0.641916
39517	3.590311	9.036203	-4.726560	-0.066082	-0.157501	0.745232	0.644559
39518	4.327211	9.103215	-4.432028	-0.036861	-0.120579	0.753159	0.645641
39519	4.431013	9.573282	-4.087490	-0.011257	-0.087611	0.758943	0.645138
39520	3.233174	10.828255	-3.622199	0.010830	-0.058748	0.762311	0.644448
39521	2.535344	10.990137	-3.106371	0.030339	-0.033689	0.762986	0.644823
39522	2.149228	10.645017	-2.654182	0.047473	-0.012443	0.761526	0.646274
39523	1.762754	10.236257	-2.102171	0.062341	0.005369	0.758531	0.648626
39524	1.394591	9.993317	-1.678087	0.074339	0.020780	0.754819	0.651376
39525	1.072276	10.217542	-1.186985	0.083628	0.034094	0.750704	0.654436
39526	1.243836	9.838324	-0.669464	0.090668	0.044859	0.746289	0.657890
39527	1.503139	9.217108	-0.306996	0.095730	0.052791	0.742306	0.661083
39528	1.499650	9.290916	-0.017099	0.098547	0.058129	0.739267	0.663622
39529	1.300712	9.661246	0.303287	0.099424	0.061165	0.736952	0.665789
39530	1.142236	9.636634	0.474638	0.098822	0.062068	0.735223	0.667704
39531	1.175947	9.808486	0.437472	0.097298	0.060928	0.734040	0.669333
39532	1.139516	9.931163	0.212944	0.094616	0.058035	0.733539	0.670522
39533	0.820883	10.502563	0.221607	0.090355	0.053793	0.733509	0.671495
39534	0.297422	10.725789	0.482982	0.084914	0.048471	0.733190	0.672958
39535	0.497527	9.612796	0.395575	0.079695	0.041363	0.732729	0.674571
39536	1.695904	10.410846	0.269652	0.074408	0.031770	0.733009	0.675390
39537	2.180539	10.661895	0.300242	0.067986	0.019570	0.733538	0.675956
39538	2.578952	10.511131	0.195301	0.060068	0.004417	0.734370	0.676071
39539	3.206031	10.741463	-0.075006	0.050093	-0.014479	0.735691	0.675307
39540	3.954672	11.219265	-0.684022	0.036979	-0.038017	0.736980	0.673830
39541	4.261952	11.269074	-1.516422	0.019607	-0.066694	0.737299	0.671981
39542	3.739784	10.658738	-2.548979	-0.002236	-0.100618	0.736012	0.669445
39543	3.243823	9.897782	-3.669347	-0.027993	-0.139339	0.732650	0.665601
39544	2.536013	9.444403	-4.731519	-0.057105	-0.182282	0.726855	0.659693
39545	2.048082	9.683466	-5.712133	-0.088994	-0.228560	0.717816	0.651599
39546	2.001519	9.090878	-6.813494	-0.123599	-0.277222	0.704608	0.641404
39547	1.599585	8.484745	-7.758756	-0.160443	-0.327647	0.687008	0.628430
39548	1.813454	8.197020	-8.794088	-0.199322	-0.379174	0.664575	0.612240
39549	0.775143	7.460339	-9.774164	-0.240093	-0.430972	0.636841	0.592496
39550	-1.028372	6.332421	-10.354329	-0.280995	-0.481329	0.604654	0.568997
39551	-2.063121	6.627036	-10.546121	-0.320622	-0.528745	0.569197	0.541890
39552	-2.636253	7.116216	-10.577415	-0.358556	-0.572077	0.530902	0.512160
39553	-2.494448	7.595649	-10.661118	-0.394823	-0.610893	0.490547	0.479883
39554	-3.590427	7.189132	-10.477988	-0.429206	-0.644897	0.449028	0.445269
39555	-4.812514	6.871963	-9.789040	-0.460274	-0.674234	0.407408	0.409360
39556	-5.383507	7.387531	-8.870878	-0.487368	-0.698921	0.366561	0.373650
39557	-5.114564	7.682949	-8.028506	-0.511082	-0.719152	0.326881	0.338770
39558	-5.800302	7.938379	-7.056462	-0.531293	-0.735621	0.288634	0.305418
39559	-5.931359	8.917139	-5.885872	-0.548451	-0.748236	0.252446	0.274982
39560	-5.164065	9.233087	-5.032792	-0.563605	-0.757107	0.218369	0.247900
39561	-4.597280	9.236469	-4.646327	-0.577635	-0.762828	0.186535	0.222793
39562	-5.520120	8.609915	-4.198405	-0.590033	-0.766290	0.157407	0.199712
39563	-5.272521	8.629560	-3.286319	-0.600700	-0.767745	0.130980	0.180474
39564	-3.229276	9.048333	-2.924630	-0.610325	-0.767603	0.106787	0.163968
39565	-2.709032	9.655684	-2.454443	-0.619699	-0.765949	0.084307	0.148955
39566	-2.921622	9.459739	-1.860552	-0.628991	-0.762759	0.063670	0.136073
39567	-2.853821	8.616148	-1.282682	-0.637624	-0.758749	0.045705	0.125088
39568	-3.228252	8.310805	-0.855578	-0.644846	-0.754871	0.030669	0.115768
39569	-2.987598	8.679800	-0.487966	-0.650734	-0.751267	0.018673	0.108600
39570	-2.460169	8.925191	-0.157301	-0.655518	-0.748093	0.009027	0.102821
39571	-2.297732	9.165865	-0.021129	-0.659340	-0.745424	0.001333	0.098040
39572	-2.304187	9.392275	-0.016504	-0.662196	-0.743374	-0.004785	0.094171
39573	-2.215781	9.847400	-0.076288	-0.664392	-0.741731	-0.009576	0.091253
39574	-2.282471	10.114147	-0.033041	-0.666242	-0.740272	-0.013140	0.089140
39575	-2.330988	10.379774	0.026232	-0.667884	-0.738913	-0.015586	0.087727
39576	-2.657077	10.164821	0.190686	-0.669386	-0.737612	-0.016567	0.087044
39577	-2.704763	9.915475	0.257014	-0.670463	-0.736632	-0.016004	0.087155
39578	-2.945131	10.031336	-0.008189	-0.670766	-0.736208	-0.014286	0.088699
39579	-3.609646	10.439318	-0.064917	-0.670530	-0.735984	-0.011344	0.092674
39580	-4.839721	9.788530	0.112030	-0.670436	-0.735196	-0.006160	0.099825
39581	-6.931027	8.807127	0.373487	-0.669288	-0.734744	0.004022	0.110406
39582	-8.451861	9.031010	0.482094	-0.666061	-0.734891	0.021688	0.125811
39583	-7.648426	9.364458	-0.139449	-0.661044	-0.734397	0.047555	0.146355
39584	-6.536301	8.657037	-1.351541	-0.654094	-0.732499	0.080319	0.170751
39585	-6.288203	8.246167	-2.684049	-0.644380	-0.728824	0.119318	0.198379
39586	-5.561550	8.281743	-4.015873	-0.631457	-0.722511	0.163601	0.229072
39587	-3.913550	8.466629	-5.209658	-0.615369	-0.712670	0.211740	0.261895
39588	-1.641950	8.718978	-6.053449	-0.596588	-0.698905	0.261675	0.295194
39589	-0.019603	8.806823	-6.388200	-0.575756	-0.681654	0.310833	0.327470
39590	-0.181773	8.673835	-6.440128	-0.553291	-0.661349	0.357916	0.358304
39591	-0.206529	8.678815	-6.642024	-0.528647	-0.638524	0.402947	0.387883
39592	0.803270	8.887513	-6.628793	-0.502156	-0.613704	0.445362	0.415763
39593	2.531996	9.409857	-6.162788	-0.474393	-0.588313	0.483699	0.441445
39594	4.725726	10.317889	-5.220115	-0.446779	-0.564193	0.516172	0.464371
39595	6.733931	11.238025	-4.113038	-0.422373	-0.543115	0.541391	0.483242
39596	5.640666	11.168047	-3.099422	-0.402778	-0.526107	0.559639	0.497781
39597	3.927555	10.129514	-2.548321	-0.387333	-0.513223	0.572354	0.508907
39598	2.569909	9.238826	-2.156632	-0.374683	-0.504375	0.581237	0.517090
39599	1.690684	9.050750	-2.011872	-0.364054	-0.498957	0.587671	0.522637
39600	1.165236	9.439518	-1.971554	-0.355233	-0.496113	0.592377	0.526090
39601	0.667890	9.557466	-1.925420	-0.348236	-0.495047	0.595768	0.527940
39602	-0.192213	9.976793	-1.931968	-0.342845	-0.495297	0.598038	0.528667
39603	-1.094312	10.176681	-1.966412	-0.338509	-0.496210	0.599401	0.529061
39604	-1.735687	10.182689	-1.963655	-0.334785	-0.497219	0.600209	0.529567
39605	-2.190861	9.757632	-1.991280	-0.331268	-0.497952	0.600891	0.530317
39606	-2.717308	9.533551	-1.936296	-0.327416	-0.498061	0.601934	0.531422
39607	-3.035451	9.569764	-1.905777	-0.322810	-0.497176	0.603681	0.533084
39608	-3.174165	9.751027	-1.946631	-0.317269	-0.494944	0.606355	0.535448
39609	-3.308912	9.936649	-1.987956	-0.310864	-0.491148	0.609930	0.538631
39610	-3.681409	9.990430	-1.891447	-0.303437	-0.485521	0.614370	0.542903
39611	-3.927516	9.967532	-1.914938	-0.294711	-0.477860	0.619555	0.548585
39612	-3.880715	9.976635	-2.120182	-0.284432	-0.468140	0.625407	0.555707
39613	-3.710179	10.120579	-2.303045	-0.272789	-0.456247	0.631678	0.564276
39614	-3.845661	9.402198	-2.352588	-0.259737	-0.442180	0.638045	0.574380
39615	-4.199026	8.882419	-2.384923	-0.244906	-0.425959	0.644717	0.585594
39616	-4.166067	8.355666	-2.450877	-0.228076	-0.407226	0.651732	0.597824
39617	-4.028642	7.847531	-2.651253	-0.209299	-0.386022	0.659299	0.610333
39618	-4.178683	7.641123	-2.871603	-0.188558	-0.361988	0.667581	0.622692
39619	-4.201981	7.002381	-3.109617	-0.165613	-0.334884	0.676686	0.634445
39620	-3.913274	7.070491	-3.223080	-0.140614	-0.304716	0.686595	0.644951
39621	-3.801586	6.863798	-3.344592	-0.113925	-0.271401	0.696774	0.654117
39622	-3.430425	7.030364	-3.631740	-0.085668	-0.235037	0.707099	0.661384
39623	-2.980679	6.873188	-4.061199	-0.055983	-0.195739	0.717192	0.666474
39624	-1.696035	7.296792	-4.519401	-0.025472	-0.153829	0.727002	0.668697
39625	-0.530727	8.311479	-4.676446	0.004573	-0.110039	0.735525	0.668486
39626	0.192386	9.323085	-4.849385	0.033537	-0.065683	0.741831	0.666519
39627	0.459893	9.768429	-4.712830	0.061667	-0.021964	0.745438	0.663353
39628	1.152364	9.716356	-4.711813	0.089350	0.019977	0.746731	0.658795
39629	2.727895	10.333845	-4.588213	0.115935	0.058843	0.746334	0.652749
39630	4.024339	10.558475	-4.054807	0.140028	0.093097	0.744581	0.646007
39631	4.131210	10.585176	-3.355496	0.161303	0.121610	0.742168	0.639045
39632	3.443383	10.653043	-2.763915	0.180390	0.143990	0.739845	0.631946
39633	2.879795	10.703995	-2.198793	0.197711	0.160668	0.737821	0.625073
39634	2.262728	10.621955	-1.816803	0.213293	0.172299	0.736324	0.618584
39635	1.469099	10.264110	-1.571737	0.226937	0.180273	0.734957	0.613057
39636	0.212042	9.371285	-1.484807	0.238579	0.186114	0.733880	0.608162
39637	-1.331178	9.032807	-1.365422	0.248857	0.191583	0.733091	0.603277
39638	-2.065702	9.355011	-1.343003	0.258441	0.197984	0.732223	0.598214
39639	-2.059667	9.541715	-1.265139	0.267388	0.205688	0.730768	0.593443
39640	-2.591416	9.103150	-1.416311	0.275912	0.214862	0.728629	0.588902
39641	-3.027298	8.898666	-1.567304	0.284539	0.225888	0.726029	0.583861
39642	-2.736698	9.286515	-1.742913	0.293434	0.238889	0.722914	0.578121
39643	-2.250507	10.159214	-1.919495	0.302565	0.253276	0.719034	0.572098
39644	-1.338313	10.569661	-1.842762	0.311747	0.268194	0.714127	0.566488
39645	-0.484413	10.152311	-1.667062	0.320455	0.282599	0.708514	0.561653
39646	-0.306914	9.911822	-1.627568	0.328436	0.295937	0.702903	0.557205
39647	0.013674	9.920665	-1.555062	0.335780	0.307737	0.697558	0.553138
39648	0.078835	9.929052	-1.493227	0.342468	0.317753	0.692760	0.549393
39649	0.345906	10.028170	-1.324015	0.348538	0.325876	0.688584	0.546058
39650	0.354006	9.736516	-1.219459	0.353742	0.332192	0.685010	0.543393
39651	0.038425	9.460513	-1.064496	0.358013	0.337035	0.682147	0.541211
39652	-0.259062	9.435767	-1.033845	0.361571	0.340696	0.679927	0.539344
39653	-0.313130	9.368670	-1.059556	0.364383	0.343429	0.678371	0.537675
39654	-0.491491	9.730230	-1.201417	0.366413	0.345277	0.677438	0.536287
39655	-0.837299	10.161451	-1.328109	0.367920	0.346295	0.676963	0.535197
39656	-0.970628	9.983414	-1.344576	0.369134	0.346641	0.676755	0.534400
39657	-1.093474	9.381182	-1.406054	0.369916	0.346561	0.677013	0.533583
39658	-1.125739	9.208276	-1.466838	0.370302	0.346291	0.677835	0.532446
39659	-1.240473	9.466961	-1.554057	0.370249	0.345911	0.679036	0.531198
39660	-1.449116	10.022443	-1.547137	0.370102	0.345273	0.680366	0.530012
39661	-1.574232	9.523864	-1.590279	0.370290	0.344142	0.681588	0.529046
39662	-1.563470	9.149168	-1.731400	0.370498	0.342936	0.683096	0.527737
39663	-1.669746	9.419795	-1.732852	0.370569	0.341783	0.684805	0.526217
39664	-1.640298	9.333301	-1.705922	0.370474	0.340672	0.686527	0.524759
39665	-1.952568	9.521378	-1.758946	0.370233	0.339710	0.688254	0.523289
39666	-2.052569	9.274120	-1.853826	0.370042	0.338863	0.689863	0.521852
39667	-2.199118	9.161174	-1.955614	0.369838	0.338312	0.691491	0.520197
39668	-2.115172	9.204341	-2.052944	0.369496	0.338149	0.693128	0.518365
39669	-2.151719	9.730094	-2.051657	0.368922	0.338271	0.694651	0.516652
39670	-2.056033	9.990397	-2.110682	0.368429	0.338454	0.695598	0.515608
39671	-2.365950	9.071606	-2.252765	0.367832	0.338895	0.696353	0.514725
39672	-2.307951	9.398015	-2.266574	0.367509	0.339657	0.697070	0.513482
39673	-2.020960	9.335182	-2.310144	0.367282	0.340725	0.697627	0.512178
39674	-1.718485	9.408982	-2.315365	0.366917	0.341936	0.698096	0.510993
39675	-1.834885	9.209670	-2.298975	0.366433	0.343119	0.698489	0.510009
39676	-2.100248	9.053937	-2.323837	0.366010	0.344447	0.698870	0.508895
39677	-2.202284	9.201674	-2.416498	0.365779	0.346035	0.699193	0.507537
39678	-1.894728	9.451156	-2.431204	0.365696	0.347849	0.699365	0.506118
39679	-1.537595	9.252054	-2.377699	0.365614	0.349560	0.699317	0.505064
39680	-1.629245	9.000714	-2.370889	0.365381	0.351010	0.699241	0.504332
39681	-1.697579	9.367388	-2.467770	0.365179	0.352234	0.699190	0.503695
39682	-1.545902	9.621964	-2.478811	0.365021	0.353234	0.699021	0.503343
39683	-1.267861	9.685404	-2.426744	0.364808	0.353889	0.698775	0.503380
39684	-1.196492	9.390430	-2.419472	0.364511	0.354034	0.698668	0.503641
39685	-1.100067	9.452217	-2.329939	0.364109	0.353816	0.698803	0.503897
39686	-1.064130	9.533991	-2.260472	0.363605	0.353224	0.699112	0.504249
39687	-1.028185	9.551407	-2.208690	0.362984	0.352344	0.699529	0.504733
39688	-1.119238	9.565931	-2.251542	0.362236	0.351219	0.700085	0.505284
39689	-1.270807	9.463052	-2.267650	0.361499	0.350047	0.700674	0.505807
39690	-1.403816	9.284054	-2.300613	0.360811	0.349012	0.701346	0.506082
39691	-1.416626	9.242011	-2.270737	0.360095	0.348308	0.702029	0.506131
39692	-1.424822	9.381835	-2.320728	0.359333	0.347935	0.702662	0.506051
39693	-1.439894	9.416606	-2.356494	0.358714	0.347745	0.703140	0.505956
39694	-1.361202	9.345259	-2.377820	0.358147	0.347686	0.703513	0.505881
39695	-1.364873	9.392581	-2.460530	0.357710	0.347655	0.703834	0.505764
39696	-1.332136	9.539982	-2.534713	0.357418	0.347667	0.703992	0.505743
39697	-1.388798	9.586334	-2.576356	0.357376	0.347716	0.703961	0.505782
39698	-1.375012	9.307900	-2.537911	0.357515	0.347919	0.703709	0.505894
39699	-1.479204	9.244727	-2.529446	0.357757	0.348224	0.703337	0.506030
39700	-1.545579	9.400548	-2.551769	0.358222	0.348572	0.702821	0.506179
39701	-1.471613	9.472737	-2.543290	0.359017	0.348897	0.702004	0.506525
39702	-1.446492	9.470342	-2.534892	0.359991	0.349181	0.700958	0.507087
39703	-1.419414	9.328686	-2.617893	0.361120	0.349359	0.699801	0.507759
39704	-1.333661	9.398541	-2.689800	0.362298	0.349631	0.698508	0.508513
39705	-1.304428	9.530848	-2.650249	0.363440	0.349875	0.697168	0.509367
39706	-1.193381	9.239423	-2.525943	0.364517	0.350149	0.695661	0.510468
39707	-1.332141	9.124023	-2.454670	0.365545	0.350445	0.694161	0.511572
39708	-1.292272	9.066281	-2.383512	0.366498	0.350786	0.692780	0.512528
39709	-1.064378	9.096656	-2.316849	0.367387	0.351046	0.691546	0.513378
39710	-0.920712	9.383013	-2.335004	0.368043	0.351123	0.690387	0.514415
39711	-1.098192	9.487932	-2.370219	0.368655	0.350948	0.689137	0.515770
39712	-1.310208	9.094444	-2.349329	0.369481	0.350547	0.687894	0.517109
39713	-1.244495	8.754809	-2.245145	0.370433	0.350296	0.686754	0.518113
39714	-1.169328	8.793676	-2.135060	0.371361	0.350190	0.685728	0.518879
39715	-1.198052	9.245925	-2.111522	0.371998	0.350324	0.684791	0.519569
39716	-1.406883	9.952428	-2.146870	0.372652	0.350393	0.683861	0.520277
39717	-1.393227	9.982546	-2.141483	0.373636	0.350465	0.682571	0.521218
39718	-1.295495	9.800491	-2.081023	0.374662	0.350593	0.681207	0.522179
39719	-1.263974	9.680622	-1.992618	0.375609	0.350885	0.679851	0.523068
39720	-1.134339	9.808548	-1.859243	0.376259	0.351337	0.678571	0.523959
39721	-1.254794	10.168929	-1.711029	0.376726	0.351592	0.677337	0.525048
39722	-1.364014	9.801629	-1.556901	0.377494	0.351665	0.675817	0.526405
39723	-1.112164	9.095835	-1.328954	0.378375	0.351550	0.674396	0.527670
39724	-1.096180	8.787590	-1.344311	0.378999	0.351399	0.673439	0.528544
39725	-1.106004	9.260326	-1.467076	0.379524	0.351262	0.672797	0.529075
39726	-1.013809	9.346070	-1.429199	0.379961	0.351049	0.672161	0.529710
39727	-1.226914	9.187720	-1.413490	0.380093	0.350945	0.671636	0.530352
39728	-1.411666	9.276108	-1.374744	0.380143	0.351072	0.671125	0.530878
39729	-1.404538	9.290803	-1.260088	0.380219	0.351594	0.670424	0.531364
39730	-1.421775	9.490346	-1.232259	0.380231	0.352461	0.669538	0.531897
39731	-1.363673	9.906504	-1.288633	0.380326	0.353562	0.668411	0.532515
39732	-1.195767	9.927680	-1.337699	0.380449	0.354642	0.667127	0.533320
39733	-1.085711	9.587978	-1.233456	0.380604	0.355795	0.665667	0.534264
39734	-0.932216	9.466149	-1.147543	0.380638	0.357039	0.664361	0.535035
39735	-0.715226	9.616061	-1.110311	0.380480	0.358194	0.663429	0.535531
39736	-0.570102	9.925377	-1.048384	0.380204	0.359177	0.662628	0.536061
39737	-0.675249	10.030920	-1.011172	0.379829	0.359752	0.662071	0.536628
39738	-0.898221	10.071466	-0.916021	0.379525	0.359938	0.661689	0.537190
39739	-1.033653	9.997069	-0.864276	0.379558	0.359935	0.661345	0.537592
39740	-0.909816	9.697236	-0.817169	0.379777	0.359798	0.661116	0.537810
39741	-0.958114	9.498484	-0.802013	0.380058	0.359570	0.661100	0.537784
39742	-1.115650	9.454740	-0.864629	0.380427	0.359297	0.661305	0.537453
39743	-1.120525	9.414370	-0.917872	0.380836	0.359023	0.661698	0.536864
39744	-1.147354	9.578060	-1.030227	0.381117	0.358861	0.662239	0.536104
39745	-1.175536	9.953401	-1.203805	0.381207	0.358729	0.662904	0.535307
39746	-1.175065	10.073000	-1.344830	0.381251	0.358609	0.663505	0.534610
39747	-1.526387	10.342622	-1.574804	0.381247	0.358564	0.664178	0.533807
39748	-1.567106	10.585969	-1.650146	0.381490	0.358651	0.664707	0.532915
39749	-1.441681	10.619887	-1.694962	0.381932	0.358898	0.665034	0.532025
39750	-1.312858	10.611753	-1.768290	0.382333	0.359213	0.665272	0.531226
39751	-1.215132	10.604114	-1.749844	0.382771	0.359469	0.665424	0.530547
39752	-1.209578	10.531401	-1.696859	0.383201	0.359579	0.665504	0.530062
39753	-1.342135	10.475732	-1.608420	0.383711	0.359535	0.665589	0.529614
39754	-1.556863	10.510665	-1.570992	0.384491	0.359346	0.665614	0.529145
39755	-1.722488	10.414760	-1.434822	0.385740	0.359091	0.665508	0.528543
39756	-1.695381	10.313054	-1.269670	0.387290	0.358851	0.665313	0.527818
39757	-1.726320	9.968479	-1.095431	0.389002	0.358679	0.664993	0.527077
39758	-1.927256	9.796133	-0.990655	0.390694	0.358699	0.664685	0.526200
39759	-2.018682	9.721253	-0.884650	0.392466	0.358942	0.664277	0.525231
39760	-1.983467	9.506266	-0.799286	0.394277	0.359347	0.663765	0.524244
39761	-2.098570	9.502842	-0.820694	0.396165	0.359850	0.663223	0.523160
39762	-1.988572	9.414354	-0.795112	0.398168	0.360331	0.662619	0.522073
39763	-1.993145	9.078750	-0.793468	0.400149	0.360801	0.661980	0.521043
39764	-2.082238	8.910632	-0.806783	0.402026	0.361279	0.661454	0.519934
39765	-2.170260	8.938233	-0.857289	0.403802	0.361814	0.660990	0.518774
39766	-2.266395	8.917851	-0.821286	0.405582	0.362414	0.660446	0.517657
39767	-2.196380	8.653962	-0.785787	0.407380	0.363182	0.659720	0.516634
39768	-2.046547	9.015757	-0.789884	0.409068	0.364118	0.658809	0.515802
39769	-2.059295	9.372892	-0.785479	0.410666	0.365026	0.657523	0.515532
