// Start Time: Unknown
// Update Rate: 60.0Hz
// Filter Profile: human (46.1)
// Option Flags: AHS Disabled ICC Disabled 
// Firmware Version: 4.3.5
PacketCounter	Acc_X	Acc_Y	Acc_Z	Quat_q0	Quat_q1	Quat_q2	Quat_q3
40913	-2.465242	1.297884	8.826300	-0.836741	-0.011972	-0.165648	-0.521806
40914	-2.728704	1.596709	9.009237	-0.836674	-0.011149	-0.165892	-0.521855
40915	-2.657732	1.718228	9.314484	-0.836585	-0.009872	-0.166339	-0.521881
40916	-2.699334	1.828301	9.531883	-0.836514	-0.008277	-0.166993	-0.521814
40917	-2.662570	1.896497	9.794289	-0.836426	-0.006501	-0.167636	-0.521773
40918	-2.648080	1.841609	9.755740	-0.836353	-0.004722	-0.168163	-0.521739
40919	-2.734520	1.900254	9.661563	-0.836304	-0.003198	-0.168475	-0.521729
40920	-2.652286	1.851129	9.603344	-0.836212	-0.002032	-0.168591	-0.521845
40921	-2.666146	1.689547	9.706860	-0.835985	-0.001375	-0.168832	-0.522132
40922	-2.792775	1.957177	9.913147	-0.835657	-0.001010	-0.169045	-0.522591
40923	-2.712440	1.832638	10.011630	-0.835262	-0.000368	-0.169055	-0.523219
40924	-2.747835	1.618729	10.042926	-0.834846	0.000347	-0.169056	-0.523882
40925	-2.792023	1.501095	9.928775	-0.834448	0.000816	-0.169169	-0.524479
40926	-2.790136	1.543856	9.849820	-0.834096	0.000934	-0.169328	-0.524987
40927	-2.745348	1.592761	9.717100	-0.833733	0.000834	-0.169526	-0.525499
40928	-2.812868	1.898747	9.706010	-0.833489	0.000686	-0.169551	-0.525879
40929	-2.875708	1.963868	9.646322	-0.833389	0.000861	-0.169094	-0.526184
40930	-2.761243	1.759086	9.492104	-0.833431	0.001131	-0.168326	-0.526363
40931	-2.685022	1.511027	9.366180	-0.833565	0.000951	-0.167590	-0.526386
40932	-2.589100	1.471987	9.415368	-0.833729	0.000299	-0.167173	-0.526260
40933	-2.696997	1.639854	9.369775	-0.833903	-0.000612	-0.166909	-0.526068
40934	-2.626233	1.821667	9.273816	-0.834095	-0.001329	-0.166473	-0.525900
40935	-2.591557	1.940114	9.298075	-0.834326	-0.001879	-0.165933	-0.525702
40936	-2.688163	1.984714	9.297073	-0.834570	-0.002100	-0.165199	-0.525545
40937	-2.646267	1.868597	9.302239	-0.834810	-0.002108	-0.164320	-0.525440
40938	-2.663820	1.840300	9.142097	-0.835092	-0.002220	-0.163502	-0.525246
40939	-2.576001	1.825042	9.202805	-0.835411	-0.002139	-0.162631	-0.525009
40940	-2.482042	1.477797	9.072993	-0.835668	-0.001972	-0.161937	-0.524816
40941	-2.595733	1.677103	9.070192	-0.835882	-0.002320	-0.161567	-0.524587
40942	-2.577317	1.867916	9.159796	-0.836122	-0.002288	-0.161058	-0.524362
40943	-2.563235	1.764010	9.024854	-0.836404	-0.002103	-0.160513	-0.524079
40944	-2.530641	1.736187	9.107391	-0.836619	-0.001874	-0.160136	-0.523853
40945	-2.557330	1.767539	9.042785	-0.836786	-0.001518	-0.159852	-0.523674
40946	-2.608089	1.736150	9.232799	-0.836965	-0.001101	-0.159597	-0.523466
40947	-2.509097	1.602937	9.154362	-0.837122	-0.000689	-0.159547	-0.523231
40948	-2.535852	1.570847	9.286830	-0.837162	-0.000743	-0.159831	-0.523080
40949	-2.576687	1.855584	9.328894	-0.837120	-0.000945	-0.160196	-0.523036
40950	-2.660728	2.106266	9.279312	-0.837078	-0.000851	-0.160375	-0.523048
40951	-2.710998	2.109443	9.317069	-0.837098	-0.000315	-0.160213	-0.523067
40952	-2.757734	1.863480	9.363910	-0.837193	0.000416	-0.159779	-0.523047
40953	-2.562236	1.369092	9.285853	-0.837327	0.000783	-0.159562	-0.522899
40954	-2.468152	1.317089	9.302438	-0.837307	0.000339	-0.160052	-0.522781
40955	-2.655341	1.894212	9.358522	-0.837189	-0.000475	-0.160663	-0.522783
40956	-2.710408	2.235782	9.630409	-0.837085	-0.000541	-0.160856	-0.522889
40957	-2.625979	1.993012	9.708425	-0.837045	0.000214	-0.160541	-0.523052
40958	-2.495146	1.462207	9.521800	-0.836950	0.001193	-0.160179	-0.523312
40959	-2.607773	1.295580	9.343292	-0.836720	0.001421	-0.160234	-0.523662
40960	-2.697076	1.642813	9.434268	-0.836415	0.000919	-0.160551	-0.524055
40961	-2.685115	1.972502	9.406435	-0.836137	0.000767	-0.160661	-0.524465
40962	-2.737202	1.974092	9.340237	-0.835939	0.001031	-0.160408	-0.524856
40963	-2.744241	1.780457	9.402213	-0.835872	0.001556	-0.159784	-0.525152
40964	-2.540212	1.316372	9.381771	-0.835811	0.002270	-0.159161	-0.525435
40965	-2.489089	1.052233	9.114762	-0.835701	0.002262	-0.159011	-0.525656
40966	-2.595310	1.431656	9.172983	-0.835602	0.001688	-0.159187	-0.525763
40967	-2.626523	1.723521	9.144233	-0.835587	0.001531	-0.159155	-0.525796
40968	-2.604361	1.534892	9.059678	-0.835678	0.001685	-0.158869	-0.525737
40969	-2.523215	1.526737	9.027569	-0.835843	0.001759	-0.158557	-0.525570
40970	-2.517222	1.407542	8.905663	-0.835974	0.001938	-0.158257	-0.525451
40971	-2.616972	1.319494	8.647921	-0.836039	0.001704	-0.158379	-0.525311
40972	-2.721690	1.558721	8.613373	-0.836060	0.001218	-0.158861	-0.525134
40973	-2.810497	1.887462	8.379623	-0.836122	0.001091	-0.159268	-0.524913
40974	-2.827311	1.853250	8.053067	-0.836310	0.001811	-0.159323	-0.524594
40975	-2.964175	1.796512	7.446318	-0.836731	0.002699	-0.159223	-0.523949
40976	-3.181529	1.858840	6.923007	-0.837513	0.003391	-0.159080	-0.522736
40977	-3.546965	1.539555	7.181029	-0.838668	0.003652	-0.159008	-0.520902
40978	-3.192729	1.094141	7.264173	-0.839899	0.003089	-0.159337	-0.518817
40979	-2.780527	0.957901	7.255478	-0.841046	0.001686	-0.160523	-0.516595
40980	-2.750667	0.899358	7.053036	-0.842185	0.000111	-0.162654	-0.514070
40981	-2.849450	0.614896	6.270449	-0.843447	-0.001109	-0.166133	-0.510878
40982	-3.709245	0.463202	6.296446	-0.844793	-0.003006	-0.171075	-0.507000
40983	-3.843902	1.020752	6.795510	-0.846256	-0.004692	-0.175620	-0.502977
40984	-3.205147	0.868976	6.341318	-0.847870	-0.004098	-0.180079	-0.498670
40985	-3.173273	0.498761	5.721801	-0.849613	-0.000992	-0.185999	-0.493519
40986	-3.653165	-0.293232	5.837307	-0.851489	0.002752	-0.194859	-0.486816
40987	-4.353612	-1.234472	6.406707	-0.853159	0.003448	-0.207099	-0.478766
40988	-3.796494	0.233954	7.499173	-0.854606	0.001000	-0.220114	-0.470316
40989	-3.554821	1.015976	6.476772	-0.855570	0.000299	-0.233519	-0.462026
40990	-4.782197	0.752423	5.731606	-0.856739	0.003787	-0.246840	-0.452830
40991	-6.715945	-0.299373	5.749090	-0.858430	0.010272	-0.261424	-0.441191
40992	-8.539235	-0.611762	6.642143	-0.861132	0.015024	-0.275516	-0.426985
40993	-7.171044	0.167856	7.601824	-0.864927	0.018311	-0.287701	-0.410846
40994	-5.939325	0.337977	6.948716	-0.868489	0.023838	-0.299620	-0.394190
40995	-6.467799	0.158574	6.043090	-0.871327	0.034027	-0.311807	-0.377369
40996	-8.620445	-0.736978	6.045497	-0.873679	0.046818	-0.325076	-0.358913
40997	-10.458765	-1.465447	6.809512	-0.876100	0.058355	-0.339205	-0.337615
40998	-10.003392	-1.128523	8.254797	-0.878961	0.067409	-0.352461	-0.314093
40999	-8.286981	-0.618467	8.507443	-0.881509	0.076490	-0.364749	-0.289912
41000	-7.138295	-0.469352	7.172769	-0.882839	0.088542	-0.377312	-0.265313
41001	-7.055215	-1.500923	6.482000	-0.881848	0.107131	-0.390386	-0.241797
41002	-10.298112	-4.314977	6.616810	-0.879700	0.125929	-0.404154	-0.216631
41003	-12.838317	-4.065845	7.166473	-0.877598	0.140487	-0.418415	-0.187118
41004	-13.329733	-2.099909	8.947316	-0.875899	0.153070	-0.430454	-0.155180
41005	-11.506731	-1.610495	9.096586	-0.874473	0.166290	-0.438476	-0.124031
41006	-9.125988	-2.659246	8.742528	-0.872173	0.182615	-0.443766	-0.095067
41007	-8.470345	-4.359743	8.173068	-0.868189	0.201447	-0.448524	-0.067037
41008	-10.767888	-4.886611	8.744539	-0.863062	0.220528	-0.452788	-0.038407
41009	-12.310089	-3.954912	9.972325	-0.858380	0.238676	-0.454036	-0.008284
41010	-10.254607	-3.554703	10.866577	-0.853811	0.257755	-0.451791	0.021312
41011	-7.838167	-3.859893	11.060214	-0.849300	0.275669	-0.447381	0.050455
41012	-5.915483	-4.202405	11.558410	-0.844035	0.292198	-0.442480	0.080228
41013	-6.377687	-4.914463	11.606409	-0.837574	0.307482	-0.437878	0.110394
41014	-8.168656	-5.442483	11.823511	-0.830694	0.320831	-0.432601	0.140966
41015	-8.538595	-5.530676	11.849154	-0.824456	0.331367	-0.425190	0.172286
41016	-7.872249	-5.458255	11.217131	-0.818585	0.339577	-0.416243	0.203341
41017	-7.057171	-5.539592	10.565694	-0.812922	0.346020	-0.405955	0.233729
41018	-6.425741	-6.120203	9.481779	-0.807916	0.349965	-0.394318	0.263267
41019	-5.667022	-5.857368	8.756738	-0.803639	0.351489	-0.381285	0.291964
41020	-4.166217	-5.615777	8.757901	-0.799537	0.351280	-0.367319	0.320030
41021	-3.125404	-5.691897	8.620095	-0.794469	0.350825	-0.354277	0.346740
41022	-3.278486	-6.429350	7.788497	-0.789601	0.350261	-0.341222	0.370694
41023	-3.443519	-6.580859	7.322552	-0.786454	0.347922	-0.325937	0.392690
41024	-2.475514	-6.174209	6.929874	-0.783963	0.345225	-0.310042	0.412426
41025	-1.868888	-6.294507	6.172465	-0.781937	0.342165	-0.293606	0.430457
41026	-1.575170	-6.394506	5.682907	-0.780645	0.337603	-0.275105	0.448258
41027	-0.411518	-6.526873	6.134315	-0.779269	0.332408	-0.255608	0.465736
41028	-0.197561	-6.613028	5.612291	-0.778161	0.326906	-0.234807	0.482146
41029	0.656524	-4.696701	5.673838	-0.777323	0.321840	-0.212886	0.496858
41030	0.915347	-3.871773	5.666917	-0.774908	0.319796	-0.192960	0.509916
41031	1.617352	-4.640982	5.444568	-0.772235	0.318935	-0.173456	0.521389
41032	1.685707	-5.000779	5.230275	-0.770240	0.317598	-0.155594	0.530709
41033	0.689868	-4.664602	5.832859	-0.768737	0.316286	-0.138810	0.538274
41034	0.655477	-4.669801	6.452940	-0.766425	0.316714	-0.125096	0.544643
41035	0.104887	-5.882655	6.813974	-0.763061	0.318790	-0.113897	0.550580
41036	0.503769	-5.940300	7.352982	-0.759144	0.320785	-0.103987	0.556761
41037	0.951645	-5.296144	7.502011	-0.754505	0.322960	-0.096258	0.563164
41038	1.763401	-5.339626	7.695314	-0.749605	0.325208	-0.091272	0.569211
41039	1.890748	-6.291141	8.222782	-0.744716	0.327053	-0.088604	0.574964
41040	1.758130	-7.303549	8.883603	-0.740606	0.327542	-0.086663	0.580266
41041	1.938593	-7.936446	9.411226	-0.737412	0.326867	-0.085190	0.584914
41042	1.135567	-8.380820	9.093452	-0.734688	0.325404	-0.084270	0.589274
41043	0.902483	-8.700530	8.628104	-0.732242	0.323176	-0.083303	0.593666
41044	0.411951	-9.545186	8.252190	-0.730057	0.320001	-0.082121	0.598225
41045	-0.112700	-9.890966	7.985077	-0.728348	0.315556	-0.079416	0.603014
41046	0.301077	-9.675947	7.697147	-0.726365	0.311023	-0.076090	0.608169
41047	0.365782	-9.222883	7.027153	-0.723866	0.307155	-0.072510	0.613528
41048	0.930712	-8.731363	6.564057	-0.721152	0.303760	-0.068542	0.618848
41049	1.217547	-8.458401	6.257319	-0.718409	0.300675	-0.064559	0.623951
41050	1.146330	-7.853171	5.921677	-0.716052	0.297186	-0.059511	0.628814
41051	1.306505	-6.702290	6.018501	-0.713982	0.293319	-0.052816	0.633564
41052	1.672162	-6.173376	6.258544	-0.712151	0.289241	-0.044701	0.638109
41053	2.416048	-5.267132	6.699813	-0.710903	0.284995	-0.034799	0.642016
41054	3.285216	-4.785226	7.133363	-0.710570	0.280333	-0.023789	0.644932
41055	3.989162	-4.018480	7.783056	-0.711886	0.274319	-0.011257	0.646406
41056	5.460102	-3.395503	8.729311	-0.714710	0.266934	0.002527	0.646475
41057	6.340228	-1.908281	9.965081	-0.719245	0.257098	0.018232	0.645179
41058	8.444580	-0.535005	11.002878	-0.725138	0.243984	0.036541	0.642894
41059	9.843777	0.739195	12.207241	-0.731853	0.226276	0.058011	0.640176
41060	11.629604	1.827212	12.721214	-0.738860	0.205071	0.082898	0.636522
41061	13.437041	4.113786	12.697344	-0.746640	0.181364	0.109307	0.630625
41062	15.655382	5.418104	11.747928	-0.755697	0.156920	0.133175	0.621741
41063	18.061390	5.282246	9.678896	-0.766339	0.131778	0.147027	0.611344
41064	17.358853	2.526174	8.204407	-0.777122	0.104561	0.150521	0.602073
41065	16.583430	-1.784777	6.228272	-0.788496	0.071522	0.146161	0.593124
41066	13.792306	-3.706584	4.215383	-0.802132	0.029957	0.139461	0.579860
41067	10.247225	-3.113703	2.774228	-0.818824	-0.015846	0.130989	0.558675
41068	5.337624	-1.929964	1.343561	-0.837791	-0.063875	0.119966	0.528805
41069	0.211942	-0.936237	0.355545	-0.856538	-0.113303	0.105859	0.492238
41070	-5.365606	0.274601	1.047714	-0.872704	-0.165538	0.088741	0.450678
41071	-15.394828	1.884757	0.708980	-0.884841	-0.218679	0.066359	0.405996
41072	-30.425028	8.944868	-2.962047	-0.894201	-0.260684	0.047319	0.360846
41073	-32.966578	15.884190	-5.732365	-0.903540	-0.275456	0.044242	0.325240
41074	-19.697816	23.029124	-5.244844	-0.914517	-0.256981	0.040797	0.309765
41075	-11.846954	23.138665	-9.300537	-0.923762	-0.217903	0.031125	0.313391
41076	-11.303339	16.971019	-9.924940	-0.927380	-0.180021	0.022300	0.327201
41077	-16.442233	12.746511	-4.983857	-0.925408	-0.147677	0.019103	0.348492
41078	-20.054642	6.034348	0.108415	-0.918801	-0.109421	0.016723	0.378882
41079	-25.162306	-3.584687	1.953197	-0.907841	-0.067700	0.017265	0.413452
41080	-24.311357	-9.115557	4.749523	-0.894375	-0.027544	0.027226	0.445638
41081	-17.934172	-9.164800	5.432984	-0.881296	0.012593	0.040049	0.470696
41082	-12.254490	-7.745984	5.607761	-0.867346	0.062044	0.048693	0.491416
41083	-6.697584	-10.152433	3.438418	-0.851152	0.126861	0.046386	0.507242
41084	-1.663506	-15.429711	-0.014888	-0.832416	0.198229	0.037982	0.516088
41085	3.599135	-18.272759	-1.609637	-0.813909	0.262291	0.032444	0.517400
41086	9.734757	-17.385995	-0.124070	-0.798537	0.316148	0.028039	0.511472
41087	14.092655	-16.640863	3.758226	-0.789509	0.355951	0.023734	0.499412
41088	19.863736	-13.363263	7.080932	-0.786516	0.383884	0.023521	0.483189
41089	24.807567	-9.639476	9.092838	-0.787878	0.401867	0.023986	0.466021
41090	25.825717	-8.124503	6.600319	-0.792578	0.413896	0.023540	0.447165
41091	28.345068	-7.712009	2.401779	-0.802619	0.418630	0.029582	0.423884
41092	26.863858	-2.301054	2.469723	-0.813100	0.420158	0.036795	0.401225
41093	22.846102	-0.100737	1.767264	-0.820239	0.422434	0.045143	0.383041
41094	22.193989	0.313514	2.994683	-0.824256	0.424052	0.053649	0.371353
41095	20.537737	0.009848	5.372064	-0.826059	0.426057	0.061960	0.363681
41096	19.493725	1.119241	8.383676	-0.826230	0.429102	0.069378	0.358332
41097	18.739476	1.286946	10.305678	-0.823506	0.435340	0.072219	0.356513
41098	17.247762	0.287562	10.957759	-0.817516	0.442902	0.071592	0.361082
41099	17.292692	-1.138775	11.287408	-0.809267	0.448663	0.069938	0.372690
41100	19.085904	-2.440894	10.629294	-0.799999	0.451109	0.068324	0.389659
41101	20.239233	-4.057258	9.542488	-0.790194	0.450296	0.067156	0.410264
41102	20.331726	-5.213925	8.388611	-0.780532	0.446001	0.067879	0.432719
41103	20.211545	-6.569208	7.476858	-0.771033	0.438463	0.071371	0.456251
41104	20.267892	-8.326867	6.743551	-0.761962	0.427913	0.079171	0.479622
41105	22.036808	-8.792067	7.083442	-0.754242	0.414432	0.089833	0.501293
41106	21.565859	-9.805748	5.764184	-0.749169	0.400527	0.098969	0.518198
41107	18.165746	-10.026986	4.783158	-0.747830	0.385280	0.107801	0.529800
41108	14.864758	-10.067126	3.292776	-0.750000	0.367680	0.114006	0.537879
41109	12.327071	-11.765283	3.082304	-0.756981	0.343475	0.116608	0.543514
41110	11.076051	-14.212991	3.104629	-0.768561	0.308133	0.115143	0.548735
41111	9.206034	-16.106965	2.012268	-0.785255	0.260027	0.109371	0.551179
41112	5.832354	-16.599754	0.841562	-0.806558	0.203677	0.100460	0.545791
41113	3.121456	-16.069847	-0.692262	-0.833340	0.141484	0.091928	0.526380
41114	0.032307	-12.041025	-1.832216	-0.863714	0.072203	0.089698	0.490651
41115	-3.035672	-6.227536	-3.067738	-0.891887	-0.004854	0.086463	0.443889
41116	-11.447200	0.498202	-6.101096	-0.913263	-0.079558	0.058984	0.395148
41117	-38.172361	5.660526	-7.341369	-0.928221	-0.137798	0.007089	0.345494
41118	-48.782122	3.360012	-7.980587	-0.940437	-0.166299	-0.011184	0.296305
41119	-22.876009	12.151988	-5.512690	-0.945185	-0.199705	-0.011971	0.258071
41120	-11.115237	21.798668	-5.211011	-0.948437	-0.206247	-0.014039	0.240275
41121	-5.956628	16.814492	-8.333472	-0.949926	-0.198006	-0.013242	0.241369
41122	-8.833343	13.549286	-4.590148	-0.948009	-0.184753	-0.008309	0.258992
41123	-12.515490	10.000083	-0.540790	-0.942140	-0.169387	0.002308	0.289266
41124	-16.459758	4.796861	3.314863	-0.931318	-0.157037	0.020179	0.327993
41125	-18.066621	5.194714	3.912121	-0.916780	-0.145765	0.042908	0.369359
41126	-16.758919	8.416593	5.647245	-0.901394	-0.123116	0.060608	0.410680
41127	-12.324827	7.078916	5.924315	-0.886440	-0.076595	0.063506	0.452022
41128	-7.106541	-0.599912	5.322580	-0.868677	-0.011877	0.053299	0.492360
41129	-2.264415	-8.204961	5.171044	-0.847938	0.056127	0.035996	0.525886
41130	-0.691659	-10.720388	7.127232	-0.826870	0.115919	0.025486	0.549727
41131	3.628115	-7.030172	9.401081	-0.807191	0.170713	0.020487	0.564694
41132	7.677808	-5.524326	9.627076	-0.787195	0.224808	0.017818	0.573994
41133	13.202108	-6.265870	9.661918	-0.767304	0.275165	0.015750	0.579034
41134	14.718724	-4.526759	10.040461	-0.748374	0.319463	0.013615	0.581115
41135	14.987546	-1.602670	12.903418	-0.731263	0.357338	0.016776	0.580761
41136	22.112179	2.638185	17.090820	-0.715250	0.385641	0.023385	0.582367
41137	23.196316	4.910933	20.100846	-0.697743	0.404378	0.026462	0.590705
41138	20.166646	5.945382	18.447228	-0.682804	0.417008	0.028492	0.599225
41139	18.122287	5.823211	17.338074	-0.670802	0.424793	0.029032	0.607234
41140	14.827472	1.883945	15.096366	-0.663243	0.427803	0.029747	0.613358
41141	11.689179	-2.472143	13.760252	-0.663326	0.423272	0.035096	0.616122
41142	8.993923	-3.279197	11.035684	-0.668618	0.414109	0.045131	0.615976
41143	8.648124	-3.330900	8.681942	-0.676818	0.403248	0.057863	0.613156
41144	8.924880	-2.746170	6.354863	-0.685158	0.393393	0.070957	0.608905
41145	9.508563	-3.368397	4.762641	-0.692815	0.385047	0.082173	0.604147
41146	8.576558	-3.297186	3.737457	-0.699811	0.377022	0.090796	0.599895
41147	7.749803	-2.821644	3.460298	-0.705590	0.368682	0.097942	0.597180
41148	6.743714	-2.829224	2.957628	-0.709678	0.360403	0.104396	0.596296
41149	6.756682	-2.626413	2.416127	-0.712398	0.352268	0.112533	0.596433
41150	6.456392	-2.697422	1.331602	-0.713880	0.345259	0.121638	0.596972
41151	6.156296	-1.795883	0.405209	-0.714717	0.339202	0.132100	0.597220
41152	5.537941	-0.280562	-0.438077	-0.714422	0.335463	0.140936	0.597665
41153	5.718316	0.343920	-0.863488	-0.713264	0.334546	0.146750	0.598162
41154	4.499256	-0.362191	-1.013528	-0.711798	0.335476	0.149163	0.598790
41155	3.164947	-0.626754	-1.155777	-0.710322	0.336092	0.152303	0.599406
41156	2.045832	-0.298328	-1.323378	-0.708750	0.335633	0.156947	0.600326
41157	0.858825	-0.173195	-1.863169	-0.706694	0.335461	0.161826	0.601549
41158	-0.157399	-0.563123	-2.366109	-0.704201	0.336390	0.165758	0.602882
41159	-1.182809	-1.155745	-2.613875	-0.701140	0.339234	0.166775	0.604574
41160	-2.860976	-2.423496	-2.696304	-0.698482	0.343642	0.164898	0.605674
41161	-4.225619	-2.807626	-1.782955	-0.697010	0.348830	0.162450	0.605066
41162	-4.954633	-2.473279	-0.895502	-0.696105	0.355104	0.159101	0.603345
41163	-4.613397	-2.656157	0.573539	-0.695080	0.362455	0.154874	0.601252
41164	-3.799421	-2.576553	1.939590	-0.694439	0.369594	0.150534	0.598744
41165	-1.745214	-2.464241	3.438348	-0.694335	0.376108	0.145830	0.595966
41166	1.026636	-2.235760	4.646485	-0.695215	0.382521	0.139903	0.592267
41167	2.825352	-1.907512	5.809244	-0.696937	0.388192	0.133669	0.587978
41168	4.118110	-1.400283	6.214867	-0.698703	0.392401	0.129273	0.584058
41169	6.099817	-1.100695	6.168122	-0.699410	0.395509	0.126510	0.581716
41170	7.784506	-3.974482	6.349668	-0.699452	0.398425	0.125214	0.579953
41171	10.305342	-5.950722	7.788694	-0.701401	0.399922	0.123747	0.576876
41172	10.229637	-6.164516	9.476660	-0.704085	0.401046	0.119882	0.573633
41173	9.723210	-5.440945	10.476153	-0.706029	0.401296	0.115871	0.571891
41174	10.318441	-6.826074	11.450433	-0.706537	0.400145	0.113500	0.572545
41175	12.224704	-8.413673	12.540593	-0.706698	0.396445	0.113518	0.574911
41176	13.785327	-8.901313	13.594966	-0.706492	0.390856	0.114297	0.578824
41177	14.729120	-8.828602	15.024408	-0.705835	0.384083	0.116723	0.583655
41178	13.853915	-8.811134	15.508589	-0.705340	0.375977	0.120952	0.588648
41179	14.003845	-8.544967	16.106661	-0.704261	0.367281	0.127483	0.594028
41180	13.765914	-9.458725	16.325441	-0.702293	0.358919	0.134187	0.599963
41181	14.165085	-10.257505	17.045203	-0.699867	0.351528	0.139720	0.605882
41182	14.593981	-10.894212	17.178407	-0.697003	0.347190	0.141421	0.611266
41183	14.846657	-10.299050	17.029516	-0.694199	0.345829	0.140661	0.615390
41184	14.264407	-9.780880	17.100429	-0.691536	0.347173	0.136678	0.618520
41185	12.422977	-9.853155	17.605602	-0.689235	0.349880	0.131020	0.620784
41186	12.524694	-9.801931	18.065501	-0.687987	0.352690	0.124075	0.622005
41187	12.938400	-8.013977	17.846395	-0.687904	0.355470	0.116219	0.622031
41188	12.469064	-7.963014	17.076296	-0.688310	0.359073	0.107590	0.621064
41189	10.920533	-7.942834	15.702342	-0.689895	0.362621	0.101864	0.618203
41190	9.597390	-7.683376	14.070940	-0.691786	0.366031	0.099237	0.614496
41191	8.578796	-7.200778	12.412816	-0.693858	0.368928	0.098351	0.610558
41192	7.461243	-7.722970	10.953317	-0.696265	0.370244	0.096852	0.607251
41193	6.454543	-7.145240	9.200722	-0.699791	0.368746	0.094342	0.604498
41194	6.497229	-5.911622	7.714791	-0.703554	0.366076	0.089335	0.602511
41195	5.962636	-5.212860	6.899210	-0.706963	0.363734	0.080852	0.601135
41196	5.249900	-5.284473	6.509257	-0.710469	0.361641	0.071161	0.599487
41197	4.853531	-5.310756	6.774419	-0.714152	0.359609	0.060358	0.597516
41198	3.889487	-5.793833	6.911048	-0.717732	0.357760	0.049003	0.595372
41199	3.834562	-6.336983	7.013499	-0.721277	0.356251	0.037736	0.592807
41200	3.823344	-5.790297	6.135182	-0.725120	0.355349	0.026218	0.589272
41201	2.998250	-5.258455	4.943235	-0.728386	0.355261	0.014213	0.585698
41202	2.500230	-4.224536	4.209375	-0.730687	0.355085	0.002145	0.583101
41203	2.327938	-3.268052	3.934900	-0.731812	0.355138	-0.010943	0.581556
41204	2.019703	-3.103595	3.821995	-0.731839	0.355516	-0.025071	0.580854
41205	1.709560	-3.028681	3.866929	-0.730910	0.356200	-0.038750	0.580854
41206	1.859757	-2.572509	3.532828	-0.728930	0.357344	-0.050695	0.581718
41207	2.197899	-1.748042	3.286769	-0.726189	0.358286	-0.061088	0.583565
41208	2.393807	-0.458945	2.923774	-0.723626	0.358687	-0.069796	0.585523
41209	2.494523	0.159979	2.972307	-0.720940	0.359599	-0.076965	0.587375
41210	1.772408	-0.770027	3.159826	-0.718131	0.360395	-0.082593	0.589560
41211	1.212720	-2.204328	2.868374	-0.715604	0.361181	-0.083223	0.592059
41212	1.531118	-2.185511	2.275008	-0.712835	0.361778	-0.079297	0.595563
41213	1.505537	-1.408393	2.104474	-0.709426	0.362035	-0.071587	0.600435
41214	1.901392	-1.209080	2.434414	-0.705383	0.362706	-0.061980	0.605836
41215	2.358800	-1.715506	3.132547	-0.702463	0.363609	-0.049339	0.609836
41216	3.630952	-1.104639	4.744155	-0.703356	0.362654	-0.031634	0.610550
41217	4.713484	0.115768	6.512596	-0.706082	0.359821	-0.011965	0.609782
41218	6.628311	0.286503	7.835711	-0.708366	0.355299	0.007318	0.609858
41219	7.959611	-0.302746	8.446796	-0.710456	0.348823	0.025468	0.610676
41220	9.298186	-0.599946	10.086421	-0.713240	0.340120	0.042947	0.611361
41221	10.809425	-0.808186	12.387278	-0.718029	0.327749	0.058775	0.611196
41222	12.161590	-0.299312	13.475200	-0.725299	0.310815	0.072914	0.609934
41223	12.844333	2.487739	13.596494	-0.735201	0.288231	0.086884	0.607333
41224	13.486285	4.749376	13.190767	-0.745924	0.262089	0.101355	0.603850
41225	14.431921	4.268846	12.051505	-0.756160	0.234281	0.114758	0.600138
41226	15.281579	2.979652	10.140160	-0.767288	0.203275	0.127156	0.594794
41227	15.620431	2.859578	7.641893	-0.780209	0.169279	0.136807	0.586431
41228	15.158926	2.742719	5.349268	-0.795172	0.131199	0.143252	0.574428
41229	14.101754	2.372050	4.430060	-0.810979	0.089712	0.144888	0.559707
41230	11.725543	0.567366	4.338334	-0.827356	0.045825	0.140637	0.541852
41231	9.020589	-1.954357	1.846087	-0.845035	0.001402	0.130310	0.518588
41232	3.260109	-4.587220	-1.989173	-0.862820	-0.045468	0.115662	0.489996
41233	-5.121918	-1.683118	-4.642819	-0.878730	-0.102824	0.102879	0.454616
41234	-23.950603	7.607757	-6.887440	-0.892270	-0.165104	0.075145	0.413459
41235	-67.111167	23.477082	-8.055189	-0.898383	-0.196673	0.034746	0.391178
41236	-45.835639	12.963139	-15.317446	-0.907152	-0.139898	0.036407	0.395194
41237	-26.452578	7.058339	-13.983226	-0.905008	-0.090345	0.036465	0.414087
41238	-29.713974	2.231586	-9.219134	-0.897079	-0.029595	0.041572	0.438914
41239	-26.447983	-0.947310	-1.778724	-0.883849	0.035407	0.050022	0.463741
41240	-20.460569	-5.366773	3.476473	-0.865253	0.110627	0.057293	0.485609
41241	-13.414858	-9.755720	4.183730	-0.842372	0.192467	0.061494	0.499584
41242	-3.675679	-13.618342	1.037599	-0.818266	0.272076	0.058271	0.503010
41243	3.963189	-19.730755	0.154327	-0.796588	0.337453	0.050079	0.499064
41244	12.901343	-23.522939	0.733248	-0.783105	0.382767	0.041412	0.488387
41245	19.469270	-20.078250	2.133577	-0.778999	0.408469	0.036284	0.474339
41246	28.357017	-13.436114	6.292485	-0.777258	0.427021	0.030330	0.461088
41247	32.365432	-12.692513	4.804566	-0.777556	0.441652	0.022046	0.447062
41248	29.121523	-13.052011	2.731311	-0.783800	0.448361	0.023297	0.429054
41249	32.370618	-2.394862	4.847890	-0.792748	0.447942	0.027758	0.412467
41250	25.596158	-0.115902	4.668351	-0.793012	0.455469	0.023915	0.403866
41251	20.527732	-5.842488	5.779628	-0.790750	0.461974	0.021486	0.401039
41252	16.657965	-5.492055	7.337181	-0.790450	0.461783	0.023718	0.401725
41253	12.774269	-2.928221	8.464442	-0.789012	0.461114	0.028021	0.405029
41254	11.015294	-2.521702	8.024054	-0.786106	0.461780	0.032060	0.409596
41255	9.524158	-2.860222	6.701792	-0.781852	0.463822	0.033714	0.415259
41256	9.695517	-5.140373	6.411120	-0.776024	0.468611	0.030885	0.420995
41257	11.454117	-9.904081	5.395677	-0.769601	0.472611	0.027386	0.428488
41258	12.389623	-9.274973	4.678516	-0.762786	0.474171	0.022638	0.439098
41259	11.935059	-7.737807	4.069255	-0.753598	0.476219	0.015533	0.452840
41260	12.393490	-7.865004	2.668362	-0.740374	0.480057	0.004382	0.470501
41261	12.054528	-9.935445	1.569479	-0.724501	0.482528	-0.007092	0.492154
41262	11.986050	-8.805732	0.985958	-0.706758	0.482465	-0.017667	0.517115
41263	11.762027	-8.160090	1.544768	-0.687209	0.481029	-0.028126	0.543657
41264	13.211607	-10.003642	1.670326	-0.666415	0.479363	-0.041868	0.569517
41265	10.749390	-11.132393	0.687846	-0.646543	0.475439	-0.053579	0.594196
41266	9.957436	-9.685655	-0.251200	-0.625681	0.470072	-0.063363	0.619307
41267	9.308118	-10.510128	-2.402636	-0.601331	0.463854	-0.073502	0.646404
41268	9.963677	-11.397348	-4.215676	-0.573753	0.454729	-0.082725	0.676156
41269	10.415645	-12.196851	-6.133724	-0.542216	0.443708	-0.092596	0.707496
41270	10.199767	-13.632634	-7.582369	-0.507518	0.431302	-0.101803	0.738945
41271	10.081512	-14.095304	-8.315947	-0.471135	0.418512	-0.110151	0.768600
41272	8.846388	-14.691818	-8.355847	-0.435926	0.405540	-0.118123	0.794703
41273	7.045333	-14.618633	-8.101294	-0.402210	0.392280	-0.126849	0.817468
41274	6.770939	-14.971293	-8.202442	-0.368979	0.379453	-0.137576	0.837223
41275	5.231749	-15.839027	-7.418320	-0.336522	0.366744	-0.150052	0.854246
41276	1.508006	-15.392526	-6.443600	-0.305543	0.354169	-0.161323	0.869012
41277	-2.162828	-12.772122	-4.408876	-0.272997	0.342601	-0.169463	0.882825
41278	-3.806828	-10.763844	-2.839781	-0.238103	0.332740	-0.176790	0.895174
41279	-4.806873	-10.387986	-0.652018	-0.202356	0.325449	-0.183874	0.905166
41280	-4.965992	-9.196420	1.219745	-0.168052	0.320979	-0.190526	0.912376
41281	-4.489276	-8.512393	3.136421	-0.136765	0.318690	-0.198822	0.916626
41282	-4.229757	-7.937040	4.658703	-0.109963	0.318216	-0.207730	0.918420
41283	-2.829741	-8.127690	6.337490	-0.088884	0.318445	-0.217629	0.918330
41284	-2.203660	-10.220733	8.266942	-0.071593	0.318035	-0.229475	0.917098
41285	-1.836656	-12.395179	10.204324	-0.057229	0.316223	-0.242820	0.915296
41286	-3.557002	-13.784701	12.708905	-0.043911	0.312778	-0.259410	0.912660
41287	-3.591494	-13.604570	14.433823	-0.033484	0.309913	-0.273437	0.909981
41288	-1.495429	-11.634734	16.106558	-0.025461	0.306860	-0.284809	0.907784
41289	1.578089	-10.914542	16.599560	-0.018575	0.302793	-0.294171	0.906330
41290	2.839684	-10.426188	16.698044	-0.011862	0.297580	-0.301520	0.905754
41291	2.751029	-10.750507	16.636508	-0.006831	0.292889	-0.305902	0.905866
41292	2.451737	-10.346068	15.977866	-0.005025	0.290417	-0.306659	0.906418
41293	3.342839	-8.486840	14.539147	-0.006558	0.290186	-0.303763	0.907456
41294	3.787610	-6.476431	12.478586	-0.009644	0.290736	-0.299645	0.908621
41295	3.666781	-5.463248	10.422388	-0.013115	0.291259	-0.294434	0.910112
41296	3.133373	-5.208683	8.825561	-0.016392	0.291756	-0.288240	0.911881
41297	2.444440	-5.085675	7.385476	-0.019726	0.292722	-0.280500	0.913917
41298	1.790847	-4.815879	6.378472	-0.023144	0.293950	-0.272368	0.915900
41299	0.304180	-5.409235	5.426490	-0.026771	0.295183	-0.265129	0.917528
41300	-0.463149	-6.184649	4.859270	-0.031609	0.296542	-0.259073	0.918665
41301	-1.045873	-6.313120	4.443128	-0.038323	0.297837	-0.255071	0.919110
41302	-1.281712	-7.179230	4.874255	-0.046497	0.298341	-0.254630	0.918692
41303	-1.092043	-8.896938	5.705525	-0.056752	0.297752	-0.257315	0.917558
41304	-1.186774	-11.390011	6.994013	-0.069946	0.296578	-0.262928	0.915433
41305	-1.286732	-13.811301	8.211876	-0.086050	0.295667	-0.270095	0.912264
41306	-1.674606	-14.270739	8.624891	-0.104315	0.295396	-0.276725	0.908451
41307	-2.306622	-13.101810	8.916431	-0.123806	0.296732	-0.282348	0.903826
41308	-3.097291	-12.442650	8.667622	-0.145165	0.301009	-0.286193	0.898006
41309	-1.780873	-12.177757	8.182920	-0.170028	0.307906	-0.286895	0.891053
41310	0.545998	-12.662893	5.745086	-0.197583	0.315582	-0.284488	0.883423
41311	0.916193	-11.581075	3.571586	-0.228052	0.322443	-0.276946	0.875970
41312	0.471673	-10.043307	1.099345	-0.261336	0.328678	-0.264999	0.868015
41313	0.241508	-10.098846	-0.711283	-0.299191	0.336328	-0.247703	0.857911
41314	0.823528	-8.590383	-3.459051	-0.343222	0.346305	-0.223651	0.843950
41315	1.668893	-7.810981	-5.210204	-0.390654	0.356373	-0.195784	0.825867
41316	3.939284	-7.376140	-7.188713	-0.439366	0.365936	-0.166625	0.803296
41317	5.671386	-7.689449	-8.470460	-0.488023	0.374950	-0.139019	0.775835
41318	6.984812	-7.644783	-8.623780	-0.535540	0.383793	-0.112120	0.743861
41319	9.168982	-6.089925	-7.745946	-0.579545	0.392353	-0.086344	0.709035
41320	10.107240	-4.476967	-5.779183	-0.616832	0.401168	-0.063942	0.674162
41321	12.312684	-4.867878	-4.076692	-0.646256	0.409834	-0.044176	0.642213
41322	16.564686	-5.734652	-3.345603	-0.667894	0.418351	-0.028295	0.614898
41323	19.030757	-7.281711	-1.690829	-0.683293	0.426274	-0.016585	0.592558
41324	18.925445	-7.764978	1.271213	-0.694293	0.432772	-0.008304	0.574975
41325	17.832051	-7.360676	4.720221	-0.700920	0.438707	-0.002978	0.562351
41326	15.567917	-7.575017	7.145018	-0.703784	0.444045	0.000603	0.554537
41327	13.927606	-8.724036	8.480868	-0.703636	0.448476	0.002362	0.551144
41328	12.700822	-9.542125	8.927524	-0.701569	0.451008	0.002887	0.551711
41329	11.731375	-9.134883	9.032592	-0.697909	0.452139	0.002279	0.555418
41330	11.186629	-9.025232	8.814733	-0.692606	0.452683	-0.000461	0.561583
41331	9.857115	-8.977278	8.513402	-0.686439	0.452501	-0.004216	0.569233
41332	8.514755	-8.637093	8.225044	-0.679665	0.451664	-0.008442	0.577913
41333	7.027603	-8.091202	7.793521	-0.672421	0.450462	-0.012947	0.587168
41334	6.007216	-7.859425	7.077329	-0.664617	0.449304	-0.018111	0.596726
41335	5.915603	-7.668169	6.308648	-0.656616	0.448398	-0.024101	0.605982
41336	5.369695	-7.507429	5.698470	-0.648774	0.448049	-0.031195	0.614306
41337	4.593219	-7.361069	5.231211	-0.641560	0.447870	-0.039340	0.621503
41338	3.804141	-7.297490	5.000319	-0.635217	0.447288	-0.049087	0.627713
41339	3.194405	-7.056122	4.490102	-0.629827	0.445988	-0.059901	0.633107
41340	3.425394	-6.572426	3.944153	-0.625084	0.444511	-0.071788	0.637595
41341	3.717037	-6.336366	3.404381	-0.620731	0.443066	-0.084459	0.641289
41342	3.971247	-6.314421	2.677205	-0.616935	0.441046	-0.096987	0.644565
41343	4.242704	-6.118488	2.224947	-0.613992	0.437747	-0.109115	0.647678
41344	3.471826	-6.658552	2.540993	-0.611733	0.432549	-0.120842	0.651215
41345	2.978196	-7.201492	3.616437	-0.610679	0.425780	-0.130461	0.654799
41346	3.359303	-7.170870	4.080188	-0.610434	0.418972	-0.138561	0.657749
41347	2.868707	-7.599604	4.353008	-0.610475	0.412348	-0.145133	0.660474
41348	2.265550	-8.023870	4.493094	-0.610867	0.405263	-0.149429	0.663532
41349	1.322662	-7.890578	5.126415	-0.612404	0.397563	-0.149744	0.666694
41350	1.093668	-7.402193	6.060826	-0.614779	0.390710	-0.146491	0.669278
41351	1.603202	-8.195364	6.446457	-0.617787	0.386178	-0.140620	0.670397
41352	1.461583	-9.738459	6.654560	-0.621805	0.383546	-0.130968	0.670148
41353	1.000080	-9.929581	7.010017	-0.627523	0.381307	-0.117016	0.668675
41354	1.579892	-8.486652	6.339149	-0.636426	0.379511	-0.097256	0.664436
41355	0.333157	-8.086650	4.168261	-0.645604	0.377697	-0.078153	0.659115
41356	-1.783555	-10.098112	4.950774	-0.652197	0.374956	-0.058084	0.656257
41357	-2.383583	-10.506608	5.813002	-0.658179	0.370872	-0.035520	0.654211
41358	-2.558690	-8.611757	7.061868	-0.665026	0.368055	-0.011195	0.649731
41359	-2.033417	-6.312416	7.296286	-0.674956	0.366462	0.014397	0.640260
41360	-0.873039	-3.858676	7.386469	-0.687481	0.366244	0.037631	0.625955
41361	-0.933956	-4.473584	7.699258	-0.701062	0.366335	0.057660	0.609087
41362	-0.283318	-5.872442	7.387724	-0.716076	0.364757	0.076191	0.590239
41363	-0.224302	-4.420115	7.976793	-0.730929	0.361782	0.093855	0.571006
41364	0.957777	-3.999810	8.148716	-0.744678	0.357957	0.111192	0.552230
41365	3.419464	-3.933442	7.660547	-0.758379	0.354173	0.127735	0.532078
41366	4.424013	-4.787347	6.291567	-0.772339	0.351380	0.141777	0.509827
41367	4.804792	-5.875673	4.999234	-0.785183	0.349168	0.155110	0.487350
41368	5.790822	-5.010915	4.792425	-0.796656	0.345562	0.167576	0.466738
41369	6.351028	-2.810072	6.106169	-0.807896	0.341414	0.181182	0.444875
41370	6.213897	-2.263475	6.606383	-0.819479	0.337310	0.194627	0.420471
41371	6.701758	-2.353173	6.188860	-0.831429	0.331900	0.208363	0.393895
41372	7.140846	-1.662535	5.763912	-0.842558	0.324862	0.222349	0.367589
41373	7.552721	-0.733059	4.641061	-0.853000	0.316873	0.235285	0.341502
41374	6.786200	0.105574	5.210943	-0.863114	0.308994	0.248246	0.312937
41375	6.236954	-1.157390	5.543597	-0.872388	0.303045	0.260245	0.281737
41376	6.833246	-3.896227	5.426312	-0.880897	0.298121	0.271361	0.248009
41377	7.572029	-4.872727	4.769706	-0.888856	0.292023	0.281019	0.213741
41378	8.286989	-3.435499	4.536475	-0.895576	0.286173	0.288160	0.181692
41379	7.376198	-1.488521	4.360250	-0.900010	0.282653	0.294209	0.153394
41380	6.522583	-1.787409	4.385794	-0.902250	0.282612	0.299089	0.128922
41381	6.016605	-3.926762	3.680585	-0.903604	0.282573	0.304271	0.105223
41382	7.463345	-4.336734	2.815830	-0.905151	0.281648	0.308028	0.080583
41383	8.229627	-3.141511	3.257491	-0.906231	0.279929	0.311712	0.056759
41384	7.285073	-2.866692	3.618361	-0.906631	0.280724	0.312907	0.036104
41385	5.264679	-3.030740	5.066737	-0.906006	0.283805	0.313517	0.017748
41386	3.258564	-4.472874	4.873971	-0.904072	0.289946	0.313974	0.002310
41387	3.058987	-5.221785	3.924665	-0.901679	0.295042	0.315904	-0.011393
41388	4.056193	-4.359229	4.009037	-0.899139	0.299309	0.318414	-0.023981
41389	3.748593	-5.602662	3.683008	-0.895806	0.305653	0.320707	-0.035433
41390	3.631657	-7.159270	3.599398	-0.892531	0.310282	0.323770	-0.047821
41391	4.662665	-7.374045	3.949238	-0.890087	0.312737	0.325967	-0.060722
41392	5.376411	-7.013687	4.073898	-0.888125	0.314626	0.327025	-0.072794
41393	6.100696	-7.054865	3.786646	-0.886578	0.316167	0.327185	-0.083477
41394	7.035709	-6.841621	3.739354	-0.885780	0.316380	0.326644	-0.092739
41395	7.402665	-7.383849	4.050231	-0.885393	0.317494	0.324687	-0.099273
41396	6.687364	-8.382859	4.094529	-0.885585	0.318162	0.322056	-0.103886
41397	6.801753	-8.733840	4.679402	-0.886329	0.318328	0.318734	-0.107225
41398	6.312710	-8.280631	5.138470	-0.886955	0.319173	0.315589	-0.108829
41399	6.260747	-8.055649	5.500586	-0.887143	0.320972	0.313459	-0.108158
41400	5.793352	-7.922207	6.023106	-0.886732	0.323229	0.312987	-0.106150
41401	5.421309	-8.537256	7.021269	-0.885775	0.325581	0.313985	-0.103989
41402	4.855776	-9.313374	7.900628	-0.884629	0.327335	0.315902	-0.102418
41403	5.039980	-9.515944	8.527274	-0.883709	0.328303	0.317911	-0.101036
41404	5.453838	-9.167934	8.559082	-0.883240	0.328482	0.319527	-0.099442
41405	6.023832	-9.362185	8.213746	-0.882827	0.328859	0.320846	-0.097601
41406	5.991078	-10.249796	7.973137	-0.882287	0.329298	0.322076	-0.096952
41407	5.903632	-10.451455	8.342603	-0.881643	0.329570	0.323295	-0.097819
41408	6.630815	-10.599981	8.419714	-0.880752	0.330256	0.324606	-0.099184
41409	7.784730	-10.506148	8.401169	-0.879869	0.330888	0.325981	-0.100402
41410	8.869789	-10.966044	8.709686	-0.879128	0.332058	0.326587	-0.101054
41411	9.290320	-11.288147	8.830426	-0.878780	0.333367	0.326034	-0.101561
41412	9.544618	-11.176323	9.240976	-0.878829	0.334648	0.324524	-0.101758
41413	9.289350	-11.136865	9.418643	-0.878754	0.336873	0.322526	-0.101411
41414	8.507996	-10.855820	9.278468	-0.878746	0.338947	0.320672	-0.100450
41415	8.812414	-10.531551	8.611726	-0.878664	0.340547	0.319762	-0.098639
41416	8.906429	-10.147047	8.060620	-0.878667	0.341266	0.319618	-0.096570
41417	8.503846	-9.615832	7.784590	-0.878579	0.341669	0.320054	-0.094486
41418	7.945218	-9.381222	7.634820	-0.877905	0.342487	0.321682	-0.092228
41419	7.436162	-9.804440	7.512595	-0.876615	0.344180	0.324021	-0.089987
41420	6.601197	-9.894457	7.416561	-0.874977	0.346083	0.326850	-0.088385
41421	6.055655	-9.562734	7.402828	-0.873180	0.348099	0.329793	-0.087290
41422	6.278889	-9.041645	7.033572	-0.871584	0.350099	0.332095	-0.086516
41423	6.704008	-8.651021	6.798909	-0.870613	0.352123	0.332663	-0.085899
41424	6.943923	-8.419304	6.540884	-0.870701	0.353667	0.330851	-0.085661
41425	6.581674	-7.563350	6.355868	-0.871985	0.354233	0.326800	-0.085803
41426	5.946216	-6.307544	6.185415	-0.873852	0.354652	0.321346	-0.085682
41427	5.178532	-5.788880	5.361919	-0.875945	0.355241	0.315187	-0.084740
41428	4.284555	-5.822599	4.370694	-0.877894	0.355955	0.309341	-0.083107
41429	3.868333	-6.085516	3.374167	-0.879787	0.356187	0.303998	-0.081800
41430	3.322313	-5.407336	2.622533	-0.882115	0.354878	0.298854	-0.081375
41431	2.710566	-4.496377	2.402673	-0.884680	0.352339	0.294280	-0.081232
41432	2.331827	-4.038898	1.961746	-0.887074	0.349814	0.290314	-0.080296
41433	1.807457	-3.824012	1.318528	-0.888960	0.347715	0.287688	-0.077968
41434	1.925732	-3.630963	0.747720	-0.890623	0.345539	0.286255	-0.073830
41435	1.406429	-3.307696	0.251753	-0.892468	0.342950	0.285152	-0.067629
41436	0.477174	-3.298205	0.320184	-0.894242	0.340384	0.284291	-0.060398
41437	-0.213012	-3.772191	0.573841	-0.895405	0.338799	0.284036	-0.052814
41438	-0.624189	-4.370034	0.951168	-0.896224	0.337374	0.284450	-0.045262
41439	-0.255353	-4.974215	1.032418	-0.896816	0.336439	0.284892	-0.036956
41440	0.473110	-4.624321	0.778708	-0.897692	0.334883	0.285039	-0.027474
41441	1.103002	-3.843309	1.715033	-0.898508	0.333919	0.284430	-0.016791
41442	1.208627	-4.277771	2.661562	-0.898819	0.334625	0.283050	-0.005814
41443	1.903715	-5.013010	3.395323	-0.899248	0.335655	0.280486	0.003993
41444	2.320198	-4.818346	4.347810	-0.899538	0.337012	0.277654	0.012740
41445	3.183344	-4.879438	5.655505	-0.899519	0.340599	0.272640	0.022905
41446	3.048030	-5.682709	5.627170	-0.899237	0.346291	0.265097	0.034316
41447	3.261754	-6.409646	6.429226	-0.899259	0.351649	0.256118	0.045609
41448	2.922574	-6.145410	7.121340	-0.899416	0.357533	0.245033	0.056387
41449	3.385308	-5.959387	7.434327	-0.899040	0.364551	0.233257	0.066488
41450	4.047349	-6.271280	6.692544	-0.898377	0.372681	0.219144	0.077486
41451	3.742496	-6.646024	6.014584	-0.897730	0.380102	0.203343	0.090850
41452	3.473804	-7.045907	6.254342	-0.897383	0.385776	0.185386	0.107297
41453	2.781170	-6.483353	6.590020	-0.896927	0.390593	0.164563	0.126007
41454	1.057971	-6.201542	6.467098	-0.895010	0.397067	0.141477	0.145876
41455	-0.084698	-6.910136	6.525296	-0.891995	0.403696	0.120572	0.163819
41456	-0.114424	-6.698412	6.941527	-0.888396	0.409766	0.102836	0.179634
41457	0.820486	-6.714910	7.679860	-0.884154	0.415633	0.088646	0.194071
41458	1.282495	-7.113271	7.335374	-0.878849	0.423019	0.075804	0.207203
41459	2.265877	-5.491203	8.322007	-0.873506	0.429420	0.066839	0.219360
41460	3.252298	-4.916849	7.405752	-0.865745	0.438570	0.057915	0.234069
41461	3.840389	-5.438177	8.062980	-0.856811	0.447498	0.051765	0.250881
41462	3.590506	-5.747783	7.398371	-0.847039	0.455338	0.045860	0.270349
41463	1.194373	-5.434296	7.553459	-0.837352	0.461815	0.044269	0.289151
41464	2.181710	-4.939118	7.552605	-0.828295	0.467812	0.048545	0.304504
41465	3.295074	-4.413948	7.593887	-0.819823	0.473532	0.057517	0.316781
41466	4.317377	-4.307074	7.242339	-0.811780	0.477965	0.070017	0.328118
41467	5.713280	-5.014413	7.245917	-0.803753	0.480978	0.084419	0.339875
41468	5.337792	-5.646159	7.621030	-0.796165	0.481395	0.101945	0.352118
41469	4.105761	-5.269861	8.105315	-0.790318	0.479553	0.124784	0.360354
41470	3.900081	-4.171898	8.115414	-0.785461	0.477715	0.152705	0.362657
41471	5.699203	-4.174182	7.176048	-0.780338	0.476761	0.184997	0.359927
41472	8.769288	-4.592391	5.700367	-0.775161	0.475606	0.219456	0.353218
41473	9.510908	-5.273960	4.770802	-0.769292	0.473978	0.253198	0.345580
41474	8.917682	-5.742975	4.375156	-0.762748	0.471028	0.285603	0.338791
41475	7.361015	-6.292232	4.620349	-0.754730	0.468609	0.315990	0.333076
41476	6.454369	-7.493662	3.857225	-0.746685	0.465598	0.344938	0.326646
41477	6.026270	-6.707251	2.945031	-0.738844	0.462379	0.372053	0.319205
41478	5.921406	-6.700664	1.306763	-0.730885	0.460013	0.397345	0.310343
41479	7.161762	-5.633781	0.083367	-0.723403	0.459647	0.419286	0.299354
41480	5.778277	-5.330811	-1.453351	-0.714761	0.464061	0.436172	0.288995
41481	4.929974	-6.391617	-2.423651	-0.704927	0.470702	0.450032	0.281050
41482	5.142837	-5.970239	-3.007995	-0.694682	0.476388	0.463606	0.274848
41483	5.014116	-4.238016	-2.410165	-0.683427	0.482202	0.476717	0.270462
41484	4.474088	-3.566775	-1.672021	-0.670980	0.489589	0.489342	0.265768
41485	4.473007	-3.937791	-1.154565	-0.657714	0.498504	0.501948	0.258755
41486	5.259668	-3.276786	-0.838379	-0.644729	0.507222	0.514632	0.249408
41487	5.298464	-2.170529	-0.654899	-0.632174	0.514954	0.526944	0.239810
41488	5.937684	-1.267078	-1.160624	-0.621121	0.521245	0.538324	0.229607
41489	5.977400	-1.200907	-1.795897	-0.611578	0.527197	0.547301	0.220221
41490	7.190483	-4.146834	-1.406177	-0.603368	0.531255	0.555530	0.212373
41491	8.213566	-5.408264	-0.710054	-0.596480	0.533152	0.564819	0.202337
41492	8.222772	-5.464885	-0.316863	-0.589393	0.535348	0.574007	0.191140
41493	8.476302	-5.494339	-1.380227	-0.581198	0.537982	0.583387	0.180121
41494	8.969623	-4.812268	-1.763985	-0.573513	0.539251	0.592809	0.169906
41495	8.428920	-4.632083	-1.957205	-0.567373	0.539280	0.601262	0.160464
41496	7.425549	-5.611940	-2.338823	-0.564244	0.537304	0.608585	0.150191
41497	7.833980	-5.029239	-2.754273	-0.564997	0.532078	0.615553	0.136987
41498	9.588057	-3.785022	-3.698066	-0.568168	0.524933	0.621854	0.122181
41499	10.176137	-3.144192	-4.372067	-0.572213	0.516819	0.627899	0.105887
41500	10.063307	-1.448425	-5.024241	-0.576018	0.508010	0.634268	0.088505
41501	11.089159	-0.515135	-6.522118	-0.578100	0.499752	0.640752	0.074061
41502	13.717563	-2.875190	-8.334709	-0.578664	0.492018	0.647362	0.063157
41503	17.751117	-5.210381	-9.255261	-0.578500	0.484780	0.653693	0.054875
41504	18.676732	-6.942131	-8.619668	-0.578094	0.479109	0.658620	0.049812
41505	16.083533	-8.406889	-6.972769	-0.577954	0.474337	0.662467	0.045960
41506	12.465093	-8.046593	-5.317361	-0.578615	0.469935	0.665397	0.040148
41507	10.246933	-7.053370	-4.109463	-0.578990	0.467376	0.667289	0.032497
41508	10.846484	-6.991741	-4.640786	-0.578356	0.467805	0.667814	0.026217
41509	12.792890	-7.329987	-5.873394	-0.577402	0.469371	0.667656	0.023079
41510	15.071166	-5.738200	-6.244755	-0.576659	0.472132	0.666287	0.024852
41511	15.926496	-5.340767	-6.248295	-0.576885	0.476214	0.662842	0.032627
41512	15.179911	-4.992385	-6.329292	-0.578368	0.479679	0.658383	0.043929
41513	15.165260	-4.579227	-6.581640	-0.581389	0.481447	0.653397	0.057161
41514	15.824393	-4.393276	-6.513861	-0.585836	0.481811	0.647654	0.072106
41515	17.182007	-4.247876	-6.343111	-0.591167	0.482470	0.640203	0.088799
41516	16.735379	-4.334607	-5.999940	-0.597252	0.484564	0.630155	0.106734
41517	14.878012	-4.138987	-5.092101	-0.603629	0.487394	0.618429	0.124999
41518	13.830731	-4.957152	-4.765723	-0.611176	0.489468	0.605445	0.142550
41519	12.917032	-4.870518	-4.392370	-0.621111	0.489672	0.591370	0.157240
41520	12.725857	-4.909065	-3.910954	-0.633202	0.488621	0.575478	0.170673
41521	13.042313	-4.629456	-3.715917	-0.646983	0.486579	0.557714	0.183328
41522	12.512944	-4.412132	-2.783612	-0.662032	0.485176	0.536805	0.195343
41523	9.573131	-4.580858	-2.083582	-0.677648	0.485315	0.512722	0.205862
41524	7.436535	-5.241748	-1.815603	-0.692573	0.484565	0.489547	0.214204
41525	8.281339	-5.276935	-1.822274	-0.707189	0.482142	0.467215	0.221659
41526	7.619816	-4.357970	-2.428154	-0.721200	0.478631	0.445442	0.228833
41527	6.367322	-3.735821	-1.331022	-0.734979	0.473003	0.424418	0.236522
41528	4.669741	-3.331540	-0.215705	-0.748380	0.466335	0.402851	0.245298
41529	2.846110	-2.935718	0.573883	-0.759663	0.459757	0.382873	0.254843
41530	3.488261	-3.029894	1.568085	-0.768182	0.453215	0.365538	0.266225
41531	3.286816	-3.776568	2.695600	-0.770534	0.450373	0.352571	0.281309
41532	7.727517	-4.030372	-2.512210	-0.772704	0.444309	0.341050	0.298670
41533	4.276630	-3.724763	-2.560222	-0.777782	0.431007	0.330066	0.316771
41534	2.623965	-3.293866	-0.125436	-0.782246	0.415195	0.323541	0.333205
41535	3.171507	-3.552885	-0.489961	-0.785356	0.401465	0.319257	0.346579
41536	3.084135	-3.528010	-0.958498	-0.788926	0.386957	0.317134	0.356771
41537	3.908733	-1.771870	-0.440246	-0.791511	0.374119	0.315598	0.365982
41538	4.440313	-1.848912	-0.885117	-0.792690	0.365546	0.310881	0.375994
41539	3.555998	-2.935332	-0.607854	-0.793651	0.360226	0.303460	0.385055
41540	3.246812	-4.615042	0.203855	-0.794925	0.356333	0.294691	0.392783
41541	3.643206	-5.395860	0.862038	-0.797225	0.351320	0.285273	0.399532
41542	3.740636	-4.164074	1.081997	-0.799504	0.346501	0.275227	0.406179
41543	4.066369	-2.721396	2.454261	-0.800544	0.343466	0.264064	0.414043
41544	4.412256	-2.818023	3.149005	-0.799848	0.343140	0.250709	0.423843
41545	4.629765	-3.212706	3.425972	-0.798445	0.344089	0.236698	0.433662
41546	4.702693	-3.016909	3.742578	-0.796991	0.345515	0.222260	0.442747
41547	4.625520	-2.794300	3.999298	-0.795675	0.346869	0.206544	0.451578
41548	4.293370	-3.019834	4.183646	-0.794718	0.347723	0.188739	0.460316
41549	4.450743	-3.473891	4.353631	-0.794158	0.347846	0.168712	0.468883
41550	5.239946	-4.098274	4.409697	-0.793901	0.347807	0.145866	0.476943
41551	5.332141	-4.866859	4.320579	-0.794531	0.347154	0.120912	0.483307
41552	4.787279	-4.917768	4.284040	-0.796356	0.345236	0.094192	0.487604
41553	3.861284	-4.297074	4.139162	-0.799322	0.342329	0.065141	0.489542
41554	2.640396	-3.102798	4.020874	-0.803388	0.339188	0.033012	0.488292
41555	1.952441	-2.171814	4.051021	-0.807687	0.338002	-0.001816	0.483107
41556	2.739296	-2.809609	3.502483	-0.811357	0.338892	-0.041515	0.474477
41557	1.970940	-4.203268	3.645135	-0.815451	0.338019	-0.085166	0.462093
41558	0.785753	-5.682445	3.314994	-0.820522	0.333632	-0.129017	0.445856
41559	0.598584	-5.763178	3.485538	-0.827017	0.323311	-0.172161	0.426467
41560	-0.189250	-6.425565	5.100058	-0.833330	0.307746	-0.217470	0.404425
41561	-3.776384	-7.623963	5.412136	-0.838335	0.288480	-0.264165	0.379724
41562	-6.717213	-6.912650	3.284207	-0.844213	0.262114	-0.304615	0.354698
41563	-9.011104	-5.980576	5.810237	-0.847074	0.230875	-0.343551	0.333370
41564	-9.230386	-5.254756	5.787537	-0.843652	0.201195	-0.385978	0.314313
41565	-8.937255	-5.785551	5.698746	-0.834823	0.175451	-0.432129	0.292492
41566	-10.209785	-5.881364	5.529433	-0.821557	0.149048	-0.480065	0.269009
41567	-12.288141	-4.490509	4.819012	-0.804072	0.121832	-0.528524	0.243489
41568	-16.309323	-2.969204	3.638430	-0.783233	0.096936	-0.574918	0.215913
41569	-17.370152	-2.811006	1.320829	-0.764173	0.071390	-0.612508	0.189150
41570	-17.061697	-2.765216	-0.387797	-0.745103	0.044235	-0.645052	0.163627
41571	-17.692445	-3.161461	-3.059577	-0.728411	0.013734	-0.669582	0.144532
41572	-16.575214	-2.454517	-3.377558	-0.714642	-0.021471	-0.685765	0.136202
41573	-14.485337	2.551728	-2.493747	-0.702909	-0.059690	-0.694392	0.142043
41574	-13.866851	8.322154	0.161526	-0.691694	-0.087557	-0.700607	0.151796
41575	-13.629553	8.408117	1.495154	-0.683576	-0.096919	-0.706002	0.157772
41576	-15.329019	3.490825	4.737790	-0.681224	-0.089038	-0.708952	0.159353
41577	-14.705585	0.519147	5.401401	-0.684774	-0.074550	-0.706338	0.163134
41578	-13.076433	-0.660565	5.919202	-0.687735	-0.057755	-0.704090	0.167160
41579	-11.093718	-1.745506	6.205435	-0.690399	-0.039288	-0.702493	0.168256
41580	-9.059963	-4.243628	5.238151	-0.692784	-0.020939	-0.701772	0.164709
41581	-8.188642	-7.736625	3.639876	-0.695399	-0.009784	-0.700001	0.162241
41582	-7.882827	-8.738119	2.439618	-0.697773	-0.011392	-0.696585	0.166592
41583	-7.189119	-6.920271	2.271651	-0.699099	-0.022936	-0.692204	0.177731
41584	-7.156903	-4.587460	1.647727	-0.697547	-0.037375	-0.689550	0.191186
41585	-8.062933	-4.011814	0.940383	-0.694573	-0.052897	-0.687421	0.205482
41586	-8.562066	-3.926458	0.566473	-0.691423	-0.070107	-0.684249	0.220958
41587	-9.051799	-3.491258	0.521603	-0.688294	-0.087873	-0.680068	0.236721
41588	-9.211228	-3.207592	0.328000	-0.685003	-0.105102	-0.675193	0.252664
41589	-8.848732	-3.208787	0.033717	-0.681296	-0.121259	-0.669983	0.268802
41590	-8.349781	-3.310363	-0.348307	-0.677350	-0.136213	-0.664345	0.285111
41591	-8.225107	-3.332050	-0.896878	-0.673416	-0.149803	-0.658472	0.300805
41592	-8.471713	-3.795945	-1.669419	-0.669715	-0.161946	-0.652212	0.316028
41593	-8.822535	-3.874949	-2.199170	-0.666243	-0.173656	-0.644911	0.331744
41594	-9.322930	-3.248571	-1.944115	-0.663259	-0.183603	-0.636844	0.347573
41595	-9.439209	-2.954562	-2.062912	-0.660360	-0.190567	-0.629259	0.362826
41596	-9.818436	-3.109593	-1.997086	-0.657481	-0.194513	-0.622451	0.377410
41597	-9.937783	-3.378064	-2.007252	-0.654670	-0.195690	-0.616331	0.391469
41598	-10.021000	-3.680995	-2.154342	-0.651528	-0.194977	-0.610721	0.405605
41599	-10.000845	-3.837130	-2.033289	-0.647977	-0.193145	-0.605120	0.420297
41600	-9.880990	-3.813289	-1.903791	-0.643697	-0.190849	-0.599634	0.435511
41601	-9.912966	-3.875062	-1.629445	-0.638673	-0.188025	-0.594394	0.451042
41602	-9.770379	-4.194005	-1.380884	-0.632982	-0.185211	-0.588946	0.467091
41603	-9.515371	-4.264473	-0.931629	-0.626092	-0.183045	-0.583401	0.483887
41604	-9.409571	-4.220697	-0.523137	-0.618193	-0.181397	-0.577665	0.501234
41605	-9.380875	-4.055156	-0.430354	-0.609412	-0.179806	-0.572326	0.518392
41606	-9.610483	-4.155958	-0.275815	-0.599821	-0.178291	-0.567472	0.535166
41607	-9.539694	-4.363007	-0.021595	-0.589503	-0.177134	-0.562422	0.552079
41608	-9.473996	-4.339533	0.800111	-0.578420	-0.176115	-0.557302	0.569060
41609	-9.119583	-4.802381	1.108074	-0.566710	-0.175056	-0.553060	0.585081
41610	-9.501596	-5.226612	1.130587	-0.554804	-0.174618	-0.549469	0.599821
41611	-9.988984	-5.334154	0.832793	-0.543109	-0.174771	-0.546295	0.613229
41612	-10.276140	-5.189638	1.069793	-0.531612	-0.175267	-0.543680	0.625366
41613	-9.859335	-4.663887	1.242989	-0.519919	-0.175766	-0.542757	0.635772
41614	-9.676078	-4.592451	1.638537	-0.507905	-0.175544	-0.543875	0.644528
41615	-9.023086	-4.707357	2.159356	-0.494847	-0.175727	-0.546283	0.652550
41616	-8.805071	-5.730835	2.331097	-0.480982	-0.176339	-0.550035	0.659562
41617	-8.775608	-6.780452	2.735644	-0.466696	-0.178388	-0.552248	0.667379
41618	-8.381582	-6.033772	3.609411	-0.452319	-0.182425	-0.551938	0.676382
41619	-8.157972	-5.397545	4.224560	-0.438129	-0.186746	-0.551126	0.685149
41620	-7.320300	-5.210126	4.664311	-0.423674	-0.191251	-0.550661	0.693323
41621	-6.475033	-5.317956	4.845886	-0.409072	-0.196200	-0.551147	0.700288
41622	-5.839981	-5.831707	4.776531	-0.394720	-0.202207	-0.551780	0.706292
41623	-5.958254	-6.284707	4.691726	-0.380559	-0.209419	-0.551522	0.712139
41624	-6.361375	-6.252013	4.086128	-0.366558	-0.217046	-0.549932	0.718401
41625	-6.662056	-6.279856	3.726429	-0.352622	-0.224323	-0.547201	0.725195
41626	-6.519398	-6.093011	3.433006	-0.338290	-0.231183	-0.543691	0.732472
41627	-6.267515	-5.954458	3.466319	-0.323969	-0.237434	-0.540474	0.739295
41628	-6.130851	-6.240732	3.802453	-0.310380	-0.242880	-0.537602	0.745424
41629	-5.891862	-6.553689	3.780640	-0.297692	-0.248219	-0.534568	0.751002
41630	-6.009102	-6.807087	3.463142	-0.285987	-0.253444	-0.531172	0.756197
41631	-6.220807	-6.513287	3.316075	-0.275243	-0.258419	-0.526360	0.761844
41632	-6.117546	-5.973329	3.697750	-0.265522	-0.262653	-0.520292	0.767989
41633	-5.371083	-5.560204	3.670580	-0.257045	-0.266362	-0.514185	0.773688
41634	-4.940807	-5.173438	4.069477	-0.250148	-0.269558	-0.508247	0.778749
41635	-4.882208	-5.723986	4.065138	-0.244891	-0.272335	-0.503080	0.782798
41636	-5.385913	-6.488518	4.045168	-0.241563	-0.275051	-0.496707	0.786942
41637	-5.729196	-6.996719	3.647781	-0.239565	-0.277285	-0.489209	0.791452
41638	-5.142069	-6.391049	3.465635	-0.237835	-0.279445	-0.479946	0.796867
41639	-4.378745	-5.304331	3.338703	-0.236303	-0.282452	-0.471549	0.801264
41640	-4.377707	-5.349294	3.142622	-0.235023	-0.286124	-0.466653	0.803201
41641	-4.991180	-6.211536	3.044897	-0.233784	-0.290499	-0.464430	0.803281
41642	-5.893227	-7.265842	2.940508	-0.232886	-0.295139	-0.462551	0.802935
41643	-6.821677	-7.467794	3.352449	-0.232667	-0.299514	-0.458666	0.803606
41644	-7.162578	-7.118968	3.908276	-0.233249	-0.303009	-0.452693	0.805512
41645	-6.801061	-6.581280	4.260736	-0.233927	-0.305374	-0.446269	0.808003
41646	-5.907797	-6.061981	4.577670	-0.234554	-0.307021	-0.441884	0.809606
41647	-5.885832	-7.440474	3.995166	-0.234792	-0.308610	-0.440245	0.809825
41648	-5.893791	-8.208632	3.296364	-0.233666	-0.310823	-0.437190	0.810959
41649	-5.551170	-7.017554	3.247736	-0.232009	-0.313736	-0.432297	0.812934
41650	-5.260957	-5.715248	3.605810	-0.230734	-0.317295	-0.428317	0.814021
41651	-5.320479	-5.574221	3.321512	-0.229895	-0.321248	-0.426862	0.813472
41652	-5.852479	-5.372416	3.083122	-0.229600	-0.325508	-0.426217	0.812199
41653	-5.966525	-5.661509	3.318618	-0.229913	-0.329524	-0.425762	0.810728
41654	-5.934003	-6.829128	3.197146	-0.230199	-0.333736	-0.425684	0.808964
41655	-6.328491	-7.773595	2.756358	-0.229769	-0.338181	-0.424468	0.807878
41656	-6.347901	-7.341730	2.881595	-0.228283	-0.342591	-0.421687	0.807897
41657	-6.381756	-7.193113	3.449720	-0.227172	-0.346478	-0.420074	0.807393
41658	-6.816621	-6.523809	3.727133	-0.228047	-0.349841	-0.419315	0.806090
41659	-7.314091	-5.861908	4.246270	-0.231209	-0.350539	-0.420373	0.804333
41660	-8.074036	-5.771615	4.207508	-0.233770	-0.348975	-0.422578	0.803116
41661	-7.507942	-4.513951	4.615180	-0.233552	-0.346724	-0.424667	0.803053
41662	-7.276483	-4.567983	5.042031	-0.231052	-0.344999	-0.428108	0.802692
41663	-7.116418	-4.814955	5.546166	-0.227466	-0.343849	-0.430603	0.802875
41664	-7.289377	-4.482745	6.176945	-0.224069	-0.343519	-0.432202	0.803112
41665	-8.219724	-4.009973	6.332625	-0.221040	-0.343994	-0.432909	0.803367
41666	-9.023280	-3.575168	6.328526	-0.218574	-0.344851	-0.433948	0.803114
41667	-8.642322	-4.959606	5.438272	-0.215777	-0.346260	-0.436742	0.801748
41668	-8.991849	-6.406786	5.638662	-0.211246	-0.348670	-0.436198	0.802207
41669	-9.968813	-5.076951	7.298427	-0.207100	-0.350416	-0.431887	0.804855
41670	-8.859403	-3.944751	5.635112	-0.203416	-0.350385	-0.427568	0.808107
41671	-8.337929	-4.136889	6.013376	-0.199216	-0.351032	-0.423824	0.810841
41672	-8.220450	-5.808186	4.576238	-0.194385	-0.351266	-0.420892	0.813435
41673	-8.036350	-6.972168	4.210006	-0.188075	-0.351475	-0.412535	0.819090
41674	-6.728600	-4.899552	3.792610	-0.180131	-0.352037	-0.398280	0.827645
41675	-6.142616	-2.614528	4.719304	-0.171392	-0.353836	-0.383811	0.835532
41676	-6.205317	-0.024599	5.680913	-0.163122	-0.357701	-0.370169	0.841675
41677	-6.273761	0.624724	6.281440	-0.158779	-0.362032	-0.361840	0.844271
41678	-7.075645	-2.107209	5.674666	-0.158260	-0.365958	-0.360349	0.843313
41679	-7.564036	-5.755996	4.602830	-0.156473	-0.369877	-0.358304	0.842808
41680	-7.123423	-5.957810	4.779980	-0.150665	-0.374772	-0.352233	0.844262
41681	-6.040123	-5.397687	5.156373	-0.142694	-0.380669	-0.346278	0.845471
41682	-6.350159	-6.716484	4.697179	-0.132367	-0.387203	-0.340229	0.846639
41683	-6.278226	-5.699340	4.885807	-0.118832	-0.394290	-0.331287	0.848919
41684	-5.989752	-4.080218	5.149621	-0.104346	-0.401096	-0.322704	0.850938
41685	-6.373301	-3.311849	5.617479	-0.091027	-0.406903	-0.315402	0.852447
41686	-6.716872	-3.339403	5.968802	-0.080030	-0.411159	-0.308824	0.853915
41687	-6.509408	-3.428775	6.167417	-0.070936	-0.413625	-0.303034	0.855601
41688	-6.042759	-3.695380	5.870083	-0.064159	-0.414656	-0.301530	0.856168
41689	-6.624601	-5.035530	5.264901	-0.058784	-0.413634	-0.301393	0.857096
41690	-6.194603	-4.587759	5.253381	-0.053505	-0.411274	-0.300114	0.859024
41691	-5.599910	-4.540724	5.379395	-0.049872	-0.408057	-0.300836	0.860523
41692	-5.565301	-5.462774	5.134006	-0.046350	-0.404868	-0.302755	0.861553
41693	-5.425484	-4.327372	5.374054	-0.042254	-0.402121	-0.303388	0.862826
41694	-5.225879	-4.324298	5.172555	-0.039641	-0.399449	-0.307135	0.862865
41695	-5.489138	-6.008263	4.684238	-0.037643	-0.397047	-0.312411	0.862169
41696	-5.842906	-6.624293	4.394413	-0.034383	-0.394905	-0.315390	0.862205
41697	-6.043857	-6.354975	4.237397	-0.029813	-0.392940	-0.316045	0.863033
41698	-6.141136	-5.856483	4.338420	-0.024424	-0.391252	-0.315997	0.863986
41699	-6.175411	-5.549036	4.406326	-0.018773	-0.389923	-0.316340	0.864602
41700	-6.450929	-5.527800	4.519503	-0.013147	-0.389093	-0.317185	0.864770
41701	-6.889952	-5.439159	4.477561	-0.007566	-0.388371	-0.318380	0.864723
41702	-7.260987	-5.214053	4.487840	-0.002149	-0.387298	-0.319922	0.864665
41703	-7.443090	-4.763049	4.697305	0.003003	-0.386209	-0.322517	0.864185
41704	-7.793080	-4.569498	4.683658	0.007651	-0.384815	-0.327408	0.862939
41705	-7.915579	-5.090696	4.446553	0.012198	-0.383161	-0.333656	0.861227
41706	-7.782722	-5.454805	4.461732	0.017376	-0.381551	-0.339716	0.859482
41707	-7.393149	-5.474026	4.417858	0.023506	-0.380369	-0.345488	0.857558
41708	-7.083696	-5.730756	4.556882	0.030546	-0.380100	-0.350419	0.855452
41709	-7.150987	-6.067212	4.734008	0.038292	-0.380930	-0.354148	0.853232
41710	-7.397814	-6.121773	5.087138	0.046526	-0.382783	-0.356667	0.850942
41711	-7.712949	-6.006674	5.376015	0.054393	-0.385491	-0.359083	0.848232
41712	-8.036085	-6.290429	5.688065	0.061658	-0.389083	-0.361907	0.844888
41713	-8.305110	-7.018129	5.774331	0.068403	-0.393331	-0.364365	0.841338
41714	-8.548504	-7.450700	5.504434	0.074503	-0.398196	-0.365413	0.838071
41715	-8.913661	-7.414034	5.218795	0.080503	-0.403420	-0.364254	0.835518
41716	-9.044062	-7.011868	5.007033	0.086856	-0.408386	-0.361714	0.833571
41717	-8.891141	-6.349492	4.942289	0.093506	-0.412292	-0.358471	0.832328
41718	-8.403636	-5.563095	4.853477	0.100320	-0.414743	-0.355268	0.831690
41719	-7.677043	-5.070735	4.754329	0.106694	-0.415740	-0.352758	0.831468
41720	-7.328024	-4.787116	4.615998	0.112351	-0.415636	-0.350468	0.831743
41721	-6.919443	-5.013354	4.481063	0.117502	-0.414651	-0.349046	0.832121
41722	-6.244302	-5.088964	3.711197	0.121846	-0.413677	-0.348523	0.832200
41723	-6.667982	-5.683438	3.948416	0.125272	-0.411777	-0.347624	0.833009
41724	-6.533493	-6.407545	3.903189	0.128053	-0.409114	-0.346412	0.834402
41725	-6.563308	-7.600911	3.868532	0.130388	-0.405571	-0.344260	0.836658
41726	-6.773980	-8.152908	3.407501	0.132668	-0.399631	-0.339782	0.840977
41727	-6.120609	-6.808556	3.584796	0.136281	-0.392245	-0.331056	0.847333
41728	-5.488135	-5.282195	4.433797	0.139454	-0.385373	-0.323357	0.852925
41729	-5.218049	-5.163549	4.268872	0.140975	-0.379829	-0.318743	0.856889
41730	-5.805945	-6.047553	4.173346	0.141010	-0.375455	-0.315964	0.859835
41731	-6.186775	-7.866294	3.839993	0.140476	-0.370989	-0.313665	0.862698
41732	-6.293890	-8.391390	3.729404	0.140576	-0.365331	-0.308643	0.866898
41733	-5.871001	-7.535686	4.028988	0.140710	-0.359577	-0.302408	0.871467
41734	-5.851061	-7.159387	4.139320	0.140369	-0.354013	-0.297295	0.875549
41735	-5.720482	-7.252888	4.175054	0.140214	-0.348094	-0.292979	0.879394
41736	-5.386539	-7.418685	4.100203	0.140677	-0.342186	-0.288079	0.883249
41737	-5.113069	-7.538495	3.911892	0.142161	-0.336016	-0.282020	0.887326
41738	-5.005114	-7.230618	4.336012	0.144713	-0.329191	-0.274105	0.891941
41739	-4.459670	-6.074885	5.093411	0.147875	-0.322074	-0.265426	0.896633
41740	-3.839686	-5.423681	5.063338	0.150006	-0.316265	-0.259434	0.900094
41741	-4.087055	-6.479942	4.727453	0.151716	-0.310987	-0.254177	0.903141
41742	-3.939727	-6.356520	4.958420	0.154033	-0.305819	-0.247515	0.906358
41743	-4.009167	-6.311898	5.702595	0.156220	-0.300972	-0.240790	0.909413
