// Start Time: Unknown
// Update Rate: 60.0Hz
// Filter Profile: human (46.1)
// Option Flags: AHS Disabled ICC Disabled 
// Firmware Version: 4.3.5
PacketCounter	Acc_X	Acc_Y	Acc_Z	Quat_q0	Quat_q1	Quat_q2	Quat_q3
39183	-1.025055	-1.871211	9.497537	0.589904	-0.016693	0.109316	-0.799866
39184	-1.015173	-1.896094	9.465628	0.589913	-0.016135	0.109239	-0.799881
39185	-1.060091	-1.793763	9.486136	0.589950	-0.015560	0.109186	-0.799872
39186	-1.047700	-1.705520	9.573822	0.589870	-0.015175	0.109529	-0.799891
39187	-0.988877	-1.877166	9.614911	0.589741	-0.014968	0.110088	-0.799914
39188	-1.005590	-2.007966	9.619834	0.589636	-0.014670	0.110451	-0.799947
39189	-1.005611	-1.887824	9.631895	0.589535	-0.014277	0.110662	-0.799999
39190	-1.052149	-1.885067	9.667198	0.589474	-0.014002	0.110926	-0.800012
39191	-1.035662	-1.868740	9.702051	0.589419	-0.013798	0.111199	-0.800018
39192	-1.073066	-1.942155	9.660654	0.589375	-0.013625	0.111458	-0.800018
39193	-1.119884	-2.002420	9.667156	0.589305	-0.013485	0.111703	-0.800038
39194	-1.047084	-2.025014	9.697630	0.589230	-0.013298	0.111870	-0.800072
39195	-1.099610	-2.011550	9.639448	0.589212	-0.013003	0.111840	-0.800095
39196	-1.136010	-1.888852	9.590552	0.589176	-0.012827	0.111854	-0.800123
39197	-1.097410	-1.903214	9.593874	0.589042	-0.012787	0.112040	-0.800195
39198	-1.075962	-2.049012	9.592608	0.588787	-0.012785	0.112335	-0.800342
39199	-1.092382	-2.138596	9.577763	0.588447	-0.012535	0.112390	-0.800588
39200	-1.108261	-1.985585	9.525409	0.588073	-0.012161	0.112242	-0.800889
39201	-1.071040	-1.961721	9.485318	0.587759	-0.011796	0.112091	-0.801147
39202	-1.133520	-1.884794	9.489401	0.587487	-0.011481	0.111974	-0.801367
39203	-1.084255	-1.728523	9.476443	0.587244	-0.011283	0.111973	-0.801548
39204	-1.088786	-1.790492	9.447606	0.587069	-0.011346	0.112238	-0.801638
39205	-1.146219	-1.974408	9.387018	0.586925	-0.011213	0.112310	-0.801736
39206	-1.050055	-1.871857	9.398561	0.586719	-0.010918	0.112291	-0.801893
39207	-1.108903	-1.829288	9.403048	0.586532	-0.010594	0.112245	-0.802040
39208	-1.104744	-1.888503	9.405751	0.586331	-0.010113	0.112137	-0.802209
39209	-1.112661	-1.711540	9.520274	0.586053	-0.009549	0.112015	-0.802436
39210	-1.187823	-1.642807	9.532388	0.585811	-0.009177	0.112144	-0.802599
39211	-1.117684	-1.739314	9.477094	0.585691	-0.008967	0.112380	-0.802656
39212	-1.179624	-1.834599	9.463486	0.585678	-0.008729	0.112582	-0.802640
39213	-1.205076	-1.817862	9.598143	0.585687	-0.008368	0.112692	-0.802621
39214	-1.132636	-1.782269	9.580369	0.585748	-0.007918	0.112576	-0.802598
39215	-1.176193	-1.770126	9.455125	0.585939	-0.007401	0.112279	-0.802505
39216	-1.155434	-1.630440	9.470094	0.586132	-0.006968	0.112084	-0.802395
39217	-1.122839	-1.473897	9.489502	0.586295	-0.006751	0.112213	-0.802260
39218	-1.231291	-1.623705	9.506757	0.586424	-0.006738	0.112766	-0.802088
39219	-1.146664	-1.863018	9.518996	0.586507	-0.006669	0.113336	-0.801947
39220	-1.161940	-1.951483	9.558082	0.586629	-0.006294	0.113515	-0.801836
39221	-1.244568	-1.814556	9.503108	0.586851	-0.005827	0.113531	-0.801675
39222	-1.175832	-1.735762	9.400882	0.587187	-0.005394	0.113513	-0.801434
39223	-1.231353	-1.690108	9.458670	0.587678	-0.005192	0.113591	-0.801065
39224	-1.249769	-1.580091	9.630326	0.588013	-0.005081	0.113971	-0.800766
39225	-1.143602	-1.653506	9.635782	0.588231	-0.005387	0.114788	-0.800486
39226	-1.233404	-1.937466	9.473197	0.588442	-0.005645	0.115582	-0.800216
39227	-1.231864	-2.016458	9.374343	0.588641	-0.005617	0.116081	-0.799997
39228	-1.232853	-1.814806	9.334604	0.588885	-0.005325	0.116293	-0.799788
39229	-1.276131	-1.408655	9.281251	0.589200	-0.005370	0.116875	-0.799472
39230	-1.146234	-1.245254	9.086470	0.589380	-0.006225	0.118434	-0.799103
39231	-1.126359	-1.507518	8.850171	0.589301	-0.007478	0.120958	-0.798772
39232	-1.043853	-2.080285	8.751885	0.589095	-0.008418	0.123502	-0.798525
39233	-1.095308	-2.414219	8.715706	0.588849	-0.007991	0.125035	-0.798473
39234	-1.247675	-2.243044	8.760296	0.588665	-0.006419	0.125659	-0.798525
39235	-1.267498	-1.835113	8.771895	0.588529	-0.004632	0.126216	-0.798550
39236	-1.220599	-1.717112	8.604723	0.588461	-0.003220	0.127331	-0.798429
39237	-1.348313	-1.740741	8.390635	0.588370	-0.002102	0.129071	-0.798221
39238	-1.310877	-1.993401	8.273616	0.588354	-0.001115	0.131244	-0.797881
39239	-1.282183	-2.161765	8.322446	0.588434	0.000639	0.133199	-0.797498
39240	-1.411716	-1.990699	8.283117	0.588580	0.003095	0.134906	-0.797097
39241	-1.572079	-1.812298	8.417005	0.588668	0.005991	0.136732	-0.796705
39242	-1.853010	-1.861070	8.803022	0.588541	0.009007	0.138941	-0.796388
39243	-1.808857	-1.887533	8.964401	0.588242	0.012271	0.141336	-0.796144
39244	-1.772365	-2.148619	9.042326	0.588095	0.015558	0.143915	-0.795733
39245	-2.146633	-2.031006	9.187605	0.588047	0.018846	0.146611	-0.795205
39246	-2.494492	-2.303308	9.738524	0.588013	0.021625	0.149893	-0.794547
39247	-2.597944	-2.672412	10.339890	0.587829	0.024308	0.153169	-0.793981
39248	-2.456818	-2.839155	10.951199	0.587530	0.027008	0.155973	-0.793569
39249	-2.912785	-2.935017	11.525129	0.587225	0.029384	0.158310	-0.793247
39250	-2.798349	-2.781430	11.753850	0.586803	0.031038	0.160292	-0.793098
39251	-2.710413	-2.639747	11.602295	0.586259	0.031551	0.162365	-0.793059
39252	-2.708860	-2.603194	10.979629	0.585596	0.031365	0.164221	-0.793174
39253	-2.589288	-2.437430	10.114449	0.584993	0.030721	0.165589	-0.793360
39254	-2.324480	-2.196567	8.901377	0.584553	0.030544	0.165942	-0.793617
39255	-2.356566	-1.736867	8.154923	0.584718	0.030732	0.165901	-0.793497
39256	-2.652757	-1.197095	8.181703	0.585426	0.030781	0.166263	-0.792897
39257	-2.331339	-1.276093	8.025080	0.586255	0.030179	0.167626	-0.792020
39258	-1.998590	-1.295666	7.594784	0.586957	0.029792	0.169630	-0.791087
39259	-2.038972	-1.087119	7.345324	0.587790	0.030045	0.172118	-0.789922
39260	-2.157691	-0.884637	7.108083	0.588935	0.030710	0.175131	-0.788379
39261	-2.190463	-1.041209	6.563134	0.590296	0.031461	0.178935	-0.786475
39262	-2.142497	-1.455010	6.059919	0.591948	0.032910	0.183026	-0.784230
39263	-2.480233	-1.479089	6.015354	0.593965	0.035471	0.187042	-0.781641
39264	-3.035917	-1.643252	6.281928	0.596242	0.039150	0.191014	-0.778766
39265	-3.022406	-1.832452	6.506215	0.598897	0.043816	0.194809	-0.775533
39266	-2.983027	-1.636738	6.518130	0.601945	0.049383	0.198557	-0.771880
39267	-3.150973	-1.447306	6.616067	0.605292	0.055218	0.203221	-0.767642
39268	-3.934958	-1.501072	7.200897	0.608704	0.060932	0.209078	-0.762924
39269	-4.617600	-1.850262	7.344708	0.612207	0.065969	0.216019	-0.757750
39270	-4.469947	-2.570730	7.190168	0.616207	0.070868	0.222742	-0.752099
39271	-4.178703	-3.119558	6.627032	0.620161	0.077478	0.227736	-0.746682
39272	-4.102636	-3.007751	6.101364	0.623449	0.086920	0.230842	-0.741935
39273	-5.475762	-2.066728	7.793164	0.626246	0.097317	0.234431	-0.737148
39274	-6.414555	-1.525366	8.371290	0.628518	0.107148	0.238518	-0.732526
39275	-5.799485	-2.354999	7.765554	0.630830	0.116397	0.242569	-0.727781
39276	-5.442159	-1.989334	6.262492	0.633418	0.127116	0.245668	-0.722683
39277	-5.828057	-1.794732	5.073357	0.636886	0.139377	0.248661	-0.716322
39278	-7.417647	-1.721939	6.429735	0.641145	0.151688	0.252499	-0.708638
39279	-7.999885	-1.246068	7.287055	0.645252	0.162973	0.255262	-0.701378
39280	-7.331807	-0.781334	7.307978	0.649175	0.173072	0.257890	-0.694342
39281	-6.883227	-0.013276	6.237171	0.653699	0.183295	0.260511	-0.686451
39282	-7.372734	0.039940	5.109394	0.659452	0.194025	0.263480	-0.676798
39283	-7.896713	-0.031565	4.534574	0.666227	0.205657	0.267115	-0.665204
39284	-8.357107	0.301624	4.426499	0.672980	0.217832	0.271819	-0.652504
39285	-8.891621	1.104058	4.705754	0.679090	0.229855	0.277165	-0.639674
39286	-8.632148	2.018645	4.484298	0.684784	0.240725	0.284743	-0.626134
39287	-8.811051	1.881997	4.577417	0.690549	0.250724	0.294758	-0.611063
39288	-9.290442	1.282468	5.028140	0.696044	0.261448	0.305914	-0.594630
39289	-9.694873	0.626595	5.918728	0.700638	0.273064	0.317465	-0.577718
39290	-9.009789	0.497485	6.283741	0.703446	0.285536	0.328687	-0.561781
39291	-8.417870	1.654029	6.340791	0.703935	0.299159	0.340887	-0.546604
39292	-9.203171	2.664534	6.011348	0.703161	0.312400	0.355140	-0.530891
39293	-10.852733	2.562398	7.095663	0.702955	0.322756	0.371782	-0.513284
39294	-11.181277	0.921673	7.687874	0.704157	0.329231	0.388584	-0.494744
39295	-10.675467	0.054359	7.593768	0.705466	0.334891	0.403913	-0.476466
39296	-10.246946	0.974642	7.294636	0.706704	0.339944	0.418900	-0.457744
39297	-10.745088	1.815654	7.164576	0.708518	0.342968	0.434972	-0.437236
39298	-12.389694	1.376083	7.326974	0.711588	0.342957	0.451456	-0.414983
39299	-12.915794	0.096622	6.992362	0.716313	0.340104	0.466411	-0.392028
39300	-12.213689	-0.949887	6.241752	0.721735	0.336620	0.478883	-0.369399
39301	-11.844818	-0.689793	5.862671	0.727236	0.333860	0.488834	-0.347429
39302	-11.915426	-0.233119	5.382163	0.733049	0.331165	0.496742	-0.325907
39303	-11.587084	-0.022589	4.905138	0.739405	0.327755	0.502979	-0.304743
39304	-11.368922	0.019858	4.505287	0.746035	0.323727	0.507858	-0.284102
39305	-11.238251	-0.234610	4.155061	0.752569	0.319469	0.511359	-0.264747
39306	-10.926924	-0.511429	3.773818	0.758603	0.315841	0.513324	-0.247516
39307	-10.723142	-0.585357	3.284168	0.763797	0.313542	0.513863	-0.232916
39308	-10.612440	-0.426756	2.846416	0.768164	0.312565	0.513227	-0.220964
39309	-10.673743	-0.409874	2.542664	0.771969	0.312509	0.511534	-0.211506
39310	-10.472789	-0.349143	2.242465	0.775159	0.313577	0.508879	-0.204550
39311	-10.214235	-0.098310	1.972226	0.777763	0.315817	0.505359	-0.199892
39312	-10.057397	0.132451	1.794226	0.780034	0.318740	0.501138	-0.197009
39313	-10.298934	0.137843	1.711910	0.781769	0.322513	0.496523	-0.195671
39314	-10.734175	0.259115	1.675465	0.783001	0.327011	0.491573	-0.195779
39315	-10.779001	0.535757	1.892446	0.783722	0.331773	0.486637	-0.197209
39316	-10.644009	0.870393	2.166486	0.783955	0.336221	0.482233	-0.199554
39317	-10.205794	0.808404	2.277741	0.783340	0.340754	0.478731	-0.202685
39318	-10.152405	1.100246	2.347857	0.781241	0.346548	0.476126	-0.207054
39319	-10.471096	1.866643	2.476701	0.778214	0.352287	0.474676	-0.212034
39320	-10.788491	2.508078	2.945547	0.774973	0.356895	0.474114	-0.217390
39321	-10.714650	2.868625	3.311234	0.771814	0.360206	0.474218	-0.222873
39322	-9.992840	2.700915	3.411048	0.768705	0.362403	0.474946	-0.228435
39323	-9.046517	2.375905	3.275278	0.764827	0.364914	0.476285	-0.234585
39324	-8.461379	2.496728	2.912566	0.759490	0.368596	0.478603	-0.241354
39325	-8.513525	2.825920	2.944844	0.753064	0.372883	0.481725	-0.248585
39326	-8.737111	3.294458	3.208267	0.746269	0.376586	0.485478	-0.256080
39327	-8.548605	3.654726	3.278295	0.739597	0.379269	0.489493	-0.263719
39328	-8.113406	3.712742	3.173213	0.732852	0.381313	0.493735	-0.271578
39329	-7.574055	3.810038	2.988533	0.725503	0.383883	0.498089	-0.279619
39330	-7.355308	3.879954	3.004506	0.717428	0.387295	0.502558	-0.287637
39331	-7.654144	4.043124	3.304189	0.708782	0.391286	0.506823	-0.296063
39332	-8.078922	4.382199	3.527007	0.700116	0.394915	0.510899	-0.304732
39333	-8.188362	4.515156	3.604388	0.692085	0.397411	0.514777	-0.313190
39334	-7.875212	4.126026	3.733530	0.684867	0.399006	0.518373	-0.320999
39335	-7.173243	3.581838	3.975151	0.677943	0.400664	0.521594	-0.328331
39336	-6.627154	3.707858	4.259833	0.670395	0.403535	0.524399	-0.335760
39337	-6.450638	4.138295	4.261260	0.662434	0.406851	0.527297	-0.342945
39338	-6.517527	4.405171	4.430141	0.655023	0.409174	0.530613	-0.349243
39339	-6.866502	4.271639	4.558658	0.648417	0.410184	0.534467	-0.354472
39340	-7.046257	3.916133	4.711776	0.642645	0.410119	0.538726	-0.358586
39341	-7.477145	3.670045	4.790415	0.637347	0.409969	0.542884	-0.361926
39342	-7.821254	3.592807	4.600035	0.632741	0.410042	0.546620	-0.364294
39343	-7.974638	3.458186	4.224118	0.628824	0.410457	0.549913	-0.365652
39344	-7.827720	3.639744	4.108672	0.625610	0.411076	0.552762	-0.366174
39345	-7.847831	4.142827	4.288645	0.623526	0.411280	0.555351	-0.365582
39346	-8.260665	4.303141	4.411811	0.622954	0.410708	0.557611	-0.363756
39347	-8.861911	4.030744	4.296977	0.624091	0.409607	0.559107	-0.360738
39348	-9.130073	3.625848	3.896392	0.626378	0.409215	0.559208	-0.357044
39349	-9.135899	3.803665	3.583740	0.629652	0.410148	0.557562	-0.352763
39350	-8.610149	4.461765	3.548085	0.634367	0.411466	0.554803	-0.347084
39351	-8.351216	5.190489	3.444512	0.640497	0.412696	0.551221	-0.340001
39352	-8.833151	5.776392	3.235362	0.648298	0.413479	0.546685	-0.331482
39353	-9.525363	5.945525	2.796308	0.657946	0.413670	0.540894	-0.321586
39354	-9.777662	5.822700	2.369565	0.669149	0.413796	0.533586	-0.310320
39355	-9.535310	5.411813	2.259147	0.681395	0.414589	0.524402	-0.298026
39356	-9.503112	5.877832	2.555115	0.693962	0.416620	0.513475	-0.284936
39357	-9.476066	6.727997	2.681453	0.707876	0.417907	0.501354	-0.270017
39358	-9.651365	7.157370	2.488213	0.723314	0.417514	0.488271	-0.253159
39359	-10.495369	7.222545	2.066697	0.739036	0.416538	0.474037	-0.235820
39360	-10.738427	7.141794	1.841896	0.755080	0.414869	0.458454	-0.218079
39361	-9.907679	6.305422	2.245192	0.770755	0.413777	0.441473	-0.199566
39362	-9.107023	6.551370	2.745202	0.784713	0.414840	0.423615	-0.180787
39363	-9.920234	8.169351	2.905201	0.797861	0.415556	0.405586	-0.161962
39364	-10.610592	8.246975	2.426682	0.812143	0.412301	0.387353	-0.142791
39365	-10.182374	7.351220	2.130835	0.826845	0.406834	0.368290	-0.123190
39366	-9.494398	6.249066	2.385905	0.840141	0.402290	0.348764	-0.103387
39367	-8.758208	6.271708	2.873290	0.851133	0.400175	0.329178	-0.084108
39368	-8.820710	7.718772	3.390047	0.860778	0.398223	0.310123	-0.065597
39369	-9.531547	8.123012	3.026623	0.870391	0.393819	0.291499	-0.048517
39370	-9.326617	7.533687	2.902638	0.880163	0.387299	0.272457	-0.032845
39371	-8.200627	6.568592	2.829198	0.888864	0.381391	0.253253	-0.018038
39372	-7.248784	6.100941	3.165131	0.895418	0.378466	0.234464	-0.004052
39373	-6.726809	6.765300	3.617307	0.900287	0.377744	0.216125	0.009153
39374	-6.507776	7.431923	3.916037	0.904792	0.376404	0.197995	0.021663
39375	-6.187777	7.419338	3.895469	0.909471	0.373334	0.179928	0.033325
39376	-5.567769	6.910319	3.642093	0.914159	0.368919	0.162093	0.044011
39377	-4.801791	6.050883	3.597856	0.918132	0.364880	0.144929	0.053778
39378	-4.127736	5.649836	3.766167	0.920798	0.362824	0.128758	0.062537
39379	-3.654369	6.077071	4.083087	0.922134	0.363038	0.113617	0.070451
39380	-3.357360	6.513605	4.377480	0.922886	0.363829	0.099298	0.077777
39381	-2.968888	6.622430	4.643902	0.923571	0.364121	0.085630	0.084261
39382	-2.589978	6.454559	4.651696	0.924375	0.363631	0.072658	0.089582
39383	-2.385930	6.184051	4.804470	0.925108	0.362986	0.060422	0.093627
39384	-2.002284	6.136711	4.731733	0.925517	0.362875	0.048871	0.096702
39385	-1.463242	5.856937	5.004263	0.925503	0.363556	0.037923	0.099159
39386	-0.867162	5.683235	5.150771	0.924879	0.365447	0.028015	0.101305
39387	-0.546140	5.432229	5.475572	0.924001	0.367801	0.018792	0.102912
39388	0.031886	5.392434	5.747430	0.923123	0.370034	0.010179	0.104000
39389	0.773696	5.616299	5.885586	0.922514	0.371521	0.002027	0.104572
39390	1.454374	5.655720	6.004101	0.922475	0.371498	-0.005284	0.104890
39391	1.990958	5.281635	6.172755	0.922649	0.370890	-0.011598	0.104994
39392	2.145641	5.656909	6.621809	0.922563	0.370938	-0.016835	0.104880
39393	2.002731	6.336070	6.812236	0.922534	0.370901	-0.021545	0.104399
39394	1.972775	6.744483	6.949838	0.922756	0.370396	-0.025367	0.103364
39395	1.702082	6.500784	6.848415	0.923428	0.369022	-0.028127	0.101546
39396	1.784613	5.816952	6.852592	0.924162	0.367738	-0.029486	0.099118
39397	1.792601	5.613507	6.877149	0.924728	0.367093	-0.029168	0.096282
39398	2.031278	5.667520	6.862175	0.925528	0.366064	-0.026929	0.093116
39399	2.242564	5.416686	6.827790	0.926739	0.364165	-0.022638	0.089590
39400	2.024881	5.458974	7.108066	0.928164	0.361836	-0.015731	0.085671
39401	1.192959	6.038821	7.160502	0.929674	0.359310	-0.006002	0.081037
39402	-0.435178	6.850154	7.208860	0.931129	0.356765	0.006127	0.075370
39403	-2.275475	6.999633	7.308830	0.932561	0.353880	0.020121	0.068522
39404	-4.002867	7.010491	7.259177	0.933583	0.351411	0.035670	0.060507
39405	-5.406604	7.626288	7.259078	0.933897	0.349810	0.052817	0.051764
39406	-6.240271	7.616516	6.812611	0.933919	0.347687	0.071502	0.042380
39407	-6.578064	7.035261	6.442727	0.933190	0.346050	0.091481	0.032191
39408	-6.399715	6.421250	5.926478	0.931331	0.345411	0.113347	0.021614
39409	-6.223398	6.048010	5.460320	0.928453	0.345069	0.137100	0.010331
39410	-6.259219	6.254038	5.251666	0.924523	0.344756	0.162471	-0.001822
39411	-6.906316	6.314279	5.326309	0.919903	0.343476	0.188690	-0.014099
39412	-7.895216	5.822186	5.426740	0.914609	0.341266	0.215320	-0.025796
39413	-8.648689	5.122729	5.239065	0.908733	0.338427	0.241518	-0.036605
39414	-8.513115	4.456485	4.740259	0.901744	0.335862	0.268093	-0.046707
39415	-8.785688	4.468811	4.327126	0.893065	0.334297	0.295673	-0.057081
39416	-9.953953	5.335633	4.311511	0.883050	0.333455	0.323058	-0.068285
39417	-10.443086	5.890385	4.388124	0.873182	0.330653	0.349145	-0.079499
39418	-10.288980	5.097016	4.347914	0.863834	0.325572	0.373782	-0.089897
39419	-10.096191	3.958866	4.433724	0.853512	0.321964	0.397244	-0.100272
39420	-10.397565	3.974535	4.402489	0.841756	0.321373	0.419291	-0.111183
39421	-10.222556	4.020148	4.013463	0.829382	0.321814	0.439965	-0.122444
39422	-9.954369	3.990830	3.567153	0.816368	0.323192	0.459408	-0.134293
39423	-10.033770	4.737580	3.672631	0.803192	0.324788	0.477476	-0.146327
39424	-9.889696	4.943989	3.747509	0.790963	0.325110	0.493766	-0.157725
39425	-9.506088	4.118515	3.722338	0.779515	0.324762	0.508315	-0.168825
39426	-9.143896	3.601762	3.365245	0.767817	0.325824	0.521218	-0.180630
39427	-8.921526	3.646481	2.927278	0.755520	0.329007	0.532529	-0.193280
39428	-8.765630	4.058229	2.721347	0.742611	0.334030	0.542553	-0.206370
39429	-8.603332	4.545184	2.944601	0.729840	0.339195	0.551608	-0.219110
39430	-8.477410	4.565495	3.176817	0.717890	0.343298	0.559718	-0.231294
39431	-8.520237	4.609051	3.120101	0.706588	0.346737	0.566930	-0.243099
39432	-8.834996	4.505307	2.897753	0.696054	0.349606	0.573277	-0.254240
39433	-8.863735	3.748021	2.618409	0.686136	0.352638	0.578483	-0.264993
39434	-8.221025	3.456038	2.745257	0.676115	0.357016	0.582452	-0.275966
39435	-7.659590	3.779572	3.160951	0.666064	0.362361	0.585394	-0.286994
39436	-7.287943	4.038505	3.652674	0.656569	0.367272	0.587877	-0.297371
39437	-6.921461	3.966446	3.766905	0.647704	0.371477	0.590104	-0.307020
39438	-6.988079	3.742150	3.692522	0.639337	0.375251	0.592139	-0.315920
39439	-7.008809	3.461589	3.747319	0.631819	0.378639	0.593731	-0.323916
39440	-6.838686	3.171308	3.957543	0.625080	0.381956	0.594702	-0.331231
39441	-6.438632	2.996500	4.160398	0.618998	0.385321	0.595143	-0.337895
39442	-5.760338	3.134015	4.653186	0.613419	0.388651	0.595374	-0.343798
39443	-5.483624	3.520072	5.094496	0.608051	0.391579	0.596022	-0.348852
39444	-6.247774	3.768967	5.213631	0.603076	0.393762	0.597166	-0.353048
39445	-7.589873	3.372354	4.972087	0.599050	0.395026	0.598561	-0.356116
39446	-8.172729	2.858044	4.761418	0.595638	0.396078	0.599937	-0.358349
39447	-8.357710	3.331338	4.935545	0.592152	0.397722	0.601176	-0.360223
39448	-9.187004	4.283525	4.953671	0.589375	0.398880	0.602730	-0.360899
39449	-10.966872	4.127113	4.347738	0.588597	0.398562	0.604556	-0.359463
39450	-12.409119	2.900269	3.243908	0.590384	0.397273	0.605886	-0.355701
39451	-12.094451	1.752819	2.580899	0.593845	0.396837	0.605876	-0.350404
39452	-10.472899	2.059200	2.518057	0.597984	0.397818	0.604558	-0.344479
39453	-8.688957	3.177026	2.971531	0.603523	0.398437	0.602623	-0.337421
39454	-8.161668	3.472749	2.907875	0.610914	0.397581	0.600280	-0.329207
39455	-8.461962	3.382260	2.507404	0.619648	0.396148	0.596724	-0.320974
39456	-9.239164	4.002760	2.283807	0.630136	0.394473	0.591737	-0.311715
39457	-9.963664	4.011914	2.328154	0.642867	0.392712	0.584940	-0.300573
39458	-9.779054	3.794983	2.562419	0.657114	0.391213	0.576071	-0.288609
39459	-9.928920	4.880002	2.515667	0.672087	0.389785	0.565493	-0.276738
39460	-11.260077	6.207756	2.016462	0.687891	0.387821	0.553056	-0.265577
39461	-12.417269	7.298401	1.585501	0.704785	0.384829	0.538716	-0.254893
39462	-12.453468	7.568456	1.392271	0.723204	0.380431	0.522612	-0.243154
39463	-12.238049	6.874708	1.635524	0.741634	0.377044	0.504761	-0.230292
39464	-12.628787	6.972468	2.296737	0.758911	0.376054	0.485153	-0.217404
39465	-13.684330	8.131057	2.530811	0.776131	0.374208	0.464715	-0.204032
39466	-13.741583	8.205987	2.266570	0.794317	0.369121	0.443748	-0.189466
39467	-13.223703	7.576605	2.230738	0.812234	0.363007	0.422122	-0.174112
39468	-12.525312	6.932472	2.160059	0.828716	0.357677	0.400209	-0.158524
39469	-11.803447	6.635292	2.490423	0.843232	0.354154	0.378169	-0.143257
39470	-11.863587	6.855418	2.958621	0.855992	0.352124	0.356043	-0.128526
39471	-11.041628	7.203899	3.198828	0.867979	0.349333	0.334131	-0.113736
39472	-9.669692	6.859679	3.254749	0.879512	0.345050	0.312625	-0.098307
39473	-8.497178	6.470611	3.473656	0.890114	0.340255	0.291810	-0.082286
39474	-7.851508	6.341794	3.793091	0.899462	0.335775	0.271779	-0.066019
39475	-7.867266	6.412095	3.850447	0.907686	0.331529	0.252362	-0.050090
39476	-8.211304	5.977604	3.846681	0.915242	0.326860	0.232941	-0.035114
39477	-7.606504	5.682175	3.551351	0.922132	0.322185	0.213117	-0.021237
39478	-6.513122	5.595556	3.302743	0.928288	0.317667	0.193152	-0.007843
39479	-5.617417	5.119566	3.380578	0.933615	0.313627	0.173133	0.005165
39480	-4.891541	4.841189	3.651207	0.937591	0.311511	0.153586	0.017205
39481	-4.579627	5.240472	3.625251	0.940333	0.311194	0.134755	0.027819
39482	-4.557559	5.560443	3.535147	0.942482	0.311107	0.116558	0.036810
39483	-4.539812	5.499039	3.549233	0.944347	0.310532	0.099000	0.044461
39484	-4.158681	5.121497	3.598610	0.945713	0.310151	0.082472	0.051299
39485	-3.710286	4.774705	3.721993	0.946364	0.310751	0.067305	0.057433
39486	-3.383985	4.706119	4.056345	0.946390	0.312271	0.053437	0.063060
39487	-3.014681	4.668070	4.306260	0.946075	0.314080	0.040766	0.068071
39488	-2.391962	4.484721	4.366766	0.945660	0.315636	0.029314	0.072402
39489	-1.846551	4.388646	4.608932	0.945206	0.316919	0.019272	0.076004
39490	-1.494233	4.457585	4.937226	0.944696	0.318128	0.010831	0.078909
39491	-1.252372	4.414396	5.263844	0.944200	0.319200	0.004119	0.081117
39492	-1.032090	4.509478	5.495843	0.943665	0.320430	-0.000801	0.082590
39493	-0.851338	4.483294	5.838241	0.943081	0.321875	-0.003832	0.083542
39494	-0.676225	4.854324	6.362416	0.942486	0.323456	-0.005022	0.084087
39495	-0.470956	5.250549	6.922531	0.942129	0.324527	-0.004771	0.083977
39496	-0.382653	5.865258	7.666561	0.941962	0.325303	-0.003110	0.082925
39497	-1.104490	6.497434	8.239439	0.941912	0.325987	0.000265	0.080830
39498	-1.732117	6.432310	8.633463	0.941963	0.326530	0.004734	0.077855
39499	-2.270134	6.157917	9.047228	0.941672	0.327968	0.010209	0.074745
39500	-2.695979	6.313041	9.384224	0.941113	0.329978	0.016221	0.071813
39501	-3.043570	6.503211	9.518334	0.940738	0.331345	0.022179	0.068779
39502	-3.309604	6.364879	9.510559	0.940814	0.331410	0.027554	0.065392
39503	-3.579056	6.295141	9.516535	0.940909	0.331417	0.032681	0.061521
39504	-4.129218	6.620282	9.414187	0.940867	0.331806	0.037931	0.056882
39505	-4.378514	6.258805	8.931830	0.940917	0.331962	0.042530	0.051644
39506	-4.279606	5.866141	8.465496	0.940639	0.333020	0.046131	0.046563
39507	-4.507607	6.473309	8.147591	0.940010	0.335079	0.048648	0.041664
39508	-5.208537	7.495067	7.813557	0.939707	0.336381	0.049838	0.036266
39509	-5.692090	7.640026	7.438104	0.939985	0.336237	0.049841	0.029826
39510	-5.434764	6.839277	7.198730	0.940205	0.336290	0.049239	0.022333
39511	-4.798400	6.345845	6.955754	0.939727	0.338268	0.047942	0.013795
39512	-4.017935	6.360057	6.820600	0.938849	0.341264	0.045635	0.004323
39513	-3.066323	6.179842	6.542388	0.937900	0.344245	0.042509	-0.005556
39514	-2.451374	5.818693	6.463581	0.936990	0.346842	0.038883	-0.015430
39515	-2.235377	5.524775	6.749888	0.935971	0.349405	0.035220	-0.025187
39516	-1.919378	5.385607	6.975708	0.935011	0.351476	0.031223	-0.035281
39517	-1.104309	5.228064	6.863953	0.934193	0.352748	0.027187	-0.045961
39518	-0.135274	5.304588	6.737285	0.933251	0.353946	0.023636	-0.056621
39519	0.547646	5.628523	6.689203	0.931976	0.355685	0.021030	-0.066840
39520	0.761138	6.106668	6.800423	0.930498	0.357648	0.019310	-0.076738
39521	0.753606	6.641438	6.809464	0.929110	0.359063	0.018232	-0.086583
39522	0.837991	7.029043	6.630305	0.927952	0.359645	0.018031	-0.096102
39523	0.810902	7.144559	6.531169	0.926915	0.359872	0.018730	-0.104735
39524	0.892002	7.437195	6.718869	0.925837	0.360332	0.020109	-0.112175
39525	0.852984	7.663907	6.803097	0.924820	0.360865	0.021643	-0.118387
39526	0.806415	7.748973	6.795962	0.923980	0.361276	0.022938	-0.123348
39527	0.749415	7.779670	6.714722	0.923406	0.361372	0.023794	-0.127143
39528	0.793741	7.494907	6.720587	0.923098	0.361159	0.024244	-0.129871
39529	0.927572	7.168613	6.697225	0.922755	0.361430	0.024437	-0.131509
39530	0.960771	7.202467	6.863146	0.922342	0.362260	0.024363	-0.132135
39531	0.759700	7.391043	7.121818	0.922170	0.362753	0.024148	-0.132017
39532	0.489430	7.213783	7.288977	0.922310	0.362681	0.023824	-0.131298
39533	0.244540	7.107344	7.304689	0.922492	0.362744	0.023633	-0.129872
39534	-0.104443	7.367564	7.409018	0.922640	0.363090	0.023656	-0.127833
39535	-0.403478	7.638022	7.598208	0.922952	0.363145	0.023949	-0.125345
39536	-0.686400	7.536853	7.577461	0.923496	0.362711	0.024689	-0.122418
39537	-0.940765	7.400599	7.552432	0.924140	0.362119	0.025775	-0.119041
39538	-1.139928	7.407436	7.541841	0.924862	0.361383	0.027251	-0.115281
39539	-1.179156	7.347018	7.521934	0.925654	0.360479	0.029076	-0.111236
39540	-1.184436	7.272605	7.484626	0.926547	0.359325	0.031206	-0.106880
39541	-1.290950	7.130956	7.460253	0.927421	0.358215	0.033586	-0.102196
39542	-1.412579	7.156995	7.310473	0.928274	0.357154	0.036202	-0.097148
39543	-1.608540	7.140366	7.303218	0.929100	0.356158	0.038837	-0.091741
39544	-1.871523	7.138332	7.339314	0.929835	0.355378	0.041499	-0.085970
39545	-2.131098	7.075160	7.298452	0.930580	0.354550	0.044074	-0.079834
39546	-2.091112	6.919659	7.246073	0.931427	0.353394	0.046717	-0.073302
39547	-2.093361	6.701045	7.246904	0.932343	0.351958	0.049403	-0.066492
39548	-1.974403	6.302658	7.173218	0.933345	0.350175	0.052018	-0.059482
39549	-1.832200	5.837994	7.072436	0.934225	0.348594	0.054441	-0.052370
39550	-1.747764	5.708870	7.043435	0.934897	0.347439	0.056615	-0.045255
39551	-1.754026	5.770202	7.091963	0.935546	0.346199	0.058483	-0.038468
39552	-1.632653	5.686860	7.045422	0.936204	0.344817	0.059923	-0.032153
39553	-1.405313	5.470784	6.888550	0.936695	0.343766	0.061185	-0.026155
39554	-1.317227	5.675430	6.862182	0.936819	0.343593	0.062474	-0.020286
39555	-1.445317	6.181047	6.964791	0.936778	0.343737	0.063843	-0.014665
39556	-1.479024	6.382225	7.101863	0.936866	0.343431	0.065186	-0.009405
39557	-1.493093	6.374069	7.202741	0.936964	0.343006	0.066523	-0.004486
39558	-1.580844	6.416678	7.156657	0.936958	0.342777	0.067928	0.000250
39559	-1.617255	6.510092	7.286530	0.936862	0.342732	0.069291	0.004789
39560	-1.546858	6.656235	7.404920	0.936671	0.342837	0.070914	0.009056
39561	-1.580999	6.795606	7.570418	0.936454	0.342916	0.072761	0.013000
39562	-1.725672	6.664670	7.593739	0.936266	0.342865	0.074650	0.016656
39563	-1.631320	6.414068	7.546539	0.936052	0.342861	0.076464	0.020172
39564	-1.578952	6.489327	7.605379	0.935773	0.342963	0.078388	0.023695
39565	-1.590233	6.416261	7.781190	0.935710	0.342454	0.080217	0.027146
39566	-1.332547	6.193632	7.764533	0.935835	0.341402	0.081996	0.030557
39567	-1.139576	6.119920	7.730816	0.935943	0.340336	0.083823	0.034003
39568	-1.206589	6.187999	7.613946	0.936138	0.338985	0.085580	0.037563
39569	-1.202701	6.162120	7.494924	0.936524	0.337102	0.087186	0.041037
39570	-1.284219	6.248078	7.375996	0.936966	0.334991	0.088929	0.044364
39571	-1.449493	6.108129	7.364138	0.937545	0.332506	0.090557	0.047427
39572	-1.418156	5.982151	7.284465	0.938083	0.330168	0.092007	0.050237
39573	-1.512358	6.125230	7.254315	0.938551	0.328062	0.093331	0.052790
39574	-1.671078	6.169383	7.264771	0.939095	0.325835	0.094429	0.054911
39575	-1.998943	6.066675	7.267977	0.939652	0.323704	0.095339	0.056396
39576	-2.189803	5.933725	7.300194	0.940051	0.322157	0.095998	0.057476
39577	-2.406638	6.003049	7.474639	0.940286	0.321178	0.096477	0.058300
39578	-2.657847	5.922492	7.601257	0.940575	0.320182	0.096693	0.058756
39579	-2.804252	5.619990	7.495244	0.940926	0.319170	0.096500	0.058968
39580	-2.781454	5.400595	7.411850	0.941181	0.318543	0.095983	0.059129
39581	-2.894473	5.303569	7.495302	0.941343	0.318360	0.095103	0.058960
39582	-2.901232	5.558101	7.641698	0.941522	0.318261	0.094111	0.058224
39583	-3.027996	5.607473	7.731894	0.941862	0.317828	0.093139	0.056625
39584	-3.093449	5.383309	7.695658	0.942323	0.317192	0.092175	0.054031
39585	-3.105634	5.299629	7.629936	0.942670	0.317003	0.091187	0.050666
39586	-3.169420	5.374071	7.575529	0.942888	0.317256	0.090139	0.046749
39587	-3.199776	5.387888	7.557749	0.943153	0.317451	0.088846	0.042357
39588	-2.977094	5.231537	7.544238	0.943512	0.317473	0.087157	0.037409
39589	-2.538067	5.148311	7.537408	0.943830	0.317630	0.085344	0.031826
39590	-2.282673	5.192993	7.450884	0.944084	0.317911	0.083597	0.025471
39591	-2.130958	5.242495	7.300274	0.944280	0.318249	0.081953	0.018336
39592	-1.872678	5.182818	7.177159	0.944357	0.318769	0.080407	0.010565
39593	-1.567074	5.423447	7.233326	0.944201	0.319709	0.079157	0.002293
39594	-1.264476	5.695408	7.359680	0.943858	0.320894	0.078218	-0.006408
39595	-0.938599	6.065448	7.365097	0.943383	0.322091	0.077803	-0.015276
39596	-0.577730	6.362683	7.469216	0.942879	0.323001	0.078015	-0.023749
39597	-0.423647	6.468308	7.553857	0.942468	0.323431	0.078500	-0.031372
39598	-0.126816	6.527180	7.669277	0.942101	0.323722	0.078810	-0.037923
39599	0.016272	6.764588	7.724133	0.941727	0.324133	0.078850	-0.043245
39600	-0.076210	6.965622	7.709523	0.941422	0.324448	0.078673	-0.047631
39601	-0.394948	7.100388	7.608282	0.941121	0.324805	0.078370	-0.051489
39602	-0.869649	7.161377	7.363530	0.940807	0.325205	0.078052	-0.055053
39603	-1.290483	6.927827	7.129459	0.940478	0.325662	0.077728	-0.058343
39604	-1.816494	6.665077	6.945529	0.940033	0.326429	0.077506	-0.061447
39605	-2.327996	6.529432	6.717820	0.939533	0.327269	0.077519	-0.064532
39606	-2.750493	6.179614	6.205248	0.938988	0.328061	0.078033	-0.067740
39607	-3.196619	5.740921	5.567654	0.938306	0.328898	0.079591	-0.071227
39608	-3.608421	5.382129	4.976868	0.937413	0.329791	0.082659	-0.075243
39609	-3.894928	5.217106	4.410832	0.936177	0.330901	0.087574	-0.080048
39610	-4.117614	5.079854	3.886320	0.934518	0.332154	0.094680	-0.085935
39611	-4.304216	4.741483	3.456078	0.932324	0.333519	0.104181	-0.093182
39612	-4.419076	4.474905	3.106066	0.929361	0.335238	0.116153	-0.102037
39613	-4.596785	4.328440	2.928308	0.925541	0.337051	0.130753	-0.112580
39614	-4.923094	4.305856	3.033688	0.920713	0.338844	0.147951	-0.124832
39615	-5.223609	4.342412	3.139086	0.915073	0.339602	0.167613	-0.138627
39616	-5.407214	4.450493	3.179653	0.908657	0.338681	0.189708	-0.153780
39617	-6.159494	4.603415	3.435994	0.901284	0.336723	0.213443	-0.169548
39618	-6.699330	4.285959	3.437137	0.893158	0.333316	0.238408	-0.185289
39619	-7.057171	3.645055	3.329371	0.883921	0.329350	0.264291	-0.200904
39620	-7.196569	2.871631	2.940337	0.873080	0.325412	0.291313	-0.216738
39621	-7.200145	2.097763	2.681661	0.859695	0.322351	0.320305	-0.233278
39622	-7.594347	1.634138	2.680984	0.842891	0.321264	0.351183	-0.250986
39623	-9.002599	1.897947	2.871202	0.822565	0.321590	0.383321	-0.270244
39624	-10.767290	1.835885	2.980895	0.799406	0.322069	0.415165	-0.291308
39625	-12.386539	1.089144	2.703778	0.773421	0.323206	0.445181	-0.314915
39626	-13.902068	0.170509	2.158500	0.743956	0.327127	0.471597	-0.342218
39627	-15.260355	-0.385000	1.698007	0.711216	0.334328	0.493078	-0.373190
39628	-16.458699	-0.429624	1.524209	0.675642	0.345324	0.508747	-0.406737
39629	-16.363302	0.426239	1.673351	0.639611	0.358804	0.518375	-0.439825
39630	-15.694777	0.899185	2.341002	0.605605	0.372819	0.523352	-0.469416
39631	-14.501151	1.005533	3.749428	0.576460	0.386368	0.523651	-0.494169
39632	-13.690652	1.040612	3.702199	0.553838	0.398366	0.519765	-0.514210
39633	-12.475663	1.128648	3.402163	0.537547	0.407383	0.514195	-0.529797
39634	-12.009612	2.056413	3.036683	0.525080	0.414900	0.507710	-0.542567
39635	-11.313670	3.208233	2.695451	0.516018	0.420245	0.501532	-0.552798
39636	-10.486587	3.349284	2.446100	0.509457	0.423914	0.495645	-0.561325
39637	-9.737889	3.093575	2.099149	0.504040	0.427281	0.488776	-0.569625
39638	-9.178089	2.865373	1.863688	0.499011	0.431344	0.480040	-0.578354
39639	-8.850302	2.341147	1.539856	0.493887	0.436600	0.469030	-0.587764
39640	-8.825457	1.792470	1.348180	0.488308	0.443130	0.455559	-0.598044
39641	-9.010990	1.661426	1.138869	0.481916	0.451051	0.439498	-0.609222
39642	-9.420515	1.705236	0.909837	0.474945	0.459874	0.421488	-0.620718
39643	-9.773338	1.668897	0.681900	0.467578	0.469343	0.401842	-0.632148
39644	-10.058375	1.854145	0.582630	0.459699	0.479764	0.380489	-0.643219
39645	-10.110682	2.253386	0.805830	0.451807	0.490468	0.358439	-0.653324
39646	-9.839652	2.789704	1.373070	0.444418	0.500748	0.336866	-0.662015
39647	-9.585892	3.035537	2.120554	0.438348	0.509455	0.317050	-0.669168
39648	-9.344136	2.713514	2.879101	0.433819	0.516207	0.299455	-0.675025
39649	-9.097582	2.474480	3.321482	0.430361	0.521385	0.283822	-0.679994
39650	-8.834324	2.362588	3.622793	0.427866	0.525310	0.270416	-0.683999
39651	-8.460758	2.089500	3.940925	0.425937	0.528387	0.259427	-0.687083
39652	-8.117218	1.824162	4.292485	0.424176	0.530789	0.250741	-0.689540
39653	-7.759436	1.647639	4.676707	0.421992	0.532972	0.243785	-0.691689
39654	-7.555480	1.695878	4.910277	0.419022	0.535179	0.238199	-0.693732
39655	-7.735447	2.089561	5.045459	0.415191	0.537459	0.234288	-0.695603
39656	-8.358418	2.545284	5.083703	0.410826	0.539406	0.232624	-0.697244
39657	-8.892517	2.540064	5.005883	0.406386	0.540457	0.233665	-0.698683
39658	-9.098028	1.852445	4.775493	0.401829	0.540758	0.236702	-0.700062
39659	-9.183687	1.221529	4.477417	0.396741	0.541046	0.240285	-0.701519
39660	-9.152901	1.007945	4.236512	0.391183	0.541576	0.243632	-0.703075
39661	-9.273759	1.147089	4.021727	0.385731	0.542080	0.246771	-0.704603
39662	-9.586514	1.240331	3.669253	0.380988	0.542154	0.249794	-0.706060
39663	-9.767218	1.227074	3.330321	0.377271	0.541738	0.252620	-0.707368
39664	-9.820776	1.059558	3.062216	0.374504	0.541033	0.255024	-0.708515
39665	-9.786361	0.903040	2.870305	0.372382	0.540343	0.256506	-0.709624
39666	-9.778875	0.988773	2.733015	0.370873	0.539859	0.256803	-0.710675
39667	-9.776279	1.183334	2.676723	0.370316	0.539295	0.256331	-0.711562
39668	-9.541728	0.970226	2.554829	0.370821	0.538633	0.255781	-0.711999
39669	-9.606466	0.931248	2.145092	0.371753	0.538243	0.254916	-0.712118
39670	-9.687416	1.362354	2.191640	0.373269	0.537675	0.253457	-0.712275
39671	-9.684147	1.398251	2.339544	0.375802	0.536722	0.251473	-0.712365
39672	-9.617034	0.805625	2.431726	0.378744	0.535893	0.248388	-0.712513
39673	-9.438725	0.466819	2.404261	0.381034	0.535798	0.243679	-0.712989
39674	-9.263403	0.458131	2.423844	0.382373	0.536413	0.237677	-0.713836
39675	-9.087700	0.672521	2.400363	0.382894	0.537555	0.230691	-0.714988
39676	-8.748303	1.067731	2.232151	0.382957	0.539025	0.223486	-0.716135
39677	-8.675029	1.345584	2.159237	0.383059	0.540350	0.217143	-0.717034
39678	-8.879428	1.039757	2.272722	0.383431	0.541141	0.212349	-0.717673
39679	-8.947024	0.703907	2.349312	0.383706	0.541713	0.208592	-0.718196
39680	-8.970358	0.323335	2.477227	0.383705	0.542346	0.205086	-0.718729
39681	-8.932748	0.176255	2.502747	0.382925	0.543570	0.201328	-0.719283
39682	-9.012690	0.639499	2.587106	0.381273	0.545458	0.197566	-0.719774
39683	-9.172594	0.783578	2.776468	0.379388	0.547266	0.194991	-0.720099
39684	-9.420589	0.393847	2.973595	0.377266	0.548778	0.193434	-0.720484
39685	-9.124461	0.153739	2.973270	0.374658	0.550456	0.192353	-0.720853
39686	-9.070816	0.523723	3.283675	0.371684	0.552550	0.192005	-0.720884
39687	-9.143445	0.749863	3.680945	0.368885	0.554158	0.193288	-0.720745
39688	-8.974776	0.171217	3.781683	0.365887	0.555228	0.195816	-0.720767
39689	-8.821944	0.070097	3.670597	0.361859	0.556552	0.198365	-0.721082
39690	-8.865963	0.422267	3.533737	0.357180	0.558085	0.200981	-0.721506
39691	-9.140702	0.702853	3.515279	0.352238	0.559604	0.204171	-0.721863
39692	-9.463490	0.713955	3.414177	0.347234	0.560749	0.208250	-0.722233
39693	-9.515202	0.550444	3.387954	0.342218	0.561329	0.212961	-0.722803
39694	-9.329504	0.128894	3.378321	0.336857	0.561653	0.217713	-0.723653
39695	-9.168352	-0.338714	3.308679	0.330392	0.562270	0.221751	-0.724928
39696	-9.272626	-0.073553	3.016567	0.322398	0.563761	0.224700	-0.726459
39697	-9.590007	0.641029	2.810658	0.314419	0.565373	0.228002	-0.727674
39698	-9.826419	1.019055	2.648773	0.307145	0.566496	0.233057	-0.728305
39699	-10.140892	0.934794	2.838881	0.301471	0.565954	0.240648	-0.728629
39700	-9.846592	0.133678	2.918638	0.297216	0.564056	0.249960	-0.728713
39701	-9.297997	-1.022004	2.763590	0.293566	0.562083	0.258991	-0.728564
39702	-9.163023	-1.502670	2.296272	0.289287	0.561150	0.266211	-0.728392
39703	-9.544225	-1.438951	2.342015	0.284512	0.560466	0.272339	-0.728534
39704	-9.615829	-1.364605	2.385797	0.279114	0.559769	0.277891	-0.729061
39705	-9.631610	-0.999709	2.411759	0.273229	0.559043	0.283300	-0.729766
39706	-9.476148	-1.315808	2.482914	0.267867	0.558051	0.288909	-0.730314
39707	-9.222712	-2.016533	2.505983	0.262811	0.557191	0.293959	-0.730792
39708	-9.000765	-2.283904	2.550741	0.257601	0.556692	0.297746	-0.731494
39709	-9.236297	-1.514011	2.537455	0.252358	0.556287	0.300864	-0.732353
39710	-9.364687	-1.134925	2.468929	0.248541	0.555159	0.304898	-0.732846
39711	-9.261756	-1.704302	2.213668	0.245913	0.553563	0.309367	-0.733067
39712	-9.281369	-2.178465	2.317054	0.243854	0.551857	0.313042	-0.733481
39713	-9.282830	-2.262699	2.458802	0.241861	0.550345	0.315119	-0.734387
39714	-9.252254	-1.901337	2.668792	0.239997	0.548933	0.316182	-0.735597
39715	-9.058693	-1.899751	2.839554	0.238322	0.547403	0.317019	-0.736920
39716	-9.035522	-1.815882	2.811618	0.236933	0.545599	0.317649	-0.738433
39717	-9.619736	-1.555037	2.592289	0.236081	0.543634	0.318252	-0.739894
39718	-10.062187	-1.737780	2.311875	0.236041	0.541428	0.319468	-0.741000
39719	-10.055300	-2.174661	2.157408	0.236171	0.539329	0.320825	-0.741902
39720	-9.789088	-2.177313	2.277771	0.236407	0.537209	0.322482	-0.742646
39721	-9.500716	-2.107282	2.538884	0.236714	0.534934	0.324386	-0.743361
39722	-9.346516	-2.092788	2.540617	0.237353	0.532286	0.326870	-0.743970
39723	-9.109834	-2.395652	2.356472	0.237912	0.529559	0.329039	-0.744781
39724	-8.837829	-2.292337	2.204812	0.238331	0.526909	0.330533	-0.745864
39725	-8.667748	-2.182666	2.120153	0.238731	0.524407	0.331627	-0.747013
39726	-8.839931	-2.172426	1.975066	0.239124	0.522014	0.332714	-0.748079
39727	-9.103087	-2.469865	1.907069	0.239485	0.519601	0.333755	-0.749179
39728	-9.023715	-2.549088	1.922769	0.239566	0.517256	0.334266	-0.750547
39729	-9.224427	-2.663075	2.003343	0.239337	0.515186	0.333937	-0.752188
39730	-9.014158	-2.524398	2.008269	0.238509	0.513691	0.332148	-0.754263
39731	-8.968490	-1.647461	2.264477	0.238240	0.512295	0.330129	-0.756181
39732	-8.908628	-1.715105	2.390326	0.239149	0.510468	0.329438	-0.757430
39733	-8.859820	-1.958688	2.387812	0.240903	0.508173	0.330276	-0.758053
39734	-8.979002	-2.386881	2.297826	0.243081	0.505669	0.332082	-0.758243
39735	-8.917051	-2.792108	2.146722	0.244806	0.503520	0.333509	-0.758491
39736	-8.944110	-2.464853	2.204958	0.245755	0.501992	0.334065	-0.758953
39737	-9.238521	-2.159074	2.272184	0.246245	0.500790	0.334380	-0.759449
39738	-9.326490	-2.282590	2.181322	0.246722	0.499761	0.334509	-0.759915
39739	-9.278082	-2.199204	2.148155	0.247416	0.498785	0.334693	-0.760249
39740	-9.240158	-2.191739	2.279002	0.248544	0.497584	0.335821	-0.760172
39741	-9.074535	-2.189475	2.438809	0.250178	0.496111	0.337714	-0.759759
39742	-8.862456	-2.427888	2.471274	0.251995	0.494640	0.339804	-0.759185
39743	-8.845318	-2.829685	2.401939	0.253230	0.493630	0.340818	-0.758978
39744	-8.983838	-2.708852	2.310572	0.253417	0.493382	0.339954	-0.759464
39745	-9.030528	-2.397204	2.326464	0.253176	0.493581	0.337956	-0.760306
39746	-9.223390	-2.342068	2.349418	0.253012	0.493882	0.335693	-0.761167
39747	-9.511902	-1.969273	2.398832	0.253229	0.494038	0.333894	-0.761785
39748	-10.013201	-1.934577	2.397271	0.254195	0.493945	0.333227	-0.761816
39749	-10.138819	-2.508941	2.382340	0.255522	0.493959	0.332944	-0.761486
39750	-9.958723	-2.881907	2.371829	0.256606	0.494363	0.331931	-0.761302
39751	-9.691428	-2.518448	2.506657	0.257443	0.495005	0.330357	-0.761286
39752	-9.615154	-2.421898	2.544664	0.258475	0.495540	0.328835	-0.761248
39753	-9.666491	-2.473397	2.469258	0.259492	0.496046	0.327467	-0.761162
39754	-9.767157	-2.578762	2.364452	0.260391	0.496586	0.326239	-0.761031
39755	-10.020728	-2.613143	2.462786	0.260866	0.497218	0.324926	-0.761017
39756	-10.032080	-2.619288	2.486085	0.260902	0.498103	0.322950	-0.761267
39757	-9.991235	-2.347811	2.500192	0.260687	0.499235	0.320604	-0.761590
39758	-9.651235	-2.273117	2.494871	0.260268	0.500374	0.318468	-0.761882
39759	-9.452247	-2.052566	2.655628	0.259947	0.501306	0.316874	-0.762044
39760	-9.264943	-2.187619	2.645688	0.259937	0.501946	0.315545	-0.762177
39761	-9.077308	-2.268488	2.510431	0.259762	0.502542	0.313867	-0.762537
39762	-9.174602	-2.010803	2.478957	0.259135	0.503134	0.311844	-0.763190
39763	-9.231000	-1.777653	2.509703	0.258460	0.503626	0.309803	-0.763925
39764	-9.157962	-1.842958	2.509252	0.257724	0.504139	0.307346	-0.764827
39765	-9.061073	-1.793119	2.604843	0.256989	0.504719	0.304516	-0.765823
39766	-9.048654	-1.856643	2.629954	0.255987	0.505345	0.301563	-0.766914
39767	-8.977172	-1.756483	2.679040	0.254785	0.505833	0.298571	-0.768162
39768	-8.840782	-1.753164	2.653605	0.253653	0.506112	0.295493	-0.769542
39769	-8.893934	-2.004874	2.496572	0.252406	0.506172	0.291936	-0.771268
