// Start Time: Unknown
// Update Rate: 60.0Hz
// Filter Profile: human (46.1)
// Option Flags: AHS Disabled ICC Disabled 
// Firmware Version: 4.3.5
PacketCounter	Acc_X	Acc_Y	Acc_Z	Quat_q0	Quat_q1	Quat_q2	Quat_q3
40913	-0.837268	-2.755338	8.623047	0.640336	-0.042681	0.157386	-0.750585
40914	-1.006286	-2.731371	8.801249	0.641326	-0.042379	0.156688	-0.749903
40915	-1.147281	-2.877541	8.918699	0.642129	-0.042059	0.156499	-0.749272
40916	-1.350951	-3.032814	8.987542	0.642758	-0.041776	0.156568	-0.748734
40917	-1.428173	-3.207762	8.901464	0.643283	-0.041428	0.156653	-0.748285
40918	-1.415870	-3.275680	8.859880	0.643729	-0.040835	0.156509	-0.747964
40919	-1.406119	-3.278133	8.923943	0.644038	-0.039832	0.156027	-0.747853
40920	-1.460321	-3.095369	9.075223	0.644148	-0.038434	0.155313	-0.747980
40921	-1.478431	-2.800169	9.316468	0.644161	-0.037441	0.154917	-0.748101
40922	-1.471444	-2.876830	9.338549	0.644100	-0.037080	0.155139	-0.748125
40923	-1.430537	-3.076103	9.244846	0.643988	-0.037045	0.155677	-0.748112
40924	-1.509311	-3.188053	9.220182	0.643803	-0.036954	0.156246	-0.748157
40925	-1.497387	-3.226246	9.237160	0.643604	-0.036691	0.156612	-0.748265
40926	-1.503117	-3.146411	9.335914	0.643380	-0.036205	0.156690	-0.748465
40927	-1.486389	-3.066188	9.300391	0.643033	-0.035719	0.156684	-0.748788
40928	-1.498209	-3.029075	9.347635	0.642586	-0.035108	0.156508	-0.749237
40929	-1.553314	-2.965819	9.337675	0.642142	-0.034378	0.156219	-0.749712
40930	-1.497438	-2.840235	9.331428	0.641677	-0.033725	0.155957	-0.750194
40931	-1.526347	-2.801248	9.278164	0.641214	-0.033173	0.155799	-0.750647
40932	-1.478157	-2.761313	9.293404	0.640765	-0.032774	0.155769	-0.751054
40933	-1.507102	-2.775969	9.353359	0.640347	-0.032543	0.155858	-0.751402
40934	-1.461351	-2.785593	9.349222	0.639987	-0.032246	0.155884	-0.751716
40935	-1.464366	-2.766074	9.311459	0.639640	-0.031889	0.155790	-0.752046
40936	-1.502325	-2.735705	9.344479	0.639367	-0.031489	0.155494	-0.752356
40937	-1.480769	-2.713658	9.385626	0.639155	-0.030986	0.155079	-0.752643
40938	-1.411648	-2.627724	9.407854	0.638985	-0.030482	0.154616	-0.752903
40939	-1.423722	-2.591412	9.420659	0.638837	-0.030124	0.154310	-0.753106
40940	-1.397358	-2.648262	9.397551	0.638709	-0.029972	0.154137	-0.753255
40941	-1.374651	-2.711607	9.338731	0.638609	-0.029748	0.153948	-0.753388
40942	-1.398443	-2.709041	9.282976	0.638511	-0.029427	0.153661	-0.753542
40943	-1.352155	-2.645377	9.285172	0.638438	-0.029030	0.153245	-0.753705
40944	-1.387421	-2.534499	9.338142	0.638306	-0.028654	0.152986	-0.753883
40945	-1.383845	-2.541489	9.334508	0.638187	-0.028490	0.152915	-0.754004
40946	-1.403954	-2.682758	9.289775	0.638103	-0.028436	0.152966	-0.754067
40947	-1.395690	-2.753144	9.184015	0.638050	-0.028179	0.152803	-0.754155
40948	-1.416495	-2.643440	9.203426	0.637964	-0.027838	0.152600	-0.754282
40949	-1.389773	-2.692587	9.294779	0.637890	-0.027544	0.152399	-0.754395
40950	-1.429198	-2.644605	9.367532	0.637815	-0.027218	0.152182	-0.754514
40951	-1.456229	-2.586109	9.333528	0.637787	-0.027071	0.152088	-0.754562
40952	-1.427609	-2.696958	9.268220	0.637812	-0.026938	0.152026	-0.754558
40953	-1.448142	-2.580285	9.267772	0.637801	-0.026553	0.151762	-0.754635
40954	-1.381055	-2.522468	9.345419	0.637708	-0.026322	0.151678	-0.754738
40955	-1.357918	-2.564366	9.362121	0.637481	-0.026086	0.151636	-0.754946
40956	-1.482680	-2.556679	9.351364	0.637158	-0.025703	0.151487	-0.755262
40957	-1.504338	-2.636625	9.252502	0.636836	-0.025177	0.151209	-0.755607
40958	-1.504806	-2.555407	9.215015	0.636535	-0.024338	0.150654	-0.755999
40959	-1.439564	-2.407794	9.313655	0.636232	-0.023481	0.150168	-0.756377
40960	-1.416461	-2.432075	9.368508	0.635920	-0.022697	0.149816	-0.756734
40961	-1.415412	-2.383883	9.383836	0.635546	-0.021794	0.149419	-0.757153
40962	-1.538794	-2.261972	9.369290	0.635135	-0.021054	0.149139	-0.757574
40963	-1.512259	-2.281358	9.305079	0.634830	-0.020569	0.149042	-0.757861
40964	-1.539752	-2.272892	9.228721	0.634628	-0.020105	0.148960	-0.758059
40965	-1.436515	-2.227309	9.157600	0.634591	-0.019765	0.148912	-0.758109
40966	-1.489235	-2.189219	9.103114	0.634693	-0.019415	0.148779	-0.758058
40967	-1.520944	-2.111511	9.107587	0.634886	-0.019039	0.148627	-0.757936
40968	-1.524820	-2.161724	9.032367	0.635272	-0.018775	0.148498	-0.757645
40969	-1.467560	-2.352125	8.906968	0.635959	-0.018477	0.148306	-0.757113
40970	-1.407914	-2.350650	8.741085	0.636935	-0.017704	0.147637	-0.756442
40971	-1.398210	-2.044434	8.673118	0.638072	-0.016733	0.146871	-0.755654
40972	-1.440108	-1.879379	8.552120	0.639413	-0.016142	0.146488	-0.754607
40973	-1.392263	-2.122458	8.297748	0.641085	-0.015770	0.146389	-0.753215
40974	-1.483282	-2.102905	7.793269	0.643435	-0.015285	0.146291	-0.751237
40975	-1.621916	-2.198197	7.189959	0.646931	-0.014939	0.146437	-0.748207
40976	-1.821803	-2.871994	6.792945	0.651780	-0.014013	0.146023	-0.744086
40977	-2.121980	-2.323278	6.960580	0.657654	-0.011583	0.144175	-0.739304
40978	-2.296687	-0.964466	6.967810	0.664345	-0.008863	0.142112	-0.733738
40979	-2.506526	-0.595676	6.979904	0.672043	-0.007438	0.141781	-0.726774
40980	-2.857376	-1.064414	6.618570	0.680721	-0.006986	0.142704	-0.718474
40981	-2.737220	-2.064202	6.380883	0.690126	-0.005183	0.142567	-0.709488
40982	-2.783154	-1.174481	6.349055	0.699920	-0.000047	0.140670	-0.700231
40983	-2.859513	0.123691	6.689183	0.710010	0.005849	0.140213	-0.690066
40984	-2.682927	0.461998	7.290434	0.720135	0.011148	0.142403	-0.678972
40985	-2.694827	0.618904	7.800536	0.730080	0.015542	0.146383	-0.667319
40986	-2.823523	0.554697	7.530281	0.739746	0.019310	0.151309	-0.655369
40987	-3.316844	0.215226	7.437722	0.749216	0.023783	0.156567	-0.643114
40988	-3.746457	-0.294912	7.107903	0.758558	0.030279	0.161513	-0.630545
40989	-4.182395	-0.294370	7.902016	0.767740	0.040081	0.166651	-0.617410
40990	-4.028874	0.618150	7.971215	0.776842	0.051616	0.171749	-0.603618
40991	-3.880167	1.506202	7.920849	0.785827	0.064613	0.177604	-0.588862
40992	-4.641329	1.929242	7.481121	0.794566	0.078858	0.184227	-0.573155
40993	-5.824020	1.167919	8.769734	0.803075	0.092695	0.191318	-0.556664
40994	-5.861304	0.459415	9.730495	0.811254	0.105088	0.197499	-0.540201
40995	-4.669360	0.770616	9.519391	0.818980	0.117801	0.202705	-0.523741
40996	-4.033697	1.419842	8.436476	0.826084	0.132893	0.207249	-0.506925
40997	-4.263311	2.020545	7.309416	0.832067	0.152530	0.211197	-0.489688
40998	-5.385933	3.086310	7.790057	0.836703	0.176487	0.215841	-0.471374
40999	-7.344954	3.816507	8.969372	0.840813	0.199266	0.222534	-0.451447
41000	-7.124154	3.013198	9.064983	0.844837	0.219212	0.229173	-0.430902
41001	-5.936174	2.920104	8.285466	0.847542	0.241147	0.234914	-0.410289
41002	-5.469314	4.541021	7.835783	0.848435	0.265533	0.241026	-0.389304
41003	-6.226163	6.355180	7.890642	0.848560	0.288699	0.249007	-0.366871
41004	-7.744698	6.904427	9.244933	0.849023	0.308431	0.259381	-0.341689
41005	-9.999390	6.041352	10.295351	0.850533	0.323978	0.270243	-0.314008
41006	-10.040133	4.504569	10.220072	0.853003	0.336114	0.279515	-0.285105
41007	-8.642022	4.667891	9.724243	0.855049	0.347589	0.287491	-0.255778
41008	-7.614614	6.041354	9.809244	0.856623	0.358688	0.294238	-0.225750
41009	-8.008493	6.886580	10.280471	0.858721	0.367317	0.299655	-0.194638
41010	-8.782041	6.659325	10.450562	0.861876	0.372603	0.302725	-0.163384
41011	-8.536476	5.725797	10.070314	0.865444	0.376532	0.302657	-0.132778
41012	-7.751221	5.698808	9.385225	0.868490	0.381100	0.299768	-0.103088
41013	-7.178122	6.717580	8.933112	0.871116	0.385583	0.295126	-0.073373
41014	-7.570588	7.341791	9.126435	0.873623	0.389363	0.288565	-0.043698
41015	-7.650743	7.724594	9.333145	0.876401	0.391907	0.279487	-0.014759
41016	-7.332760	7.878062	9.074172	0.879986	0.391919	0.268048	0.013190
41017	-6.618902	7.059037	8.459331	0.883923	0.390253	0.254561	0.039770
41018	-6.213307	6.561709	7.860879	0.887333	0.388736	0.239454	0.064695
41019	-5.706944	6.676095	7.269080	0.890609	0.386551	0.222922	0.087752
41020	-4.994882	6.878825	6.852408	0.893956	0.383161	0.205375	0.108864
41021	-4.327562	6.977838	6.911369	0.897385	0.378675	0.187044	0.127750
41022	-3.328178	6.607884	6.719102	0.901008	0.373350	0.167946	0.143489
41023	-2.285584	6.457344	6.645757	0.904544	0.368043	0.148419	0.155934
41024	-1.785057	6.557754	6.347758	0.907837	0.363183	0.128394	0.165663
41025	-1.189603	6.749042	5.727880	0.911003	0.358460	0.107951	0.172993
41026	-0.462408	6.669678	5.591423	0.913969	0.353572	0.087743	0.178742
41027	0.425474	6.516926	5.867701	0.916247	0.349682	0.068061	0.183251
41028	0.413284	6.516869	6.036331	0.918068	0.346369	0.048506	0.186620
41029	0.488198	5.832506	5.844167	0.919912	0.342414	0.028622	0.188930
41030	0.668791	5.051612	5.574862	0.921485	0.338533	0.008765	0.190221
41031	1.418053	4.934601	5.049632	0.922838	0.334490	-0.010585	0.190719
41032	2.543931	5.234032	4.779719	0.924216	0.329774	-0.028402	0.190439
41033	3.097785	5.641997	4.922363	0.925598	0.324955	-0.043669	0.189119
41034	3.331497	6.106703	5.304265	0.926872	0.320735	-0.056776	0.186587
41035	3.398382	6.379156	5.611943	0.928286	0.316660	-0.067784	0.182800
41036	2.903212	6.531202	6.190116	0.929835	0.312759	-0.076835	0.178003
41037	2.586309	6.892718	6.610837	0.931455	0.308923	-0.084543	0.172657
41038	1.859128	7.234015	6.927385	0.933413	0.304219	-0.091002	0.167062
41039	0.978889	7.085761	7.501839	0.935304	0.299645	-0.097321	0.161082
41040	0.547976	6.590170	7.939058	0.936653	0.296515	-0.103869	0.154826
41041	1.247664	5.954072	8.150318	0.937139	0.295583	-0.110725	0.148800
41042	2.301500	5.420923	8.394507	0.936844	0.296282	-0.117409	0.144070
41043	3.262170	5.381495	9.150554	0.936118	0.297234	-0.123630	0.141597
41044	3.044507	5.801736	10.121089	0.935602	0.296519	-0.130236	0.140585
41045	2.358616	5.529621	10.380032	0.935716	0.293255	-0.137449	0.139803
41046	1.438507	4.556045	10.370288	0.936144	0.288290	-0.145552	0.139063
41047	1.420749	3.814450	9.720904	0.936497	0.282955	-0.154080	0.138455
41048	1.932018	3.550542	9.197271	0.936618	0.278222	-0.162137	0.138028
41049	1.978425	3.873979	9.208947	0.936502	0.274318	-0.169474	0.137812
41050	1.684780	4.010789	8.991596	0.936389	0.270100	-0.176957	0.137503
41051	1.571980	3.683682	8.669561	0.936422	0.264749	-0.184876	0.137268
41052	1.620485	3.179285	8.146819	0.936337	0.258931	-0.193216	0.137463
41053	1.781284	3.172265	7.650385	0.936011	0.253372	-0.201683	0.137876
41054	1.731759	3.159642	7.219284	0.935511	0.248237	-0.210172	0.137930
41055	1.652326	3.164595	6.643310	0.934876	0.243655	-0.218406	0.137611
41056	1.438195	3.109229	6.193121	0.934187	0.239609	-0.225924	0.137262
41057	1.243020	2.964516	5.782575	0.933502	0.236191	-0.232432	0.136980
41058	0.946532	2.995306	5.647392	0.932845	0.233372	-0.238107	0.136539
41059	0.679985	2.716663	5.184329	0.932343	0.230995	-0.243044	0.135304
41060	0.845802	2.582718	4.889886	0.931761	0.230176	-0.247101	0.133346
41061	1.366572	3.369992	4.841774	0.931004	0.231582	-0.249877	0.131004
41062	2.375202	4.458079	4.707351	0.930352	0.234041	-0.251527	0.128082
41063	2.809654	5.382686	4.860999	0.929986	0.237178	-0.251745	0.124488
41064	2.590992	6.006654	4.927545	0.929694	0.241064	-0.251392	0.119830
41065	3.215061	6.263855	4.661227	0.929351	0.245817	-0.250812	0.113906
41066	5.075720	6.362141	4.160876	0.928903	0.251329	-0.250198	0.106644
41067	6.533714	6.252229	4.051174	0.928253	0.258031	-0.249220	0.098261
41068	7.058743	5.992652	4.148314	0.927172	0.265802	-0.248625	0.088808
41069	8.024770	5.391184	4.469512	0.925774	0.273903	-0.248354	0.078994
41070	9.560136	4.335105	4.849044	0.924129	0.281825	-0.248304	0.070035
41071	10.806875	4.216095	5.482973	0.922225	0.289500	-0.248421	0.063067
41072	12.001509	4.097623	6.124133	0.920713	0.295114	-0.248624	0.058147
41073	13.402139	2.645895	6.839585	0.919588	0.298879	-0.248872	0.055601
41074	14.393702	1.143843	7.537946	0.918049	0.303535	-0.248637	0.056848
41075	15.160299	0.216935	8.973693	0.916122	0.308794	-0.247848	0.062762
41076	16.630545	-0.057631	10.476541	0.914454	0.313448	-0.245210	0.073460
41077	17.234913	0.044726	11.381213	0.913733	0.315050	-0.240922	0.088272
41078	18.253906	-0.056156	11.339921	0.913860	0.312842	-0.235596	0.107161
41079	19.024654	0.921020	11.182820	0.914371	0.306700	-0.230420	0.129490
41080	19.334614	1.856826	10.990435	0.915000	0.296117	-0.226490	0.154245
41081	20.459098	1.406557	10.065431	0.915247	0.281138	-0.225047	0.180660
41082	22.194013	1.174284	9.028892	0.914744	0.262452	-0.225896	0.208166
41083	23.031687	1.879443	8.159355	0.913832	0.239111	-0.228748	0.235397
41084	23.087989	2.463941	7.176545	0.912933	0.210696	-0.232791	0.260708
41085	23.215848	3.011992	5.932762	0.912236	0.179143	-0.236534	0.282464
41086	22.571607	4.098392	4.706490	0.912089	0.147136	-0.237560	0.300016
41087	20.427752	5.481984	3.679594	0.913066	0.117988	-0.233374	0.312932
41088	16.155200	7.326581	2.286097	0.916528	0.092032	-0.223022	0.319011
41089	11.871095	8.442273	0.309437	0.923451	0.069057	-0.206019	0.316268
41090	5.945982	9.136933	-1.532096	0.934566	0.048128	-0.180974	0.302521
41091	-3.166779	9.576660	-2.128342	0.949465	0.025801	-0.150358	0.274304
41092	-14.266456	9.482686	-1.562210	0.966222	-0.007655	-0.116898	0.229548
41093	-23.187668	5.790147	-1.336154	0.980055	-0.060192	-0.081611	0.170906
41094	-35.445223	-0.301213	-1.648480	0.986384	-0.117702	-0.039866	0.107716
41095	-43.785025	-5.495675	0.361541	0.983114	-0.176527	-0.004182	0.048031
41096	-40.702181	-16.444301	-2.035457	0.974505	-0.223986	0.012782	0.002500
41097	-23.553580	-26.973067	-7.909682	0.971358	-0.236599	0.014641	-0.016411
41098	-12.606550	-22.020799	-7.267331	0.975578	-0.219153	0.012385	-0.008168
41099	-18.825594	-15.426991	-4.567558	0.979860	-0.198460	0.008905	0.020201
41100	-26.409003	-8.977436	1.237446	0.983244	-0.171295	0.006066	0.062072
41101	-33.588306	-3.404927	8.018742	0.982727	-0.147346	-0.002710	0.111936
41102	-29.676863	-4.337578	9.297863	0.979066	-0.126050	-0.019127	0.158666
41103	-22.265710	-5.414559	6.298893	0.974977	-0.090998	-0.033887	0.199979
41104	-15.486214	0.067329	4.099408	0.970330	-0.033821	-0.040412	0.235973
41105	-11.804459	10.322682	4.464176	0.963251	0.031765	-0.041666	0.263445
41106	-8.723232	14.446590	5.860729	0.954875	0.090356	-0.047737	0.278874
41107	-3.607780	12.552872	5.211357	0.947231	0.142515	-0.061832	0.280391
41108	4.860344	12.498018	1.901914	0.940477	0.192782	-0.079545	0.268349
41109	14.316929	15.623422	-0.607036	0.934173	0.239728	-0.093442	0.247224
41110	21.469381	13.837303	-1.098414	0.927865	0.280489	-0.103805	0.222749
41111	23.809549	9.930867	2.255955	0.920553	0.317077	-0.111839	0.198839
41112	24.164667	7.970316	6.995020	0.913227	0.346355	-0.122849	0.175965
41113	23.768383	5.595443	10.157483	0.906870	0.367361	-0.136566	0.154863
41114	20.063766	4.690937	10.719990	0.904285	0.375299	-0.155256	0.131584
41115	22.791515	-0.046275	6.689209	0.905179	0.370808	-0.177864	0.107317
41116	21.530541	-2.054480	5.521186	0.904570	0.367282	-0.196227	0.091385
41117	16.828303	1.018386	6.493591	0.903837	0.362150	-0.212137	0.083214
41118	13.275379	1.499055	7.474186	0.904636	0.352175	-0.227092	0.077683
41119	11.254769	1.327346	7.619057	0.905624	0.341512	-0.240871	0.072076
41120	10.228813	2.077553	6.987952	0.906337	0.332478	-0.252291	0.066032
41121	10.399271	3.079222	5.873476	0.906611	0.326856	-0.259764	0.061190
41122	11.123745	4.799921	5.223809	0.906264	0.326430	-0.261958	0.059229
41123	11.181644	7.040062	5.106136	0.906017	0.328837	-0.259634	0.059921
41124	10.641286	7.645335	5.911025	0.906102	0.332150	-0.254391	0.062773
41125	10.066010	7.009123	6.444134	0.905808	0.336882	-0.247955	0.067386
41126	10.308111	6.391187	6.728610	0.904634	0.343144	-0.241925	0.073224
41127	11.869809	5.982734	6.340872	0.902729	0.349914	-0.237147	0.080009
41128	12.559008	5.043404	5.477767	0.900876	0.355510	-0.233061	0.087847
41129	12.900366	3.338701	4.747010	0.899183	0.359990	-0.228565	0.098156
41130	13.173516	2.023758	4.880434	0.897430	0.363941	-0.222621	0.112280
41131	13.660661	2.076545	5.626190	0.895285	0.367592	-0.215468	0.130055
41132	12.359295	3.374846	6.241253	0.893530	0.368775	-0.207629	0.150000
41133	10.800743	4.144603	5.991932	0.892393	0.366276	-0.200082	0.171589
41134	9.240102	5.038800	4.906405	0.891683	0.359817	-0.193542	0.194870
41135	7.777560	5.604723	3.892913	0.890987	0.349394	-0.189458	0.219481
41136	7.034164	6.715222	3.523749	0.889301	0.337340	-0.188259	0.244752
41137	6.454290	9.131492	4.104232	0.887271	0.323633	-0.189775	0.268322
41138	5.121148	9.373767	4.240233	0.885475	0.308206	-0.194216	0.288484
41139	3.731995	7.789366	4.164403	0.882428	0.295360	-0.200515	0.306392
41140	2.851940	6.901503	4.225281	0.877525	0.287151	-0.208194	0.322722
41141	3.379787	6.178141	4.246934	0.871802	0.282099	-0.217079	0.336539
41142	4.624447	6.161652	4.435767	0.865649	0.280376	-0.226108	0.347730
41143	4.415354	6.544932	5.430112	0.859547	0.280495	-0.235088	0.356700
41144	3.790498	5.517510	6.836529	0.853576	0.281476	-0.244339	0.363974
41145	3.438540	4.478612	8.231623	0.847599	0.283919	-0.253036	0.370053
41146	3.473199	4.005350	9.263712	0.842183	0.286524	-0.261462	0.374525
41147	3.884566	3.229390	9.829270	0.837900	0.288082	-0.269722	0.377072
41148	4.151742	2.611302	9.977600	0.834618	0.288187	-0.278253	0.378069
41149	4.152479	1.950447	9.336041	0.831824	0.286819	-0.287076	0.378671
41150	4.062624	1.821846	8.369808	0.829450	0.284472	-0.295126	0.379459
41151	3.628891	1.602204	7.518799	0.827928	0.281364	-0.301886	0.379783
41152	2.896411	1.345069	6.795700	0.827646	0.277836	-0.307204	0.378727
41153	2.149463	0.164599	5.793581	0.829012	0.273048	-0.311830	0.375429
41154	1.570449	-1.021912	4.527694	0.831309	0.268268	-0.315245	0.370916
41155	0.821867	-1.314980	3.568320	0.833944	0.263362	-0.317819	0.366291
41156	-0.090896	-1.401168	2.227219	0.836461	0.257831	-0.320415	0.362203
41157	-0.827982	-1.569119	0.163028	0.838248	0.252691	-0.322837	0.359533
41158	-1.847787	-1.441989	-2.328596	0.839051	0.248660	-0.324970	0.358548
41159	-3.190142	-0.487093	-3.412276	0.838986	0.246495	-0.326413	0.358883
41160	-3.949668	0.882124	-3.512119	0.838322	0.245915	-0.328664	0.358777
41161	-3.422178	1.444623	-3.578001	0.837411	0.246973	-0.331556	0.357515
41162	-2.425272	1.444968	-3.576749	0.836305	0.250465	-0.333499	0.355864
41163	-1.129016	1.472961	-3.131142	0.835161	0.256060	-0.333946	0.354145
41164	0.596935	1.616665	-1.758581	0.834009	0.263417	-0.332606	0.352725
41165	2.230503	2.184945	0.522601	0.832787	0.271911	-0.329783	0.351813
41166	3.403829	2.489355	3.016978	0.831498	0.280936	-0.325972	0.351323
41167	4.455140	2.006491	4.895151	0.830719	0.288717	-0.321388	0.351082
41168	4.712787	1.301392	6.081375	0.830386	0.294797	-0.316394	0.351353
41169	5.774578	1.613088	7.080919	0.830271	0.299071	-0.310909	0.352907
41170	8.117581	3.018820	8.057234	0.830161	0.302110	-0.304625	0.356041
41171	9.503833	4.414768	9.799323	0.830999	0.302913	-0.297470	0.359439
41172	9.902896	4.017257	11.348951	0.832637	0.302250	-0.290006	0.362294
41173	9.237115	4.085728	12.733759	0.834158	0.301093	-0.283273	0.365075
41174	10.511187	5.134772	13.060337	0.836089	0.297074	-0.278587	0.367549
41175	12.506274	5.493750	13.624325	0.838916	0.289964	-0.275227	0.369311
41176	12.023246	6.899784	15.340457	0.842105	0.281479	-0.272367	0.370735
41177	11.715189	6.011487	16.707933	0.845621	0.270442	-0.271088	0.371884
41178	12.315413	5.722415	17.762627	0.848315	0.258904	-0.270649	0.374271
41179	13.104740	6.568546	17.870338	0.850910	0.246458	-0.270570	0.376832
41180	13.882583	8.125202	17.745146	0.854008	0.234039	-0.270892	0.377510
41181	15.305015	9.052753	17.168548	0.857753	0.222975	-0.270903	0.375705
41182	16.075523	9.035336	17.278409	0.861158	0.214997	-0.269488	0.373576
41183	15.918554	8.852631	17.327233	0.864099	0.209997	-0.266680	0.371639
41184	15.797017	7.145113	17.340642	0.866696	0.207645	-0.262985	0.369542
41185	15.407960	5.018789	18.451009	0.868788	0.208975	-0.258124	0.367301
41186	13.621813	4.933253	20.501579	0.870267	0.213632	-0.253865	0.364074
41187	11.688985	4.898212	20.422515	0.872117	0.216959	-0.252910	0.358298
41188	10.992435	3.505019	17.999826	0.874368	0.219177	-0.253872	0.350702
41189	9.793249	3.574919	15.086155	0.876724	0.222120	-0.254507	0.342409
41190	8.679639	4.243410	12.712587	0.879185	0.225543	-0.254526	0.333737
41191	8.640726	5.584128	10.712820	0.881734	0.229851	-0.252435	0.325562
41192	8.402103	6.599495	9.315367	0.884530	0.234948	-0.246867	0.318533
41193	6.469515	6.302141	8.938918	0.887821	0.239626	-0.238431	0.312255
41194	4.945177	5.234649	8.259116	0.891410	0.244302	-0.228846	0.305506
41195	4.007693	4.957037	7.097520	0.895144	0.249799	-0.218408	0.297685
41196	3.683287	5.652118	6.041949	0.898935	0.255706	-0.207582	0.288859
41197	4.159193	5.659794	5.300420	0.903092	0.260500	-0.196122	0.279467
41198	4.314177	5.115037	6.477356	0.906956	0.265470	-0.183812	0.270500
41199	4.908205	4.501593	6.969909	0.909802	0.272782	-0.171686	0.261485
41200	5.619327	3.629173	6.661893	0.911883	0.281997	-0.159864	0.251775
41201	5.529348	2.726041	5.267217	0.913504	0.292333	-0.148447	0.240862
41202	5.075817	2.429514	4.326549	0.914964	0.302319	-0.136892	0.229577
41203	4.627574	2.607993	3.696577	0.916001	0.312260	-0.123646	0.219425
41204	3.083255	3.860517	4.848544	0.916297	0.321987	-0.109163	0.211676
41205	2.633673	3.920880	5.557101	0.916725	0.328946	-0.095995	0.205413
41206	1.648810	2.836961	6.632507	0.918052	0.331782	-0.084821	0.199767
41207	0.955957	1.177142	6.838702	0.919524	0.333090	-0.077259	0.193799
41208	1.726278	0.462447	6.699874	0.920576	0.334494	-0.072457	0.188156
41209	3.022887	0.288726	5.449003	0.921506	0.335271	-0.068749	0.183556
41210	3.421534	0.096365	4.661779	0.922737	0.334658	-0.064838	0.179880
41211	3.101935	1.041997	4.629369	0.923505	0.334133	-0.061007	0.178248
41212	2.417954	2.833828	4.912233	0.924405	0.331319	-0.058298	0.179732
41213	0.836046	3.094552	5.310253	0.926450	0.323769	-0.059267	0.182622
41214	0.708654	2.139220	4.981544	0.929170	0.313029	-0.064510	0.185728
41215	0.935365	1.741346	4.782038	0.931561	0.302116	-0.072143	0.188986
41216	0.886457	2.287021	4.426480	0.932865	0.293333	-0.080239	0.193080
41217	0.310675	2.633058	3.778074	0.934094	0.284022	-0.088961	0.197195
41218	-0.209379	2.849560	3.907749	0.935333	0.274063	-0.098058	0.201063
41219	-1.039392	3.223483	4.545729	0.936146	0.264943	-0.108135	0.204310
41220	-1.929118	3.949525	4.998151	0.936110	0.258905	-0.119276	0.206006
41221	-2.351523	5.329214	5.007593	0.935355	0.256353	-0.130939	0.205547
41222	-2.467182	6.754367	3.913129	0.934552	0.255647	-0.142598	0.202295
41223	-0.875804	6.890222	2.711304	0.933904	0.255798	-0.153341	0.197175
41224	1.001882	6.135119	2.890536	0.932787	0.257629	-0.162932	0.192323
41225	2.678761	5.155385	3.344478	0.931058	0.262022	-0.171374	0.187370
41226	3.688473	5.420510	4.305053	0.928799	0.268957	-0.179300	0.181233
41227	4.592891	6.244532	4.940403	0.926716	0.275635	-0.188344	0.172477
41228	5.772986	6.087093	4.895696	0.925736	0.277883	-0.199920	0.160702
41229	7.753796	4.304049	3.759183	0.925671	0.275708	-0.212774	0.147800
41230	10.668077	2.171942	1.577689	0.925824	0.270929	-0.225779	0.135906
41231	13.324277	0.167808	-0.454264	0.925298	0.267117	-0.237415	0.126909
41232	16.695948	-1.179215	-1.149376	0.923724	0.265764	-0.247444	0.121963
41233	19.701370	-1.332080	-0.211487	0.921310	0.266554	-0.255870	0.121111
41234	21.348668	-2.322975	1.369464	0.919170	0.265383	-0.264039	0.122401
41235	22.294425	-4.909804	3.605763	0.917118	0.263374	-0.270612	0.127662
41236	24.188529	-6.397250	5.234464	0.913979	0.262963	-0.275833	0.139317
41237	24.822729	-4.897402	7.887712	0.910572	0.261624	-0.278700	0.157282
41238	24.965871	-5.832369	9.826881	0.907918	0.254732	-0.280664	0.178954
41239	24.658960	-6.803982	10.578681	0.905419	0.246145	-0.279701	0.203459
41240	24.383601	-4.767913	10.067094	0.903348	0.236841	-0.274767	0.228850
41241	24.898943	-1.835349	8.867531	0.902588	0.225268	-0.265681	0.252987
41242	22.986180	0.181248	7.776459	0.903783	0.209295	-0.253462	0.274096
41243	20.940366	1.535906	6.839871	0.906312	0.189076	-0.239904	0.292054
41244	20.649141	4.164353	4.334405	0.909537	0.167391	-0.224797	0.306901
41245	19.835495	7.217284	1.234816	0.913740	0.146722	-0.206998	0.317339
41246	16.682918	9.148108	-2.586967	0.920617	0.125396	-0.184316	0.320575
41247	9.904984	8.872244	-6.114894	0.931248	0.101317	-0.156579	0.313042
41248	1.011405	9.958980	-5.014736	0.945400	0.075774	-0.123376	0.291986
41249	-9.876263	14.094520	-2.061181	0.962649	0.041392	-0.086667	0.253146
41250	-26.412509	11.903378	-1.170125	0.978681	-0.014817	-0.052186	0.198093
41251	-41.518139	-7.537138	-2.513305	0.985580	-0.085007	-0.018447	0.145138
41252	-42.488203	-11.333785	-0.116018	0.987784	-0.111500	0.021847	0.106648
41253	-45.653912	0.829726	4.320900	0.987983	-0.124375	0.048165	0.078102
41254	-33.423536	-6.754537	0.284411	0.984598	-0.152548	0.049196	0.069825
41255	-25.577123	-18.179931	-0.358516	0.983206	-0.156846	0.045087	0.081686
41256	-26.118978	-7.900506	3.348953	0.983778	-0.137245	0.041362	0.107856
41257	-26.913161	-0.732030	6.533065	0.981992	-0.119645	0.034411	0.142101
41258	-24.851040	-1.647961	8.533975	0.977508	-0.110327	0.022681	0.178299
41259	-20.766808	-4.450350	8.760769	0.972263	-0.095304	0.010829	0.213319
41260	-16.828632	-1.830549	9.020874	0.967196	-0.063832	0.004505	0.245838
41261	-14.116909	3.971885	9.593915	0.961573	-0.021792	0.001678	0.273678
41262	-10.688582	8.513654	9.784281	0.955768	0.020415	-0.002734	0.293401
41263	-7.418510	9.361187	10.330106	0.951003	0.060087	-0.010765	0.303096
41264	-4.671645	9.281574	9.304051	0.947573	0.100729	-0.021091	0.302513
41265	-1.167857	9.411092	7.659078	0.945503	0.142516	-0.031379	0.291082
41266	2.108332	10.654484	6.735196	0.944509	0.183463	-0.038698	0.269716
41267	5.700384	11.665983	5.967452	0.943825	0.222578	-0.044461	0.240161
41268	8.085846	13.403855	5.777248	0.942878	0.257452	-0.048739	0.205728
41269	9.527574	13.774981	6.247721	0.942026	0.283481	-0.054379	0.171078
41270	8.207249	12.253340	7.990009	0.941250	0.302556	-0.063539	0.135910
41271	6.757631	12.369280	8.852266	0.941220	0.313348	-0.082170	0.095736
41272	10.823470	13.992674	6.156726	0.940330	0.318498	-0.108847	0.049902
41273	14.651066	15.515413	2.426586	0.938451	0.315701	-0.140119	0.002999
41274	14.831297	12.309840	0.666006	0.935374	0.305545	-0.173431	-0.040481
41275	12.912810	7.915683	-0.208387	0.930352	0.292194	-0.207254	-0.078194
41276	9.769365	4.843963	0.574948	0.924374	0.275222	-0.239596	-0.111261
41277	7.570570	2.641889	1.067075	0.917923	0.252768	-0.270111	-0.143410
41278	7.565833	1.324515	0.784174	0.911093	0.226613	-0.296696	-0.174719
41279	6.687408	1.495684	0.603099	0.903844	0.199262	-0.318885	-0.204139
41280	6.828982	1.748834	-0.090768	0.896286	0.170463	-0.336806	-0.232755
41281	7.377074	1.496389	-0.849480	0.888006	0.141991	-0.350053	-0.262196
41282	7.501814	1.679368	-1.212176	0.878788	0.116281	-0.358976	-0.292142
41283	8.482733	2.423212	-1.099258	0.868423	0.096690	-0.365282	-0.321031
41284	9.006745	5.121976	0.644013	0.857131	0.083593	-0.371321	-0.347072
41285	10.141801	8.697983	2.561821	0.845594	0.073499	-0.377016	-0.370711
41286	12.380305	9.717947	3.574468	0.834420	0.064147	-0.382007	-0.392045
41287	14.659376	9.534706	4.100075	0.824266	0.057047	-0.386223	-0.410076
41288	15.594504	8.569294	5.177285	0.815742	0.052587	-0.390091	-0.423827
41289	15.509957	7.121170	6.823960	0.809296	0.050679	-0.393316	-0.433329
41290	14.629313	5.413741	7.870006	0.804985	0.050602	-0.395883	-0.438992
41291	14.197058	4.004201	7.904237	0.803330	0.052008	-0.397546	-0.440357
41292	13.221841	3.789396	8.198838	0.804448	0.054054	-0.397620	-0.437996
41293	11.877997	4.129922	8.439131	0.807349	0.055098	-0.395963	-0.434011
41294	10.295361	4.514452	7.946224	0.811021	0.055127	-0.393853	-0.429053
41295	8.761115	4.947882	6.822283	0.814989	0.053981	-0.391770	-0.423550
41296	7.350646	5.243462	5.731579	0.818981	0.051983	-0.390060	-0.417638
41297	6.100122	5.230848	4.923167	0.822661	0.049142	-0.389129	-0.411574
41298	5.632915	4.704274	4.066935	0.826169	0.045912	-0.388894	-0.405090
41299	5.770788	4.451020	3.481733	0.829613	0.043314	-0.389032	-0.398147
41300	5.921103	4.237292	3.043081	0.833027	0.042312	-0.389340	-0.390755
41301	6.145592	4.031068	2.570399	0.836640	0.043851	-0.389468	-0.382656
41302	6.667047	3.832285	2.064338	0.840805	0.048611	-0.388757	-0.373566
41303	7.135944	3.801197	1.595915	0.845723	0.056782	-0.386582	-0.363432
41304	8.717317	3.548238	0.749358	0.851383	0.069444	-0.382779	-0.351860
41305	9.728829	4.263040	0.571275	0.857530	0.087868	-0.377517	-0.338233
41306	9.568203	5.186662	0.888607	0.864002	0.109463	-0.370106	-0.323326
41307	8.455939	4.534766	0.872624	0.870938	0.132864	-0.359789	-0.307189
41308	7.084132	4.142370	1.159398	0.878199	0.159017	-0.346731	-0.288544
41309	7.618840	5.011729	1.950591	0.885247	0.189852	-0.331447	-0.265399
41310	8.028152	5.098334	2.312606	0.892271	0.220930	-0.312267	-0.239858
41311	8.076397	3.325768	1.646583	0.898816	0.251389	-0.288172	-0.214219
41312	8.137131	3.855708	0.756367	0.904325	0.281208	-0.259600	-0.189010
41313	8.047798	5.036519	0.271047	0.909371	0.308090	-0.226639	-0.163584
41314	9.082508	6.693740	-0.084263	0.913567	0.332794	-0.190071	-0.136075
41315	8.124916	8.315357	-0.023991	0.916538	0.354677	-0.151584	-0.105757
41316	7.236952	8.693238	0.170887	0.918377	0.371989	-0.113736	-0.072608
41317	6.083000	8.775436	0.316623	0.919256	0.384053	-0.077929	-0.037392
41318	4.562458	10.241148	0.575130	0.919945	0.389440	-0.045128	-0.000572
41319	2.904343	11.664448	1.257023	0.920566	0.388374	-0.017901	0.037465
41320	0.676227	13.952717	1.867492	0.920317	0.383901	0.001678	0.075052
41321	-2.661391	15.804948	1.959619	0.919386	0.377423	0.013244	0.110029
41322	-7.166035	17.159877	2.239458	0.917868	0.370560	0.017633	0.141041
41323	-9.762083	17.024580	3.275496	0.915789	0.364325	0.017380	0.168210
41324	-11.810786	16.440485	5.778188	0.913037	0.359753	0.015013	0.191613
41325	-12.985134	15.904877	8.276721	0.909861	0.356712	0.010676	0.211649
41326	-13.843304	14.875283	9.983614	0.907042	0.354176	0.004883	0.227619
41327	-13.311238	13.371383	11.138538	0.904758	0.352645	-0.000752	0.238860
41328	-10.475084	12.213732	11.937837	0.902925	0.352351	-0.004763	0.246075
41329	-7.560019	11.479036	12.553525	0.901749	0.352406	-0.006729	0.250226
41330	-5.368876	10.620322	12.780477	0.901512	0.351754	-0.006415	0.252001
41331	-4.207961	9.924207	13.188377	0.902044	0.350816	-0.004468	0.251447
41332	-3.301098	9.673172	12.405741	0.903664	0.349053	-0.002650	0.248086
41333	-1.941309	9.107476	10.730629	0.906271	0.346518	-0.001803	0.242062
41334	-0.362360	8.332502	8.776598	0.909367	0.343683	-0.001219	0.234378
41335	0.659404	7.492093	7.611876	0.912475	0.341198	-0.000272	0.225771
41336	0.834709	6.533937	6.921944	0.915393	0.339661	0.000511	0.216067
41337	0.875141	6.023633	6.564926	0.917678	0.340299	0.001146	0.205093
41338	0.933762	6.180775	5.904143	0.919619	0.342020	0.000445	0.193193
41339	1.189712	6.139507	5.289017	0.921473	0.343507	-0.001859	0.181351
41340	1.210620	5.208913	4.485709	0.923282	0.344168	-0.005579	0.170492
41341	1.602133	4.538207	4.076215	0.924495	0.345329	-0.009625	0.161135
41342	1.899475	3.991835	4.195358	0.925310	0.346610	-0.013956	0.153196
41343	1.720592	3.683580	5.305703	0.925704	0.348371	-0.019331	0.146066
41344	2.160573	3.801754	6.296802	0.926152	0.349491	-0.026279	0.139308
41345	2.737453	3.533893	6.984216	0.926912	0.349207	-0.034657	0.132996
41346	3.025521	2.890411	7.098730	0.927851	0.347569	-0.043764	0.127957
41347	3.254139	2.172853	7.423119	0.928774	0.344983	-0.052265	0.125035
41348	2.486447	2.665847	8.887349	0.928956	0.343089	-0.060243	0.125307
41349	2.248729	3.756624	9.885031	0.928488	0.341363	-0.068155	0.129371
41350	2.424419	4.220285	10.143113	0.927666	0.338973	-0.075937	0.136992
41351	2.712517	4.892770	10.331920	0.926394	0.336153	-0.082633	0.148217
41352	2.651582	5.250129	10.153193	0.925323	0.331300	-0.088217	0.161972
41353	2.346542	5.175065	10.120994	0.924540	0.323790	-0.093032	0.178130
41354	2.772135	4.560715	9.652538	0.923578	0.314420	-0.097221	0.196703
41355	2.871711	3.962510	9.562138	0.922451	0.303057	-0.101820	0.216501
41356	3.039513	4.313082	9.612527	0.920803	0.291737	-0.106676	0.235864
41357	2.209212	5.780774	9.410835	0.919325	0.279457	-0.112647	0.253093
41358	1.575336	5.177766	9.104763	0.918347	0.265886	-0.119917	0.267514
41359	0.237980	4.727893	9.453291	0.917350	0.252793	-0.129098	0.279102
41360	0.019801	4.954184	9.064687	0.916620	0.239632	-0.140869	0.287299
41361	0.499078	4.675985	7.799625	0.916480	0.225546	-0.155172	0.291743
41362	1.119614	4.318243	7.402022	0.916658	0.211630	-0.170260	0.293194
41363	1.949528	4.075588	6.289107	0.916983	0.198390	-0.186391	0.291618
41364	1.862480	4.234977	5.939700	0.917513	0.185586	-0.203381	0.286991
41365	1.928576	3.883498	5.389352	0.918409	0.173019	-0.221502	0.278434
41366	2.493371	3.791248	5.252991	0.919482	0.161764	-0.240075	0.265988
41367	3.154463	4.376345	4.665680	0.920756	0.150369	-0.259446	0.249571
41368	4.347360	4.356704	4.075865	0.922132	0.138832	-0.278138	0.230298
41369	5.195228	3.110866	3.793448	0.923404	0.128244	-0.295454	0.208773
41370	5.551285	1.854490	4.082795	0.924254	0.121173	-0.310685	0.185867
41371	4.839910	2.976031	4.395760	0.924682	0.118184	-0.323639	0.162031
41372	4.109919	3.816528	5.386401	0.924589	0.115184	-0.336521	0.136463
41373	4.310318	3.042346	5.840904	0.923815	0.112642	-0.349080	0.109642
41374	3.852663	2.701890	6.517570	0.922049	0.110855	-0.361664	0.082079
41375	4.706085	3.506455	6.134268	0.919542	0.110384	-0.373250	0.054235
41376	5.872163	5.179348	5.748904	0.916783	0.110031	-0.383069	0.025689
41377	6.786002	5.549870	5.064373	0.914109	0.107737	-0.390873	-0.003960
41378	7.622128	4.037237	4.393384	0.911447	0.103463	-0.396769	-0.033694
41379	7.819273	1.291825	4.749646	0.908275	0.100852	-0.401296	-0.061872
41380	6.227031	2.997692	5.034623	0.904307	0.102903	-0.404894	-0.087749
41381	5.770040	6.148776	4.431067	0.899811	0.103814	-0.407979	-0.114530
41382	6.021541	5.955388	3.163723	0.895083	0.103170	-0.410318	-0.140785
41383	5.987433	5.783810	2.292501	0.890098	0.102807	-0.412102	-0.165313
41384	6.246586	5.522723	2.040603	0.884893	0.102753	-0.413323	-0.188601
41385	5.422174	4.704375	2.637623	0.879112	0.104440	-0.414855	-0.210118
41386	4.368598	4.861140	2.566856	0.872397	0.110279	-0.417733	-0.228606
41387	4.781753	6.550762	2.143432	0.864948	0.118363	-0.421669	-0.245054
41388	5.117716	6.695987	1.764286	0.857318	0.125921	-0.426178	-0.259852
41389	5.657786	6.397033	1.802639	0.850020	0.132262	-0.430633	-0.272999
41390	6.440439	6.095176	2.370223	0.843228	0.138526	-0.434984	-0.283841
41391	6.386074	5.511927	2.610755	0.837502	0.144848	-0.438572	-0.291999
41392	6.791395	7.038544	3.025968	0.833481	0.150240	-0.439705	-0.298992
41393	7.178805	6.384287	3.293846	0.831442	0.154462	-0.437872	-0.305146
41394	7.374902	6.137237	3.794471	0.831353	0.157733	-0.433342	-0.310139
41395	7.740388	6.062540	4.578605	0.832655	0.161030	-0.427439	-0.313132
41396	8.157280	5.946112	5.396243	0.834859	0.164747	-0.421477	-0.313409
41397	7.978932	5.887669	6.484615	0.837274	0.168342	-0.415897	-0.312510
41398	8.072602	5.454185	7.538026	0.839231	0.171644	-0.411430	-0.311375
41399	8.478819	5.273978	8.580490	0.840521	0.174293	-0.408934	-0.309708
41400	7.960161	4.789301	9.097376	0.840812	0.176496	-0.409093	-0.307453
41401	8.055575	5.258369	8.765936	0.840160	0.178491	-0.411489	-0.304876
41402	8.294521	6.014917	8.007469	0.839229	0.178933	-0.414536	-0.303047
41403	8.489912	6.344516	7.371341	0.838576	0.177987	-0.416889	-0.302183
41404	8.707248	6.736046	7.402281	0.838411	0.176925	-0.418298	-0.301315
41405	8.574894	7.352384	7.814455	0.838621	0.176906	-0.418988	-0.299779
41406	8.447792	7.592204	8.168643	0.838930	0.177955	-0.419022	-0.298242
41407	8.534116	7.596754	8.509759	0.839120	0.180242	-0.418420	-0.297178
41408	8.863547	7.912106	8.853824	0.839153	0.182760	-0.417229	-0.297221
41409	9.556119	8.434162	9.195009	0.839105	0.185034	-0.415740	-0.298037
41410	10.349225	9.460806	9.630210	0.838968	0.187618	-0.414464	-0.298582
41411	10.937693	9.952281	10.183949	0.838909	0.189775	-0.413586	-0.298604
41412	10.983798	9.459763	10.725202	0.838689	0.191875	-0.413551	-0.297926
41413	10.530917	9.677565	11.121537	0.838140	0.193985	-0.414267	-0.297110
41414	10.152230	9.800882	11.230145	0.837582	0.194602	-0.415313	-0.296818
41415	9.731238	9.495690	10.751350	0.837085	0.193985	-0.416862	-0.296454
41416	9.147210	9.734514	10.076575	0.836865	0.191963	-0.418883	-0.295541
41417	8.441028	9.000130	9.214566	0.836986	0.188125	-0.421006	-0.294648
41418	8.471024	8.379614	8.386475	0.837154	0.184242	-0.423117	-0.293599
41419	8.532282	8.224463	8.004347	0.837277	0.180419	-0.425015	-0.292880
41420	8.204039	7.171798	7.671039	0.837154	0.176884	-0.426970	-0.292544
41421	8.334003	6.487695	7.196958	0.836479	0.174957	-0.429626	-0.291745
41422	8.072770	6.444684	6.635122	0.835459	0.173339	-0.432442	-0.291471
41423	7.781529	6.273738	6.023454	0.834341	0.171844	-0.434609	-0.292336
41424	7.308525	6.347447	5.556970	0.833495	0.170662	-0.435300	-0.294404
41425	6.671580	6.021196	5.237763	0.833281	0.169769	-0.434201	-0.297137
41426	6.107248	5.120742	4.730772	0.833845	0.169723	-0.431792	-0.299086
41427	5.488709	4.697436	4.135034	0.835046	0.170531	-0.428560	-0.299922
41428	4.894481	3.987875	3.665348	0.836594	0.171286	-0.424748	-0.300601
41429	4.743418	3.920604	3.370118	0.838314	0.172180	-0.420068	-0.301871
41430	4.296663	3.806007	3.019729	0.840066	0.173096	-0.414479	-0.304194
41431	3.821715	3.685609	2.977748	0.841736	0.174288	-0.408795	-0.306580
41432	3.804334	3.147123	2.636759	0.843554	0.175451	-0.403504	-0.307924
41433	3.714633	2.653281	1.956221	0.845794	0.176528	-0.398311	-0.307926
41434	3.291615	2.222023	1.265332	0.848581	0.177003	-0.392976	-0.306840
41435	3.097479	2.004203	0.898480	0.852038	0.176648	-0.387354	-0.304604
41436	2.920836	1.811873	0.959113	0.855979	0.175500	-0.381791	-0.301223
41437	3.027344	1.539226	1.184133	0.860010	0.174872	-0.376793	-0.296361
41438	3.279604	2.342850	1.296364	0.863842	0.175683	-0.372866	-0.289626
41439	3.802173	3.243763	0.918643	0.867852	0.174997	-0.369453	-0.282335
41440	4.215954	2.311005	0.736653	0.872733	0.172168	-0.364877	-0.274881
41441	4.161022	1.239082	1.532468	0.877572	0.171048	-0.360429	-0.265897
41442	4.303507	2.107532	2.161038	0.881937	0.174059	-0.356648	-0.254347
41443	4.850967	3.635932	2.504294	0.885851	0.180395	-0.352876	-0.241256
41444	5.689286	5.294352	2.294019	0.889628	0.189174	-0.348470	-0.226592
41445	6.383402	6.702582	2.439907	0.893480	0.198736	-0.343105	-0.210896
41446	6.421041	7.741300	3.023974	0.897659	0.207450	-0.336665	-0.194497
41447	6.485063	7.857821	3.419932	0.902162	0.214917	-0.329179	-0.177640
41448	6.698481	8.213097	4.328288	0.906441	0.224533	-0.320460	-0.158919
41449	7.189157	9.223716	4.472336	0.910370	0.234656	-0.311133	-0.139136
41450	8.046503	9.678357	3.960689	0.913856	0.244628	-0.301691	-0.118354
41451	8.887321	10.087551	4.015248	0.916963	0.254808	-0.291892	-0.095135
41452	8.777067	10.280862	4.767805	0.920159	0.263498	-0.281298	-0.068908
41453	8.565837	9.040856	5.029874	0.923318	0.268871	-0.271114	-0.041110
41454	9.120463	6.902718	4.352188	0.926010	0.273121	-0.260298	-0.012439
41455	9.147509	7.417222	4.295056	0.928058	0.278441	-0.246649	0.018554
41456	8.650518	9.559546	3.995531	0.929621	0.282400	-0.231000	0.051911
41457	7.850539	10.875957	3.702825	0.931051	0.281957	-0.214655	0.086989
41458	6.990247	10.973908	3.525349	0.931948	0.278290	-0.196427	0.124273
41459	5.807749	10.743287	3.184420	0.931849	0.272404	-0.175219	0.163558
41460	4.510070	10.162094	3.033335	0.930293	0.265427	-0.150197	0.203826
41461	2.404891	9.507709	2.751033	0.927620	0.256277	-0.121737	0.242946
41462	0.165495	9.112141	2.655958	0.924142	0.244178	-0.090810	0.279451
41463	-0.990219	8.383075	2.093298	0.919878	0.229004	-0.058606	0.312965
41464	-1.408334	7.495686	1.289468	0.914747	0.211166	-0.025408	0.343512
41465	-1.683106	6.551306	0.576348	0.908442	0.191799	0.009914	0.371278
41466	-2.833809	6.427900	0.666503	0.900888	0.171596	0.047726	0.395825
41467	-3.991705	6.341438	0.670946	0.892821	0.149108	0.086936	0.416029
41468	-5.096829	6.215753	1.142408	0.884720	0.124564	0.126571	0.430969
41469	-6.024976	5.719486	1.527059	0.876853	0.098559	0.165630	0.440434
41470	-6.834725	4.966237	1.759043	0.869075	0.070191	0.203741	0.445276
41471	-8.321690	4.937887	2.695958	0.860906	0.039697	0.239760	0.446968
41472	-8.916534	5.330712	3.776487	0.851561	0.005868	0.272547	0.447803
41473	-10.027476	5.375045	4.853368	0.840302	-0.032545	0.302093	0.448969
41474	-11.369655	4.807807	5.352573	0.826804	-0.076071	0.328084	0.450521
41475	-13.378740	4.036858	5.964607	0.811553	-0.123375	0.348744	0.452259
41476	-13.969597	2.145120	5.880426	0.794292	-0.171772	0.364916	0.454347
41477	-13.163516	0.455654	5.431673	0.774955	-0.217691	0.379028	0.456501
41478	-12.393577	-0.207793	4.731830	0.753593	-0.259731	0.392493	0.458897
41479	-12.351050	-0.059477	4.032815	0.730160	-0.298978	0.404835	0.462155
41480	-12.441181	-0.737062	2.965116	0.704765	-0.336661	0.414948	0.466673
41481	-11.853474	-1.868937	2.004941	0.677868	-0.373044	0.422403	0.472132
41482	-11.057646	-2.941959	1.101828	0.650156	-0.407511	0.427273	0.478194
41483	-10.190343	-3.461061	0.477652	0.622585	-0.439136	0.430214	0.484215
41484	-9.262424	-3.314718	-0.099756	0.595834	-0.468316	0.431227	0.489596
41485	-8.611443	-4.062310	-0.971203	0.570282	-0.495828	0.430295	0.493741
41486	-8.504291	-5.092627	-1.823025	0.546808	-0.521566	0.427479	0.496217
41487	-6.994743	-5.804046	-2.382768	0.525646	-0.545508	0.423584	0.496683
41488	-5.482792	-5.776731	-2.765441	0.506748	-0.568106	0.420372	0.493709
41489	-5.512734	-4.921235	-2.618305	0.489010	-0.590091	0.417861	0.487908
41490	-6.108717	-3.897725	-2.465442	0.470731	-0.612380	0.413984	0.481685
41491	-5.315453	-3.101432	-3.380590	0.450587	-0.635985	0.407028	0.476259
41492	-4.363139	-3.907317	-4.191363	0.430269	-0.660489	0.398349	0.468978
41493	-5.198300	-4.143457	-4.532033	0.413471	-0.684532	0.389944	0.456510
41494	-7.443684	-3.161309	-3.783349	0.401136	-0.707144	0.382875	0.438684
41495	-8.984878	-3.012037	-2.246577	0.389852	-0.728627	0.376756	0.418537
41496	-9.391348	-2.755491	-2.449605	0.377520	-0.748463	0.371889	0.398723
41497	-9.182544	-3.672791	-2.835635	0.359856	-0.768562	0.365752	0.382155
41498	-10.046275	-5.219812	-4.034771	0.339866	-0.787832	0.358419	0.367897
41499	-9.825621	-5.566741	-5.539400	0.322549	-0.804539	0.351097	0.354131
41500	-10.719243	-4.243405	-6.377953	0.309674	-0.818785	0.343733	0.339914
41501	-13.715573	-2.253284	-6.998956	0.299426	-0.831886	0.333976	0.326757
41502	-15.013914	-2.589284	-8.753575	0.288593	-0.844495	0.319903	0.318127
41503	-13.734334	-4.649390	-10.974834	0.279108	-0.855222	0.305226	0.312301
41504	-10.994881	-6.352323	-11.798870	0.276212	-0.862032	0.294603	0.306294
41505	-8.950132	-4.737511	-10.522620	0.279450	-0.865381	0.288811	0.299351
41506	-8.505228	-1.498388	-8.411424	0.282389	-0.868080	0.283966	0.293355
41507	-8.789192	-1.406130	-7.963965	0.279985	-0.872233	0.276313	0.290636
41508	-9.149665	-4.315281	-9.719088	0.278162	-0.875545	0.267833	0.290365
41509	-10.580257	-5.600357	-11.522812	0.284896	-0.875197	0.261532	0.290630
41510	-12.157261	-5.790639	-12.334083	0.302762	-0.869729	0.258906	0.291331
41511	-14.147811	-4.324871	-11.651205	0.329812	-0.858494	0.260677	0.293698
41512	-15.666897	-4.311932	-10.729230	0.361039	-0.841905	0.264931	0.301095
41513	-16.854856	-6.180682	-10.700954	0.397637	-0.818125	0.271348	0.314525
41514	-18.023462	-7.680152	-10.888589	0.442310	-0.783726	0.281083	0.333359
41515	-18.194120	-7.595671	-10.707976	0.492523	-0.737636	0.293907	0.356277
41516	-18.466691	-5.834295	-8.090443	0.542718	-0.681455	0.307649	0.382660
41517	-18.928303	-4.220702	-5.942854	0.587213	-0.618608	0.319410	0.412895
41518	-17.404931	-2.393566	-3.559542	0.624280	-0.551121	0.328704	0.445527
41519	-14.692395	-2.279132	-1.376980	0.652424	-0.482216	0.333502	0.480194
41520	-11.551241	-1.737466	0.269079	0.672915	-0.412877	0.333146	0.515492
41521	-8.502548	-2.004382	0.889596	0.685770	-0.345577	0.326657	0.550990
41522	-4.991504	-2.061002	1.534856	0.692455	-0.279882	0.316137	0.585005
41523	-2.500826	-1.113374	3.263958	0.693874	-0.216127	0.302738	0.616586
41524	-2.526967	-0.014440	4.678390	0.690305	-0.156574	0.284600	0.646504
41525	-3.253984	-0.400000	5.217188	0.682645	-0.103530	0.259939	0.675062
41526	-3.761943	-1.707993	4.760429	0.672806	-0.055776	0.230418	0.700805
41527	-4.254910	-3.189114	3.978279	0.662489	-0.013047	0.196781	0.722645
41528	-3.945443	-4.046539	3.322139	0.652564	0.027082	0.161466	0.739835
41529	-3.455307	-3.147701	3.031395	0.643036	0.064107	0.126109	0.752656
41530	-3.485780	-1.826294	2.910397	0.634712	0.097109	0.088845	0.761458
41531	-4.320558	-1.140492	3.309176	0.628603	0.123693	0.048469	0.766296
41532	-5.096163	-4.694822	1.669573	0.629332	0.143471	-0.001374	0.763777
41533	1.444030	-6.786918	-0.695586	0.634416	0.159019	-0.046609	0.755021
41534	2.340268	-2.855037	0.639464	0.639232	0.178509	-0.073956	0.744343
41535	0.251767	4.197334	2.800792	0.643878	0.195744	-0.100355	0.732826
41536	0.901676	2.884385	3.103930	0.648934	0.204911	-0.133598	0.720450
41537	3.641896	0.293729	2.529123	0.653494	0.215275	-0.162302	0.707291
41538	5.185919	0.981280	2.278334	0.658556	0.226437	-0.185571	0.693248
41539	6.298589	1.100528	2.885782	0.664843	0.235631	-0.205929	0.678274
41540	7.659812	0.166469	3.999263	0.671991	0.242846	-0.223480	0.662955
41541	7.555563	-0.370835	5.177404	0.679762	0.249598	-0.236480	0.647844
41542	6.395317	0.255409	5.923801	0.687604	0.256329	-0.245750	0.633327
41543	6.091119	0.611765	5.725101	0.695537	0.261667	-0.253278	0.619361
41544	6.278631	-0.063865	5.436617	0.703825	0.264715	-0.259675	0.605908
41545	6.414078	-0.656479	5.012102	0.712316	0.266790	-0.263504	0.593291
41546	6.261382	-0.346793	4.898044	0.721448	0.268050	-0.264189	0.581263
41547	6.060305	-0.201970	4.665982	0.731584	0.268655	-0.261588	0.569369
41548	5.980585	-0.206903	4.380553	0.743125	0.268880	-0.254997	0.557176
41549	5.887143	-0.264102	4.121611	0.755766	0.269895	-0.242878	0.544963
41550	5.142093	0.262809	4.379485	0.769069	0.272538	-0.224065	0.532964
41551	3.930924	0.362408	4.281850	0.783206	0.275952	-0.199099	0.520383
41552	2.843545	-0.183098	4.045493	0.797839	0.280189	-0.167637	0.506799
41553	1.629943	-0.416921	3.666787	0.812212	0.285630	-0.130122	0.491727
41554	0.195757	-0.069634	3.242161	0.826038	0.291170	-0.087965	0.474492
41555	-2.476256	1.670191	5.517504	0.837325	0.298366	-0.041979	0.456181
41556	-3.078661	4.833958	6.568561	0.845988	0.306950	0.003622	0.435973
41557	-1.563967	4.973491	5.588901	0.855832	0.308918	0.044937	0.412434
41558	0.041127	2.450730	5.039314	0.866431	0.305948	0.085225	0.385265
41559	0.317117	2.930956	4.355531	0.875504	0.304413	0.128822	0.352462
41560	-1.970206	7.532545	5.563862	0.880882	0.306431	0.176474	0.314648
41561	-4.667353	12.385397	7.139761	0.884871	0.303836	0.222716	0.274014
41562	-5.103025	10.847796	6.776782	0.890714	0.286987	0.264336	0.233224
41563	-5.004332	6.802955	5.733340	0.894459	0.264850	0.304922	0.191886
41564	-7.850078	4.851558	4.818743	0.890005	0.252876	0.349854	0.146788
41565	-12.814696	5.606665	4.891466	0.877338	0.251402	0.396836	0.097964
41566	-17.659529	6.448445	4.837173	0.860526	0.249453	0.441362	0.049668
41567	-20.252782	6.280588	4.645607	0.842502	0.244931	0.479781	0.003002
41568	-18.633949	5.380689	3.605477	0.823771	0.239545	0.511973	-0.043627
41569	-18.037016	4.341681	2.821312	0.802442	0.238655	0.539354	-0.090707
41570	-18.384498	3.425662	2.345008	0.779978	0.241595	0.561095	-0.135790
41571	-18.783001	3.203355	4.098721	0.756463	0.251912	0.576500	-0.178750
41572	-17.688192	5.022672	1.260828	0.736524	0.270507	0.579534	-0.220224
41573	-15.754003	5.366240	-0.755331	0.721771	0.286109	0.576773	-0.254012
41574	-14.044527	4.815162	0.204061	0.712136	0.295220	0.570846	-0.282563
41575	-12.699391	5.054787	-0.501518	0.703990	0.301570	0.564616	-0.307672
41576	-12.286435	5.713379	-0.164478	0.699092	0.302688	0.559391	-0.326700
41577	-11.899456	5.426173	-0.307954	0.697227	0.300228	0.554910	-0.340312
41578	-12.172809	4.203848	-0.046680	0.697144	0.296604	0.550400	-0.350822
41579	-11.869662	3.145177	0.440099	0.697134	0.295051	0.543865	-0.362159
41580	-11.214411	3.145618	0.397163	0.696110	0.297603	0.534058	-0.376359
41581	-10.426301	3.727719	0.083441	0.694194	0.304451	0.520776	-0.392679
41582	-9.920835	4.564409	-0.330227	0.691958	0.314107	0.505029	-0.409240
41583	-9.895219	4.979610	-0.451051	0.689961	0.324433	0.487973	-0.424947
41584	-9.629287	4.766960	-0.718293	0.688597	0.334119	0.470201	-0.439443
41585	-9.677467	3.930906	-0.949774	0.687983	0.343124	0.451960	-0.452413
41586	-9.887736	2.834953	-1.113451	0.688067	0.351697	0.433210	-0.463900
41587	-10.259213	1.758757	-1.047053	0.688729	0.360902	0.412908	-0.474246
41588	-10.055106	1.527024	-1.143423	0.689606	0.371715	0.390388	-0.483600
41589	-9.938196	2.101551	-0.842095	0.690803	0.383647	0.366250	-0.491393
41590	-9.715798	2.420111	-0.533033	0.692970	0.394917	0.341723	-0.497050
41591	-9.311579	2.545500	-0.092502	0.695991	0.404945	0.317551	-0.500776
41592	-8.718671	2.550512	0.214954	0.699883	0.412855	0.294646	-0.502889
41593	-8.116241	2.663612	0.634479	0.703988	0.419112	0.273520	-0.503917
41594	-7.619234	2.894245	0.888423	0.707717	0.424002	0.254922	-0.504354
41595	-7.066190	3.104789	1.303732	0.711078	0.427443	0.238967	-0.504534
41596	-6.766681	3.041302	1.450244	0.713707	0.429810	0.225640	-0.504949
41597	-6.762553	3.009407	1.652026	0.714814	0.432870	0.213796	-0.505921
41598	-6.724495	3.194563	1.864801	0.714139	0.437191	0.203098	-0.507564
41599	-6.740779	3.771438	2.524988	0.711823	0.442644	0.193516	-0.509829
41600	-6.275377	3.894129	3.075867	0.708659	0.447873	0.186094	-0.512427
41601	-6.335603	3.903650	3.445670	0.703857	0.454552	0.179383	-0.515547
41602	-6.471475	4.671378	3.714150	0.697324	0.463255	0.172235	-0.519104
41603	-6.724846	5.241142	3.924218	0.689984	0.472702	0.165208	-0.522668
41604	-6.987274	5.729079	3.881547	0.682431	0.481689	0.158872	-0.526329
41605	-7.381986	6.287625	4.005299	0.674699	0.490030	0.153345	-0.530223
41606	-7.504061	6.553251	4.220119	0.666949	0.497809	0.147647	-0.534383
41607	-7.549123	7.082207	4.849545	0.659354	0.505239	0.141353	-0.538521
41608	-7.559468	7.432757	5.434609	0.652391	0.512158	0.134430	-0.542226
41609	-7.235354	7.546994	5.718860	0.645762	0.519154	0.126930	-0.545306
41610	-7.016484	7.905619	6.069643	0.639371	0.526176	0.119602	-0.547758
41611	-6.929701	8.079236	6.326883	0.633335	0.533067	0.112880	-0.549530
41612	-6.731872	8.199179	6.592466	0.628021	0.539648	0.106829	-0.550416
41613	-6.752773	8.010397	6.859475	0.624503	0.544722	0.102345	-0.550272
41614	-6.942969	7.650085	6.942234	0.622639	0.548319	0.098668	-0.549483
41615	-7.127501	7.352064	6.887423	0.622026	0.550857	0.094874	-0.548305
41616	-7.184230	7.429647	6.788266	0.622878	0.551997	0.090912	-0.546862
41617	-7.230357	7.203177	6.693600	0.625158	0.551636	0.086289	-0.545371
41618	-7.008593	6.607170	6.462803	0.627935	0.550550	0.080460	-0.544168
41619	-6.604245	6.371924	6.099416	0.630653	0.549087	0.073600	-0.543474
41620	-6.266333	6.207739	5.816219	0.633258	0.547475	0.065881	-0.543061
41621	-5.823755	5.946242	5.428668	0.635761	0.545996	0.057407	-0.542587
41622	-5.400213	5.736601	5.176650	0.638370	0.544437	0.048661	-0.541945
41623	-4.933316	5.493705	5.005010	0.641243	0.542471	0.040245	-0.541215
41624	-4.663096	5.365270	5.018508	0.644269	0.540208	0.032302	-0.540416
41625	-4.586020	5.345396	4.896239	0.647301	0.537718	0.024781	-0.539673
41626	-4.604317	5.325199	4.938469	0.650689	0.534469	0.018507	-0.539078
41627	-4.692099	5.134183	4.805048	0.654000	0.531022	0.013038	-0.538637
41628	-4.859604	5.189230	4.891237	0.656905	0.527678	0.007966	-0.538488
41629	-4.965557	5.139222	4.777335	0.659349	0.524534	0.003291	-0.538621
41630	-4.998579	5.030846	4.586542	0.660944	0.522045	-0.001276	-0.539092
41631	-5.253756	5.087505	4.697077	0.661687	0.520100	-0.005553	-0.540034
41632	-5.745578	4.279979	4.930532	0.661928	0.517818	-0.009124	-0.541879
41633	-6.115602	4.058563	5.285602	0.660793	0.516465	-0.013125	-0.544467
41634	-5.984614	4.008730	5.003380	0.658352	0.516400	-0.017577	-0.547352
41635	-6.982351	4.105067	5.615160	0.655122	0.516649	-0.021917	-0.550826
41636	-7.875979	4.471949	5.856605	0.651790	0.515654	-0.026189	-0.555504
41637	-7.966043	5.015430	5.814282	0.648741	0.512729	-0.030052	-0.561553
41638	-7.555442	4.608716	5.325376	0.646045	0.508001	-0.033044	-0.568744
41639	-6.883126	4.341355	4.503833	0.643065	0.502933	-0.035043	-0.576453
41640	-6.545417	4.650627	4.236564	0.639557	0.498280	-0.035747	-0.584300
41641	-6.332267	4.929122	4.245628	0.635724	0.494241	-0.034986	-0.591910
41642	-6.343317	4.915989	4.475952	0.631439	0.491151	-0.033033	-0.599136
41643	-7.386701	4.756183	5.281373	0.626124	0.489826	-0.030570	-0.605891
41644	-8.659644	4.483658	6.273731	0.620050	0.488196	-0.028071	-0.613527
41645	-8.718299	4.251859	5.937436	0.612748	0.486047	-0.026318	-0.622579
41646	-7.975400	4.540874	4.956273	0.603193	0.486363	-0.026954	-0.631572
41647	-7.772380	5.439857	4.473290	0.592678	0.488831	-0.029378	-0.639464
41648	-7.154206	6.189439	4.267720	0.583036	0.491442	-0.031807	-0.646175
41649	-6.035438	6.243600	4.267946	0.574984	0.493521	-0.032399	-0.651752
41650	-5.125053	5.610472	4.206899	0.568011	0.495510	-0.030997	-0.656409
41651	-4.550113	5.232022	4.421008	0.560963	0.498521	-0.028952	-0.660271
41652	-4.372486	5.190504	4.623239	0.554007	0.502186	-0.026087	-0.663480
41653	-4.283341	5.079601	4.816054	0.546789	0.506721	-0.023118	-0.666124
41654	-4.405156	5.418493	5.320255	0.538873	0.512396	-0.020967	-0.668301
41655	-4.633357	6.065921	5.469731	0.531060	0.517748	-0.018921	-0.670488
41656	-4.651944	6.754888	5.604067	0.523143	0.523115	-0.017803	-0.672573
41657	-5.015987	7.091598	5.266736	0.515006	0.528368	-0.016451	-0.674778
41658	-5.564773	6.762611	5.757745	0.506056	0.534069	-0.016661	-0.677053
41659	-6.246769	7.219056	6.766642	0.495869	0.540047	-0.021216	-0.679715
41660	-6.020427	8.096226	6.574150	0.487328	0.542434	-0.027265	-0.683764
41661	-4.554493	8.916243	5.309285	0.480381	0.542827	-0.032830	-0.688110
41662	-4.061424	8.829232	4.228055	0.476562	0.541965	-0.034466	-0.691357
41663	-4.641632	8.374866	2.214474	0.474715	0.540203	-0.032569	-0.694093
41664	-5.206908	8.894701	2.887976	0.471981	0.539997	-0.030498	-0.696209
41665	-5.856871	8.472891	3.411526	0.469251	0.540103	-0.029271	-0.698022
41666	-7.011642	7.105897	3.301988	0.465855	0.541626	-0.028631	-0.699143
41667	-7.473040	7.266846	3.000143	0.461728	0.541876	-0.029237	-0.701657
41668	-6.643770	7.703329	2.176891	0.457773	0.543123	-0.028107	-0.703329
41669	-7.194141	6.552941	3.031154	0.456135	0.541984	-0.023758	-0.705429
41670	-6.497984	5.543820	2.391982	0.455150	0.539925	-0.016170	-0.707855
41671	-6.539157	4.253646	3.029270	0.455031	0.536911	-0.005534	-0.710382
41672	-6.066214	2.994664	2.544011	0.454342	0.534964	0.004011	-0.712300
41673	-5.764281	3.792533	2.319853	0.451238	0.536772	0.009422	-0.712862
41674	-6.049435	5.033089	3.278924	0.448259	0.539586	0.013517	-0.712550
41675	-6.440382	5.392051	4.667712	0.446174	0.541326	0.017156	-0.712461
41676	-6.888069	6.199194	4.734978	0.444198	0.543611	0.018266	-0.711928
41677	-7.410036	6.724337	4.673101	0.444039	0.545255	0.017814	-0.710781
41678	-7.509608	7.532373	4.816084	0.445264	0.546860	0.016092	-0.708820
41679	-8.068058	7.659652	4.963026	0.447615	0.546947	0.013633	-0.707322
41680	-8.357766	6.866373	4.868700	0.450058	0.545300	0.010488	-0.707096
41681	-8.293163	6.029666	4.410454	0.451440	0.542211	0.005925	-0.708642
41682	-8.401661	5.574589	3.847234	0.451135	0.538192	-0.000601	-0.711917
41683	-8.681290	5.351050	3.617618	0.448937	0.534041	-0.010062	-0.716348
41684	-8.620654	5.676443	3.027483	0.445171	0.529714	-0.021926	-0.721627
41685	-6.916516	7.493124	0.867225	0.441566	0.525327	-0.033892	-0.726569
41686	-6.773013	6.247136	2.862948	0.439618	0.521043	-0.043216	-0.730331
41687	-6.693024	4.597987	3.160928	0.437339	0.515424	-0.052595	-0.735055
41688	-6.131204	4.869939	3.574071	0.433548	0.511528	-0.062924	-0.739199
41689	-6.025056	4.957013	4.101898	0.428323	0.508720	-0.074597	-0.743087
41690	-5.943205	5.073387	4.188412	0.422113	0.507185	-0.087383	-0.746290
41691	-5.871016	5.510913	4.402742	0.415393	0.506711	-0.101214	-0.748631
41692	-5.725419	5.980235	4.509596	0.408500	0.506840	-0.115454	-0.750274
41693	-5.706783	6.327578	4.666141	0.401618	0.507245	-0.129373	-0.751444
41694	-5.463453	6.412321	4.638959	0.395343	0.507450	-0.141964	-0.752360
41695	-5.425200	6.267222	4.762561	0.389650	0.507450	-0.153114	-0.753143
41696	-5.365662	6.252283	4.734669	0.384187	0.507610	-0.163440	-0.753671
41697	-5.371821	6.353743	4.791225	0.378800	0.508019	-0.173150	-0.753954
41698	-5.335209	6.741582	4.938889	0.373663	0.508381	-0.182000	-0.754189
41699	-5.218727	7.032861	5.025794	0.369248	0.508384	-0.189331	-0.754557
41700	-5.009517	6.923974	5.067441	0.365499	0.508126	-0.195344	-0.755023
41701	-4.754225	6.730759	5.069612	0.362283	0.507859	-0.200225	-0.755473
41702	-4.680167	6.682440	5.005373	0.359494	0.507705	-0.204124	-0.755865
41703	-4.579398	6.720600	5.030806	0.357203	0.507732	-0.207249	-0.756083
41704	-4.568538	6.805651	5.086993	0.355352	0.508169	-0.209600	-0.756014
41705	-4.853649	7.082927	5.159237	0.353899	0.509009	-0.211223	-0.755679
41706	-5.084941	7.211529	5.203774	0.352784	0.510014	-0.212026	-0.755298
41707	-5.379599	7.383428	5.267948	0.351925	0.510895	-0.212215	-0.755050
41708	-5.654723	7.674297	5.368644	0.351365	0.511469	-0.211956	-0.754995
41709	-5.914981	8.027122	5.437776	0.350721	0.511750	-0.211692	-0.755177
41710	-6.206024	8.490905	5.568280	0.349959	0.511615	-0.211361	-0.755715
41711	-6.478978	8.705441	5.696497	0.349129	0.510899	-0.210821	-0.756734
41712	-6.725406	8.723887	5.796407	0.347972	0.509887	-0.210703	-0.757981
41713	-6.899773	8.853164	5.855011	0.346447	0.508793	-0.211413	-0.759216
41714	-7.273213	9.044198	5.958926	0.344841	0.507426	-0.212694	-0.760504
41715	-7.556592	8.992735	5.898895	0.343477	0.505364	-0.214276	-0.762048
41716	-7.451529	8.773527	5.665701	0.342870	0.502035	-0.215746	-0.764104
41717	-7.132380	7.762602	5.259863	0.343541	0.497370	-0.217088	-0.766470
41718	-6.362887	6.872694	5.060740	0.345210	0.491688	-0.219083	-0.768814
41719	-5.638462	6.205085	4.868646	0.348003	0.485237	-0.221042	-0.771090
41720	-5.016311	5.534069	4.484028	0.351136	0.478820	-0.223626	-0.772934
41721	-5.021925	5.629365	4.745473	0.355271	0.472184	-0.225221	-0.774661
41722	-5.162915	5.141101	4.282614	0.360124	0.464253	-0.224821	-0.777326
41723	-4.989829	5.084330	3.945748	0.364826	0.455951	-0.223482	-0.780427
41724	-5.122651	5.820413	4.124897	0.369271	0.447392	-0.222027	-0.783698
41725	-5.406965	7.078005	4.041003	0.373794	0.438332	-0.220043	-0.787225
41726	-5.771281	7.378866	4.004582	0.379312	0.427301	-0.216732	-0.791558
41727	-5.375780	6.729915	3.642839	0.385314	0.415160	-0.212274	-0.796313
41728	-5.304477	6.116247	3.897970	0.390913	0.402549	-0.208200	-0.801121
41729	-5.400709	5.451312	3.892819	0.395411	0.390145	-0.204856	-0.805898
41730	-5.665555	5.971423	4.522453	0.398359	0.378657	-0.202643	-0.810472
41731	-6.140701	5.822810	5.011640	0.400666	0.366538	-0.199838	-0.815586
41732	-6.366215	6.014077	5.502162	0.401928	0.354287	-0.198077	-0.820792
41733	-6.411447	6.336233	5.611312	0.402406	0.342608	-0.197776	-0.825575
41734	-5.909696	5.834491	5.313036	0.402846	0.331316	-0.198644	-0.829750
41735	-5.298056	5.006302	5.230519	0.403286	0.321353	-0.201369	-0.832792
41736	-5.003731	5.135234	5.382132	0.403425	0.312848	-0.205728	-0.834896
41737	-4.617808	5.664911	5.779558	0.403771	0.304758	-0.209057	-0.836891
41738	-4.206433	5.254386	6.215288	0.404687	0.296892	-0.210909	-0.838809
41739	-3.810313	4.815799	6.436748	0.406157	0.289766	-0.212804	-0.840111
41740	-3.754213	5.278830	6.557331	0.408124	0.283339	-0.214748	-0.840855
41741	-3.375834	5.073304	6.683667	0.410739	0.277029	-0.215503	-0.841491
41742	-3.191999	4.824401	6.794896	0.413795	0.271354	-0.215593	-0.841820
41743	-3.170534	4.986017	6.992137	0.416855	0.266688	-0.215292	-0.841878
