// Start Time: Unknown
// Update Rate: 60.0Hz
// Filter Profile: human (46.1)
// Option Flags: AHS Disabled ICC Disabled 
// Firmware Version: 4.3.5
PacketCounter	Acc_X	Acc_Y	Acc_Z	Quat_q0	Quat_q1	Quat_q2	Quat_q3
43442	-9.522766	-0.060106	-2.321647	0.610106	0.091956	0.783196	-0.076933
43443	-9.461653	-0.103303	-2.488184	0.609993	0.092025	0.783263	-0.077058
43444	-9.515604	-0.067057	-2.305291	0.609933	0.092125	0.783278	-0.077265
43445	-9.422187	-0.036191	-2.498289	0.609884	0.092053	0.783326	-0.077255
43446	-9.526129	-0.035680	-2.453069	0.609786	0.092060	0.783391	-0.077352
43447	-9.532428	-0.075008	-2.327720	0.609661	0.091946	0.783500	-0.077377
43448	-9.517338	-0.036171	-2.280213	0.609620	0.091735	0.783566	-0.077282
43449	-9.454119	-0.165406	-2.490355	0.609554	0.091711	0.783610	-0.077384
43450	-9.487654	-0.156080	-2.422421	0.609410	0.091624	0.783728	-0.077426
43451	-9.489075	-0.152326	-2.411980	0.609300	0.091532	0.783819	-0.077487
43452	-9.488436	-0.154214	-2.414372	0.609202	0.091387	0.783912	-0.077483
43453	-9.478169	-0.153947	-2.464547	0.609081	0.091312	0.784011	-0.077521
43454	-9.454268	-0.125930	-2.412116	0.608935	0.091262	0.784120	-0.077621
43455	-9.539427	-0.177433	-2.375189	0.608862	0.091243	0.784171	-0.077700
43456	-9.496173	-0.200044	-2.440747	0.608827	0.091116	0.784215	-0.077680
43457	-9.518302	-0.181981	-2.374405	0.608681	0.091076	0.784321	-0.077795
43458	-9.498223	-0.198204	-2.320046	0.608537	0.091026	0.784427	-0.077915
43459	-9.529766	-0.085271	-2.329232	0.608424	0.091005	0.784505	-0.078038
43460	-9.541251	-0.145333	-2.452662	0.608403	0.090904	0.784535	-0.078022
43461	-9.509126	-0.151799	-2.509362	0.608421	0.090928	0.784505	-0.078154
43462	-9.542060	-0.202319	-2.363636	0.608451	0.090965	0.784466	-0.078269
43463	-9.484452	-0.238775	-2.401110	0.608563	0.090884	0.784394	-0.078213
43464	-9.486517	-0.208302	-2.379789	0.608647	0.090937	0.784312	-0.078316
43465	-9.430476	-0.196778	-2.550791	0.608710	0.090979	0.784254	-0.078359
43466	-9.473213	-0.126195	-2.362302	0.608647	0.091113	0.784264	-0.078596
43467	-9.503242	-0.177444	-2.443115	0.608627	0.091069	0.784287	-0.078577
43468	-9.497290	-0.126971	-2.400303	0.608567	0.091137	0.784317	-0.078657
43469	-9.511777	-0.155210	-2.391189	0.608572	0.091171	0.784300	-0.078749
43470	-9.534269	-0.161064	-2.439998	0.608627	0.091217	0.784243	-0.078834
43471	-9.452440	-0.167706	-2.534781	0.608694	0.091210	0.784193	-0.078827
43472	-9.489766	-0.125090	-2.331739	0.608743	0.091294	0.784136	-0.078921
43473	-9.483512	-0.141960	-2.370119	0.608809	0.091283	0.784088	-0.078898
43474	-9.446492	-0.053956	-2.416618	0.608842	0.091400	0.784036	-0.079020
43475	-9.559783	-0.135258	-2.463945	0.608863	0.091449	0.784005	-0.079116
43476	-9.470307	-0.152091	-2.441099	0.608896	0.091412	0.783982	-0.079130
43477	-9.514990	-0.193354	-2.445365	0.608978	0.091455	0.783901	-0.079257
43478	-9.442697	-0.152181	-2.367629	0.609121	0.091451	0.783786	-0.079298
43479	-9.445890	-0.129843	-2.504050	0.609219	0.091418	0.783707	-0.079359
43480	-9.478125	-0.150694	-2.563410	0.609250	0.091491	0.783660	-0.079506
43481	-9.497344	-0.154517	-2.467659	0.609239	0.091532	0.783659	-0.079547
43482	-9.383229	-0.170437	-2.408823	0.609296	0.091480	0.783631	-0.079444
43483	-9.376618	-0.107623	-2.418350	0.609264	0.091609	0.783622	-0.079633
43484	-9.438805	-0.099356	-2.528824	0.609319	0.091650	0.783560	-0.079777
43485	-9.470465	-0.120913	-2.590352	0.609195	0.091695	0.783637	-0.079919
43486	-9.518325	-0.126118	-2.455361	0.608967	0.091678	0.783807	-0.080004
43487	-9.468926	-0.165920	-2.450682	0.608859	0.091625	0.783891	-0.080064
43488	-9.471065	-0.106544	-2.415874	0.608716	0.091581	0.784000	-0.080133
43489	-9.454374	-0.191357	-2.476805	0.608604	0.091567	0.784076	-0.080255
43490	-9.486490	-0.200001	-2.369904	0.608388	0.091571	0.784227	-0.080422
43491	-9.509588	-0.215321	-2.469642	0.608216	0.091490	0.784362	-0.080492
43492	-9.484271	-0.138060	-2.406596	0.608082	0.091483	0.784447	-0.080678
43493	-9.479774	-0.189929	-2.499327	0.608024	0.091526	0.784469	-0.080860
43494	-9.515998	-0.174630	-2.417419	0.607923	0.091536	0.784533	-0.080988
43495	-9.422144	-0.266445	-2.494766	0.607736	0.091540	0.784671	-0.081046
43496	-9.464760	-0.242508	-2.534690	0.607459	0.091762	0.784821	-0.081422
43497	-9.433541	-0.261529	-2.430886	0.607206	0.091754	0.785008	-0.081513
43498	-9.431850	-0.146561	-2.342754	0.606914	0.091803	0.785200	-0.081787
43499	-9.456341	-0.208804	-2.553845	0.606667	0.091881	0.785350	-0.082082
43500	-9.602160	-0.122436	-2.480096	0.606275	0.091897	0.785629	-0.082295
43501	-9.631549	-0.166695	-2.297292	0.605959	0.091853	0.785865	-0.082416
43502	-9.553345	-0.205620	-2.225197	0.605753	0.091808	0.786021	-0.082494
43503	-9.545407	-0.158399	-2.297349	0.605669	0.091918	0.786046	-0.082751
43504	-9.513342	-0.200480	-2.517487	0.605686	0.092016	0.785995	-0.083005
43505	-9.490697	-0.219828	-2.684049	0.605627	0.092324	0.785954	-0.083476
43506	-9.517898	-0.156888	-2.426539	0.605521	0.092685	0.785940	-0.083976
43507	-9.488855	-0.062333	-2.482194	0.605441	0.092798	0.785961	-0.084231
43508	-9.505243	0.056010	-2.361605	0.605365	0.092947	0.785960	-0.084618
43509	-9.502164	0.109474	-2.306051	0.605329	0.092753	0.786002	-0.084700
43510	-9.456886	0.148897	-2.511006	0.605452	0.092307	0.785973	-0.084581
43511	-9.468130	0.056521	-2.537853	0.605369	0.091889	0.786095	-0.084498
43512	-9.466910	-0.101005	-2.338794	0.605509	0.091091	0.786136	-0.083980
43513	-9.483063	-0.284416	-2.372502	0.605656	0.090388	0.786152	-0.083520
43514	-9.497185	-0.439599	-2.612730	0.605824	0.089715	0.786151	-0.083035
43515	-9.580194	-0.539337	-2.550681	0.605851	0.089308	0.786183	-0.082978
43516	-9.473703	-0.511007	-2.542963	0.606095	0.088791	0.786077	-0.082755
43517	-9.439529	-0.394795	-2.568228	0.606242	0.088535	0.785992	-0.082754
43518	-9.425859	-0.485252	-2.666517	0.606618	0.088067	0.785793	-0.082389
43519	-9.377945	-0.548101	-2.769467	0.606849	0.087929	0.785633	-0.082363
43520	-9.376086	-0.520927	-2.614877	0.606976	0.087883	0.785541	-0.082359
43521	-9.385421	-0.540044	-2.524072	0.607080	0.088027	0.785430	-0.082496
43522	-9.409831	-0.478493	-2.488026	0.607109	0.088341	0.785330	-0.082898
43523	-9.450809	-0.357175	-2.611219	0.607155	0.088771	0.785185	-0.083465
43524	-9.516586	-0.239287	-2.560451	0.607099	0.089154	0.785137	-0.083914
43525	-9.593101	-0.148724	-2.256633	0.607134	0.089411	0.785055	-0.084154
43526	-9.526618	-0.194525	-2.286984	0.607264	0.089510	0.784938	-0.084205
43527	-9.520870	-0.249333	-2.387238	0.607419	0.089669	0.784784	-0.084358
43528	-9.517030	-0.274644	-2.468280	0.607563	0.089907	0.784612	-0.084664
43529	-9.523402	-0.221869	-2.472479	0.607696	0.090149	0.784448	-0.084975
43530	-9.525047	-0.144940	-2.227907	0.607782	0.090405	0.784315	-0.085317
43531	-9.504607	-0.097404	-2.208869	0.608006	0.090452	0.784123	-0.085427
43532	-9.438703	-0.222934	-2.476064	0.608283	0.090523	0.783879	-0.085622
43533	-9.493030	-0.188209	-2.511786	0.608416	0.090592	0.783746	-0.085820
43534	-9.509403	-0.294489	-2.413011	0.608736	0.090300	0.783554	-0.085616
43535	-9.399485	-0.355063	-2.456670	0.609107	0.090089	0.783298	-0.085543
43536	-9.400719	-0.409161	-2.685797	0.609271	0.090118	0.783152	-0.085678
43537	-9.502318	-0.313732	-2.514311	0.609400	0.090260	0.783008	-0.085925
43538	-9.409983	-0.326229	-2.342994	0.609610	0.090199	0.782849	-0.085952
43539	-9.351507	-0.315216	-2.478023	0.609909	0.090052	0.782636	-0.085919
43540	-9.399688	-0.256087	-2.591087	0.609830	0.090042	0.782682	-0.086071
43541	-9.486320	-0.170835	-2.387018	0.609716	0.090005	0.782753	-0.086274
43542	-9.472238	-0.221733	-2.203506	0.609603	0.089772	0.782878	-0.086181
43543	-9.428488	-0.312070	-2.240010	0.609564	0.089489	0.782955	-0.086052
43544	-9.479543	-0.256132	-2.390984	0.609359	0.089479	0.783089	-0.086292
43545	-9.549796	-0.253589	-2.459935	0.609036	0.089582	0.783297	-0.086578
43546	-9.612771	-0.124002	-2.148088	0.608679	0.089571	0.783563	-0.086697
43547	-9.667015	-0.044266	-2.006665	0.608413	0.089481	0.783774	-0.086745
43548	-9.619575	-0.037817	-2.136277	0.608349	0.089283	0.783855	-0.086662
43549	-9.598225	0.023820	-2.276520	0.608258	0.089132	0.783940	-0.086695
43550	-9.613471	-0.211882	-2.434546	0.608344	0.088865	0.783920	-0.086548
43551	-9.429880	-0.397393	-2.513373	0.608451	0.088744	0.783862	-0.086438
43552	-9.365158	-0.453318	-2.377917	0.608516	0.088841	0.783779	-0.086637
43553	-9.225279	-0.394386	-2.476951	0.608501	0.089200	0.783687	-0.087199
43554	-9.303070	-0.192152	-2.551277	0.608272	0.089562	0.783751	-0.087853
43555	-9.477805	-0.124160	-2.604280	0.607859	0.089660	0.784016	-0.088247
43556	-9.622033	-0.109861	-2.402535	0.607529	0.089391	0.784294	-0.088315
43557	-9.633190	-0.354343	-2.366582	0.607455	0.088747	0.784480	-0.087830
43558	-9.598263	-0.511123	-2.324452	0.607533	0.088288	0.784513	-0.087459
43559	-9.516423	-0.633912	-2.401331	0.607571	0.087935	0.784560	-0.087117
43560	-9.553983	-0.624649	-2.476084	0.607628	0.087869	0.784536	-0.087009
43561	-9.482434	-0.641649	-2.681454	0.607696	0.087972	0.784465	-0.087070
43562	-9.573824	-0.584445	-2.736883	0.607708	0.088382	0.784369	-0.087434
43563	-9.548227	-0.498671	-2.522658	0.607913	0.088808	0.784136	-0.087666
43564	-9.455168	-0.405220	-2.540086	0.608195	0.089227	0.783865	-0.087711
43565	-9.511988	-0.516828	-2.829219	0.608623	0.089513	0.783520	-0.087539
43566	-9.452338	-0.741998	-3.160109	0.608986	0.089777	0.783230	-0.087328
43567	-9.436211	-0.889383	-2.869805	0.609177	0.090305	0.783023	-0.087312
43568	-9.365096	-0.841253	-2.688055	0.609685	0.090923	0.782559	-0.087286
43569	-9.251288	-0.846092	-2.908839	0.610261	0.091572	0.782047	-0.087167
43570	-9.253456	-0.696641	-3.025079	0.610598	0.092505	0.781669	-0.087219
43571	-9.316786	-0.616536	-3.062104	0.610604	0.093447	0.781532	-0.087392
43572	-9.336557	-0.382194	-2.937098	0.610816	0.094131	0.781285	-0.087392
43573	-9.459085	-0.497902	-2.898587	0.610723	0.094586	0.781331	-0.087138
43574	-9.519009	-0.303076	-2.573863	0.610556	0.095104	0.781420	-0.086947
43575	-9.798429	-0.098537	-2.205136	0.610667	0.094884	0.781474	-0.085912
43576	-9.911532	-0.036357	-2.316294	0.611595	0.094210	0.781003	-0.084320
43577	-9.649804	-0.215628	-2.666982	0.612738	0.093634	0.780353	-0.082671
43578	-9.436120	-0.241316	-2.542497	0.613684	0.093857	0.779684	-0.081705
43579	-9.257560	-0.272054	-2.630458	0.614964	0.093713	0.778841	-0.080276
43580	-9.475981	-0.228788	-2.773904	0.616191	0.093791	0.777980	-0.079111
43581	-9.590903	-0.114431	-3.055969	0.617851	0.093855	0.776773	-0.077940
43582	-9.601381	-0.009331	-2.988075	0.619624	0.093996	0.775447	-0.076897
43583	-9.941561	0.098486	-2.716026	0.621758	0.093462	0.773990	-0.074977
43584	-9.473860	0.122899	-3.235679	0.624747	0.092490	0.771919	-0.072647
43585	-9.034369	0.408688	-3.271454	0.627577	0.091849	0.769907	-0.070386
43586	-9.154793	-0.172173	-3.882221	0.630681	0.090288	0.767876	-0.066745
43587	-9.409246	-0.864894	-3.727951	0.633647	0.089056	0.765852	-0.063486
43588	-9.448475	-0.625367	-3.200113	0.637255	0.087947	0.763183	-0.061008
43589	-9.028806	-0.352021	-3.053656	0.640809	0.086691	0.760524	-0.058745
43590	-8.262335	0.643592	-3.247154	0.643302	0.085579	0.758690	-0.056824
43591	-8.009236	1.020964	-3.262168	0.644612	0.083528	0.757992	-0.054285
43592	-8.400005	0.613117	-2.460045	0.645232	0.079978	0.758116	-0.050391
43593	-8.933790	-0.135280	-2.222470	0.645665	0.076070	0.758399	-0.046492
43594	-9.547614	-0.768350	-1.179959	0.646005	0.073264	0.758541	-0.043878
43595	-9.998265	-0.947284	-0.474906	0.646743	0.071779	0.758157	-0.042074
43596	-10.025151	-0.373895	0.131521	0.647120	0.072296	0.757796	-0.041885
43597	-10.048003	0.675161	0.021392	0.647564	0.075090	0.757043	-0.043699
43598	-10.071228	1.869939	0.955447	0.647913	0.078126	0.756317	-0.045715
43599	-9.875521	1.923733	0.673497	0.649016	0.078504	0.755349	-0.045412
43600	-9.969290	1.834616	0.604616	0.649917	0.077909	0.754677	-0.044731
43601	-10.542675	1.365990	0.567975	0.651069	0.075814	0.754012	-0.042735
43602	-10.072486	0.687070	0.532833	0.652463	0.073354	0.753170	-0.040577
43603	-9.365049	0.420461	0.139260	0.653404	0.071392	0.752632	-0.038882
43604	-9.063658	0.199032	-0.139856	0.653087	0.070829	0.752973	-0.038634
43605	-9.703623	0.608897	0.077001	0.651957	0.071174	0.753885	-0.039276
43606	-10.384602	0.811789	0.435727	0.650499	0.071572	0.755061	-0.040138
43607	-11.364561	1.154932	1.217205	0.649119	0.071818	0.756173	-0.041099
43608	-11.540997	1.186282	1.504448	0.648505	0.071516	0.756704	-0.041542
43609	-10.843124	0.981358	1.054116	0.648132	0.071159	0.757050	-0.041672
43610	-10.199282	0.682694	0.419669	0.647609	0.071184	0.757470	-0.042116
43611	-9.897631	0.417181	0.322603	0.646769	0.071155	0.758166	-0.042558
43612	-9.547970	-0.239729	-0.065165	0.645449	0.071385	0.759202	-0.043735
43613	-9.271815	-0.092771	-0.250631	0.643231	0.072632	0.760803	-0.046440
43614	-9.604420	0.634681	-0.242472	0.639945	0.074614	0.763162	-0.049879
43615	-10.242659	1.047417	0.045213	0.636734	0.075650	0.765577	-0.052344
43616	-10.629909	0.838810	0.028570	0.633850	0.075972	0.767817	-0.054031
43617	-10.661251	0.562635	-0.013288	0.631550	0.075966	0.769612	-0.055417
43618	-10.469786	0.117420	-0.017482	0.629577	0.075955	0.771126	-0.056814
43619	-9.655885	-0.242099	-0.663202	0.627891	0.076126	0.772375	-0.058258
43620	-9.110908	-0.188858	-1.443260	0.625608	0.077678	0.773854	-0.061078
43621	-8.948786	0.274896	-1.711353	0.622880	0.080247	0.775505	-0.064605
43622	-9.405024	0.626381	-1.676939	0.620179	0.083170	0.777044	-0.068288
43623	-9.740727	0.800579	-1.716572	0.617964	0.085392	0.778306	-0.071195
43624	-9.791257	0.424186	-2.147204	0.616492	0.086577	0.779159	-0.073161
43625	-9.672631	0.160142	-2.039743	0.615414	0.086894	0.779852	-0.074476
43626	-9.504670	-0.425938	-2.059629	0.615246	0.086288	0.780012	-0.074881
43627	-8.822404	-1.253931	-2.511892	0.615387	0.085461	0.779994	-0.074866
43628	-8.175694	-1.378160	-3.016746	0.614361	0.086607	0.780458	-0.077101
43629	-8.441463	-0.482322	-2.969256	0.611562	0.089763	0.781830	-0.081707
43630	-9.194018	0.440092	-2.439152	0.608467	0.092284	0.783520	-0.085716
43631	-9.264154	0.742577	-2.800333	0.605797	0.092797	0.785280	-0.087941
43632	-9.305331	0.865714	-2.793945	0.603314	0.091968	0.787122	-0.089407
43633	-9.187556	0.582146	-2.666285	0.600879	0.089890	0.789183	-0.089751
43634	-9.320462	0.200896	-2.389945	0.598702	0.086731	0.791306	-0.088708
43635	-9.306591	-0.360156	-3.096284	0.596805	0.082998	0.793337	-0.086899
43636	-9.382272	-0.732177	-3.373269	0.594559	0.079790	0.795445	-0.086026
43637	-9.198987	-0.907185	-3.508755	0.592360	0.077468	0.797317	-0.085990
43638	-8.918573	-1.340778	-3.641377	0.589843	0.075475	0.799374	-0.085970
43639	-9.029597	-1.442811	-4.268488	0.587182	0.074666	0.801285	-0.087089
43640	-9.112689	-0.956794	-4.289722	0.583770	0.074948	0.803489	-0.089443
43641	-9.697669	-0.788707	-3.440905	0.580229	0.075607	0.805779	-0.091313
43642	-9.735255	-1.520588	-3.286546	0.578448	0.074456	0.807291	-0.090198
43643	-9.261994	-2.378542	-3.850028	0.577439	0.073636	0.808194	-0.089244
43644	-8.967175	-2.649767	-3.922113	0.576523	0.075512	0.808455	-0.091217
43645	-8.739832	-1.923198	-4.898916	0.575949	0.078561	0.808157	-0.094830
43646	-8.915700	-1.119480	-4.999250	0.574574	0.081458	0.808433	-0.098313
43647	-8.986525	-1.060114	-4.756454	0.573894	0.082148	0.808743	-0.099157
43648	-8.346710	-2.292067	-5.335499	0.573563	0.081516	0.809185	-0.097987
43649	-8.402593	-2.381166	-5.347569	0.571862	0.083865	0.809830	-0.100579
43650	-8.390343	-1.125654	-4.671538	0.570260	0.086450	0.810306	-0.103603
43651	-8.461043	-1.297734	-5.085996	0.569783	0.085750	0.810877	-0.102336
43652	-8.910487	-2.175096	-5.208762	0.569160	0.084534	0.811690	-0.100345
43653	-9.401863	-2.311293	-4.950503	0.568680	0.083180	0.812448	-0.098040
43654	-8.799082	-2.434693	-5.736793	0.569698	0.081560	0.812244	-0.095139
43655	-8.583145	-1.711905	-5.810220	0.568484	0.083881	0.812650	-0.096899
43656	-8.441491	0.162942	-4.835396	0.567818	0.087073	0.812433	-0.099767
43657	-7.946380	0.269965	-5.274185	0.567749	0.086953	0.812642	-0.098559
43658	-8.513406	-0.345020	-5.101551	0.566741	0.087703	0.813238	-0.098780
43659	-9.072647	0.330329	-4.276012	0.565258	0.088803	0.814041	-0.099671
43660	-9.258512	0.670816	-3.905526	0.564219	0.089118	0.814739	-0.099570
43661	-9.354426	0.473372	-3.752107	0.563870	0.088735	0.815165	-0.098401
43662	-9.652531	-0.288107	-3.301116	0.564117	0.088194	0.815258	-0.096683
43663	-9.440510	-0.644509	-3.368377	0.564966	0.088311	0.814767	-0.095757
43664	-9.590886	-0.849922	-3.584927	0.566155	0.088350	0.814045	-0.094839
43665	-9.523771	-1.077099	-3.602323	0.567645	0.088136	0.813175	-0.093583
43666	-9.505380	-1.324464	-3.504084	0.569107	0.088089	0.812305	-0.092288
43667	-9.965619	-2.215375	-2.928848	0.571187	0.087930	0.811104	-0.090138
43668	-9.727212	-2.766325	-3.179267	0.574353	0.088718	0.808945	-0.088632
43669	-9.646566	-2.438449	-3.076885	0.577507	0.091026	0.806423	-0.088778
43670	-9.290108	-1.673851	-3.321567	0.580970	0.092869	0.803759	-0.088434
43671	-8.877102	-1.271307	-3.869986	0.584679	0.093288	0.801213	-0.086631
43672	-8.609604	-1.185817	-4.262644	0.588118	0.092819	0.799050	-0.083793
43673	-8.545864	-1.099258	-4.287367	0.590890	0.091748	0.797485	-0.080310
43674	-8.733864	-0.984066	-4.049164	0.593185	0.090134	0.796372	-0.076152
43675	-8.905501	-0.605332	-3.945666	0.595300	0.088401	0.795388	-0.071845
43676	-9.167312	-0.258417	-3.764469	0.597121	0.086344	0.794652	-0.067223
43677	-9.298214	-0.505392	-2.886988	0.599383	0.083227	0.793723	-0.061784
43678	-8.597159	-0.628912	-2.980719	0.602136	0.080345	0.792307	-0.056799
43679	-8.566365	0.396800	-3.278632	0.603384	0.080602	0.791402	-0.055804
43680	-9.376106	2.638497	-2.425309	0.603927	0.081883	0.790789	-0.056743
43681	-9.938535	3.606460	-1.649343	0.606533	0.077949	0.789528	-0.051835
43682	-9.015235	2.551659	-2.354390	0.610166	0.071822	0.787714	-0.045234
43683	-8.448303	2.940711	-2.444878	0.612920	0.066394	0.786305	-0.040565
43684	-8.702479	3.055195	-2.467654	0.615663	0.060548	0.784865	-0.035785
43685	-8.697439	2.388573	-2.993984	0.618261	0.055537	0.783367	-0.031688
43686	-8.579111	2.191237	-2.269303	0.620310	0.052201	0.782061	-0.029510
43687	-8.491166	1.931653	-2.173850	0.622040	0.049624	0.780894	-0.028440
43688	-8.719738	1.868204	-2.013191	0.623381	0.048076	0.779878	-0.029577
43689	-9.250867	2.621836	-1.427219	0.624152	0.046524	0.779273	-0.031663
43690	-9.606437	2.977583	-1.085597	0.625387	0.043663	0.778407	-0.032676
43691	-9.579292	2.677695	-0.813942	0.626776	0.040278	0.777435	-0.033533
43692	-10.032591	2.169320	-0.433260	0.628391	0.036797	0.776263	-0.034439
43693	-10.143511	1.159071	0.073417	0.630314	0.033025	0.774839	-0.035179
43694	-9.923778	0.348306	-0.065727	0.632364	0.030433	0.773163	-0.037524
43695	-9.693450	0.059311	0.250647	0.633470	0.029664	0.772026	-0.042555
43696	-10.004355	0.683316	0.626207	0.634134	0.029898	0.771073	-0.049266
43697	-9.863506	1.363457	0.909420	0.634495	0.029620	0.770327	-0.055992
43698	-10.089441	1.615936	1.293063	0.634509	0.028299	0.769911	-0.061926
43699	-10.361997	1.424808	1.489498	0.634104	0.025292	0.769960	-0.066585
43700	-10.721375	0.759404	1.677328	0.633573	0.020415	0.770278	-0.069575
43701	-10.071669	-0.808458	1.187859	0.633475	0.014368	0.770359	-0.071065
43702	-9.510659	-1.959736	0.627059	0.632878	0.009092	0.770727	-0.073226
43703	-9.641537	-2.436633	0.471872	0.631581	0.005673	0.771420	-0.077360
43704	-9.489663	-2.614979	0.381455	0.629669	0.002588	0.772512	-0.082074
43705	-9.950665	-2.638103	0.145248	0.627020	0.000901	0.774004	-0.088103
43706	-10.535359	-2.718822	0.640650	0.624285	-0.000103	0.775492	-0.094229
43707	-10.725896	-3.085524	0.673356	0.621923	-0.000615	0.776653	-0.100104
43708	-10.534862	-3.731141	0.646884	0.620069	-0.000916	0.777421	-0.105501
43709	-10.273372	-4.613583	0.216673	0.618530	-0.001145	0.778011	-0.110082
43710	-10.144593	-5.281301	-0.212133	0.616476	0.000516	0.778736	-0.116306
43711	-9.895254	-4.794286	-0.050712	0.613876	0.004691	0.779408	-0.125130
43712	-9.575935	-4.068258	-0.012739	0.611050	0.009352	0.780142	-0.133822
43713	-9.491958	-4.027756	-0.209734	0.607991	0.014075	0.781084	-0.141623
43714	-9.481699	-4.316082	0.142129	0.605044	0.018238	0.782228	-0.147337
43715	-9.477997	-4.697463	-0.393045	0.602329	0.021845	0.783527	-0.151024
43716	-9.318911	-4.623543	-0.513698	0.599339	0.026970	0.784729	-0.155774
43717	-8.867183	-3.787030	-0.980729	0.595903	0.032485	0.786139	-0.160717
43718	-9.149725	-3.470087	-1.322644	0.592593	0.036329	0.787895	-0.163510
43719	-9.364365	-3.510232	-2.181120	0.590076	0.038070	0.789651	-0.163744
43720	-9.409661	-3.820897	-2.550527	0.587754	0.038598	0.791692	-0.162112
43721	-9.346737	-3.898658	-3.587014	0.586527	0.038265	0.793220	-0.159137
43722	-8.888219	-4.485543	-4.071635	0.585521	0.036691	0.795152	-0.153464
43723	-8.512393	-5.196729	-4.693114	0.584777	0.035447	0.796981	-0.146972
43724	-8.283628	-5.700480	-4.770957	0.583264	0.036332	0.798945	-0.142024
43725	-8.200938	-5.541999	-5.588286	0.582284	0.039299	0.800009	-0.139233
43726	-7.742797	-4.977451	-6.008641	0.579930	0.043899	0.801653	-0.138230
43727	-8.313206	-3.935148	-5.752316	0.576463	0.050642	0.803493	-0.139730
43728	-7.937350	-2.749082	-5.140070	0.573499	0.056473	0.805159	-0.140100
43729	-7.719001	-2.732463	-5.240520	0.570493	0.061413	0.807204	-0.138520
43730	-7.674163	-2.367738	-4.825310	0.566927	0.067430	0.809327	-0.137975
43731	-8.221935	-1.421387	-4.815939	0.563607	0.073534	0.811138	-0.137827
43732	-8.555503	-1.767452	-4.885041	0.561378	0.076543	0.813169	-0.133236
43733	-9.954598	-3.163511	-4.916988	0.558617	0.080294	0.815446	-0.128639
43734	-10.080550	-3.543196	-3.949493	0.556711	0.085941	0.816679	-0.125391
43735	-8.624998	-2.626755	-4.428104	0.554970	0.093277	0.817144	-0.124835
43736	-9.206233	-0.872124	-4.192287	0.552424	0.100197	0.818047	-0.124847
43737	-9.571609	-0.559946	-3.792895	0.553044	0.102724	0.818059	-0.119878
43738	-9.400470	-1.838407	-4.749626	0.555105	0.102570	0.817907	-0.111200
43739	-8.652668	-2.815733	-5.650014	0.558005	0.103720	0.816786	-0.103597
43740	-7.863293	-3.628948	-6.305243	0.560183	0.106602	0.815671	-0.097532
43741	-6.753326	-2.908190	-7.031395	0.560948	0.113348	0.814309	-0.096905
43742	-6.081579	-0.870768	-7.018156	0.559602	0.122440	0.813543	-0.100013
43743	-7.021626	1.609419	-6.371934	0.556558	0.132235	0.813552	-0.104354
43744	-7.871109	2.667713	-4.876204	0.555954	0.136914	0.813503	-0.101899
43745	-7.350458	0.496762	-6.156707	0.557494	0.137319	0.813380	-0.093573
43746	-6.874338	0.149473	-6.468585	0.556331	0.141220	0.813828	-0.090753
43747	-7.238675	1.802028	-6.072797	0.553696	0.146091	0.814880	-0.089712
43748	-7.798882	2.957384	-5.460793	0.550821	0.150351	0.816218	-0.088197
43749	-8.026635	3.609618	-5.451915	0.549050	0.152151	0.817515	-0.084045
43750	-8.150808	2.307844	-4.780819	0.548211	0.151047	0.818989	-0.076855
43751	-8.234907	1.978622	-5.068133	0.547215	0.149434	0.820528	-0.070418
43752	-8.760061	2.499166	-4.523690	0.546873	0.146887	0.821748	-0.063912
43753	-8.730806	1.670218	-4.509062	0.547415	0.143400	0.822542	-0.056553
43754	-8.885834	2.791673	-4.281931	0.547181	0.141447	0.823328	-0.052123
43755	-9.244647	3.956060	-3.730965	0.548585	0.137568	0.823430	-0.045742
43756	-8.991119	2.529568	-3.929900	0.551612	0.131907	0.822747	-0.037585
43757	-8.831204	2.387695	-4.322078	0.553851	0.126896	0.822295	-0.031263
43758	-8.705621	2.432762	-4.130151	0.557177	0.121158	0.821143	-0.024459
43759	-8.555285	2.479899	-4.104415	0.560312	0.115217	0.820026	-0.018234
43760	-8.571388	2.646508	-3.812085	0.563586	0.107994	0.818890	-0.011296
43761	-8.333116	2.102785	-3.860105	0.566742	0.099195	0.817895	-0.003452
43762	-8.790520	2.369225	-3.422658	0.569230	0.090909	0.817134	0.002428
43763	-9.112840	3.719007	-2.835781	0.571296	0.082382	0.816555	0.008524
43764	-9.697026	3.165932	-2.522349	0.574634	0.072188	0.815046	0.016858
43765	-10.193969	2.310962	-2.586616	0.578521	0.061718	0.812946	0.024968
43766	-9.334547	1.528127	-2.998969	0.583578	0.052886	0.809702	0.031984
43767	-8.525177	1.612863	-2.797539	0.587281	0.044965	0.807280	0.037121
43768	-8.747279	1.881171	-2.895072	0.590537	0.038331	0.805113	0.039875
43769	-9.696874	1.919953	-1.844657	0.593131	0.031930	0.803375	0.042003
43770	-10.256268	2.018632	-1.230583	0.596072	0.027006	0.801323	0.043007
43771	-10.123878	2.241426	-0.764506	0.599648	0.023605	0.798761	0.042963
43772	-9.733544	2.789652	-0.986756	0.602791	0.021776	0.796550	0.040959
43773	-9.477023	3.218032	-0.821904	0.605878	0.019214	0.794371	0.038953
43774	-8.895952	3.184078	-1.451306	0.608827	0.016046	0.792273	0.037090
43775	-9.374630	3.343282	-1.212766	0.611162	0.012352	0.790641	0.034856
43776	-10.074093	3.012933	-0.917207	0.613776	0.007919	0.788735	0.033361
43777	-10.122907	1.608939	-0.516067	0.616841	0.003175	0.786389	0.033011
43778	-9.269959	0.697761	-0.868451	0.619954	0.000859	0.784044	0.030504
43779	-9.144462	1.048815	-0.595752	0.622408	0.001494	0.782306	0.024561
43780	-9.561746	0.825310	-0.983176	0.624842	0.002265	0.780522	0.018772
43781	-9.315818	0.146089	-1.205777	0.627217	0.003426	0.778735	0.012589
43782	-8.774714	0.043487	-1.189886	0.628999	0.006054	0.777369	0.004548
43783	-8.975155	0.279784	-0.670026	0.630016	0.009457	0.776510	-0.004760
43784	-9.906221	0.742878	0.085396	0.630518	0.012978	0.775927	-0.014709
43785	-10.509425	0.482743	0.757183	0.631038	0.014526	0.775280	-0.022833
43786	-10.612227	-0.402092	0.587927	0.631377	0.015542	0.774714	-0.030654
43787	-10.359741	-0.733601	1.142543	0.631401	0.017046	0.774294	-0.038875
43788	-9.642502	-0.683494	0.586422	0.630978	0.018580	0.774137	-0.047253
43789	-9.759488	-0.330887	0.893924	0.629870	0.019925	0.774411	-0.056168
43790	-9.637036	-0.143878	0.948103	0.628223	0.019840	0.775087	-0.064671
43791	-9.764098	-0.223267	0.054690	0.626209	0.017694	0.776109	-0.072139
43792	-10.037122	-1.114043	0.013965	0.624147	0.012848	0.777416	-0.076808
43793	-9.812296	-2.984990	-0.414367	0.622834	0.004945	0.778540	-0.076998
43794	-9.443660	-5.453102	-0.873738	0.621367	-0.001838	0.779764	-0.076604
43795	-9.716091	-6.308336	-0.835978	0.618701	-0.000188	0.781044	-0.084736
43796	-10.499359	-4.755620	0.022174	0.615402	0.006141	0.782186	-0.097094
43797	-10.455304	-4.154142	0.293501	0.612938	0.012052	0.782602	-0.108147
43798	-10.299523	-3.609315	-0.266028	0.609856	0.019484	0.783132	-0.120000
43799	-10.411197	-3.062175	-0.081400	0.606964	0.026742	0.783354	-0.131290
43800	-10.126070	-2.808862	-0.376154	0.604615	0.031669	0.783589	-0.139378
43801	-10.144182	-3.383975	-0.592710	0.602734	0.035249	0.783774	-0.145493
43802	-9.600748	-4.215888	-0.883953	0.601966	0.037925	0.783387	-0.150010
43803	-8.929496	-4.935894	-1.556616	0.600989	0.040983	0.783217	-0.153961
43804	-9.413233	-5.220499	-1.502310	0.599236	0.046368	0.783162	-0.159444
43805	-9.869882	-4.883185	-1.543638	0.597799	0.051859	0.782925	-0.164244
43806	-9.630159	-4.644118	-2.037607	0.597467	0.056701	0.782127	-0.167619
43807	-8.824596	-4.034705	-2.983621	0.597842	0.061246	0.780928	-0.170251
43808	-8.822630	-3.742886	-3.078817	0.597865	0.065744	0.780094	-0.172306
43809	-8.848583	-3.797478	-3.316782	0.598685	0.068900	0.779203	-0.172255
43810	-8.433171	-4.245115	-4.068815	0.599708	0.070568	0.778808	-0.169787
43811	-8.035108	-4.529984	-4.948781	0.599960	0.072921	0.778898	-0.167477
43812	-7.854935	-4.200327	-4.485438	0.598084	0.076756	0.780213	-0.166348
43813	-8.208761	-3.165835	-4.550729	0.595583	0.081601	0.781598	-0.166515
43814	-8.350919	-2.685356	-4.174573	0.592924	0.084687	0.783609	-0.165002
43815	-8.295484	-2.894334	-4.497014	0.590680	0.085785	0.785885	-0.161623
43816	-8.714310	-3.180589	-4.085805	0.587605	0.086976	0.788732	-0.158294
43817	-9.077638	-2.691956	-3.655953	0.584940	0.088601	0.791135	-0.155241
43818	-8.767243	-2.064885	-3.903230	0.582502	0.090609	0.793294	-0.152206
43819	-8.762466	-1.772272	-3.695371	0.580062	0.092766	0.795472	-0.148816
43820	-8.960874	-2.002361	-4.664123	0.579038	0.093357	0.797123	-0.143506
43821	-8.550726	-2.265063	-5.160863	0.577453	0.094201	0.799036	-0.138623
43822	-8.690919	-2.520554	-3.950781	0.575718	0.094826	0.801173	-0.132962
43823	-8.220976	-2.429158	-4.698745	0.574964	0.095899	0.802386	-0.128048
43824	-8.352482	-1.302386	-4.791042	0.572551	0.100994	0.803463	-0.128195
43825	-8.902195	0.480909	-4.335795	0.569864	0.106083	0.804670	-0.128480
43826	-9.011932	0.705444	-4.013372	0.568881	0.106430	0.806182	-0.122955
43827	-8.922696	-0.972679	-3.577164	0.568482	0.105283	0.807689	-0.115684
43828	-8.642894	-1.575742	-3.498466	0.568254	0.106320	0.808237	-0.111961
43829	-9.685449	0.100374	-4.165776	0.566823	0.110242	0.808572	-0.113005
43830	-10.386562	3.073796	-3.367699	0.565607	0.113641	0.808709	-0.114733
43831	-9.553943	3.380082	-1.895323	0.567229	0.110120	0.808991	-0.107971
43832	-9.110736	1.828344	-3.641409	0.569411	0.106328	0.808897	-0.100752
43833	-9.759468	2.416817	-2.925950	0.570415	0.105769	0.808672	-0.097416
43834	-9.591149	2.933997	-2.461491	0.572822	0.103404	0.807933	-0.091799
43835	-9.194226	2.596164	-3.335823	0.576113	0.100786	0.806524	-0.086344
43836	-8.932123	3.653818	-3.784076	0.578679	0.096730	0.805752	-0.080852
43837	-9.059443	2.710345	-3.287898	0.582553	0.088693	0.804749	-0.071729
43838	-8.226620	1.355172	-4.773691	0.586619	0.079139	0.803618	-0.061740
43839	-8.364300	0.666107	-4.803192	0.588103	0.071609	0.803746	-0.054766
43840	-8.880766	1.581715	-3.734273	0.588496	0.065442	0.804285	-0.050152
43841	-8.813764	1.702955	-3.674682	0.590137	0.056071	0.804266	-0.041842
43842	-8.724612	0.260010	-4.132515	0.591161	0.045556	0.804595	-0.032864
43843	-9.592144	-0.103434	-3.240354	0.591165	0.038633	0.805129	-0.028270
43844	-10.119326	-0.166290	-2.726504	0.592095	0.032140	0.804885	-0.023458
43845	-9.901467	-0.691935	-2.634446	0.593983	0.027436	0.803767	-0.019762
43846	-9.961328	-0.541934	-2.366663	0.595835	0.026807	0.802408	-0.020092
43847	-9.496871	0.067943	-2.666919	0.599579	0.028146	0.799523	-0.021812
43848	-9.199142	0.263868	-2.701642	0.602561	0.030934	0.797079	-0.025059
43849	-9.422603	1.096728	-2.932836	0.606045	0.035877	0.794013	-0.031082
43850	-9.345684	0.913002	-3.120983	0.609650	0.039821	0.790843	-0.036164
43851	-9.664308	0.349579	-2.864929	0.613410	0.045360	0.787252	-0.043652
43852	-10.111875	0.141856	-2.518543	0.618202	0.050893	0.782676	-0.051527
43853	-9.403750	-0.187086	-3.294903	0.624079	0.057360	0.776865	-0.060954
43854	-8.531597	-0.333744	-4.132408	0.629378	0.066042	0.770839	-0.072997
43855	-8.457046	-0.419251	-5.387668	0.633304	0.075647	0.765296	-0.086748
43856	-8.814754	-1.573770	-6.034095	0.636428	0.083075	0.760383	-0.099373
43857	-8.033652	-3.100005	-6.917355	0.638818	0.088633	0.756146	-0.110895
43858	-8.439516	-4.380671	-6.910003	0.636292	0.098773	0.754491	-0.126968
43859	-9.099452	-2.935907	-5.321573	0.630188	0.117241	0.752402	-0.151685
43860	-9.646820	-0.210949	-4.307721	0.621328	0.141021	0.749451	-0.179969
43861	-11.196198	3.116685	-2.455079	0.610626	0.166982	0.745833	-0.207331
43862	-14.957634	5.408971	3.766942	0.605054	0.182031	0.743068	-0.220510
43863	-15.800959	1.624174	4.281089	0.608175	0.187585	0.738191	-0.223625
43864	-12.721447	0.940835	4.489287	0.611644	0.198500	0.729992	-0.231519
43865	-8.950238	-1.716868	3.111510	0.617587	0.207331	0.720850	-0.236590
43866	-5.393843	-5.840205	-0.640940	0.622593	0.216389	0.712014	-0.242052
43867	-3.836240	-5.537154	-4.987193	0.616062	0.240168	0.703157	-0.261450
43868	-6.316798	-1.226759	-3.613494	0.600677	0.270503	0.695994	-0.285672
43869	-7.732954	1.171423	-3.312500	0.587948	0.294931	0.688391	-0.305697
43870	-8.435098	0.307671	-2.702659	0.580192	0.309191	0.683951	-0.316210
43871	-8.487277	-0.870330	-3.420757	0.572070	0.322705	0.679416	-0.327095
43872	-9.312062	-0.286955	-2.232431	0.560359	0.338660	0.674992	-0.340138
43873	-10.020667	-0.250775	-1.333601	0.550110	0.351480	0.671756	-0.350120
43874	-10.310171	-1.785915	-0.731632	0.540423	0.363095	0.669047	-0.358442
43875	-10.374356	-2.932772	-0.847763	0.530175	0.377208	0.663716	-0.368931
43876	-9.836017	-3.665013	-0.157061	0.519399	0.393331	0.656197	-0.380685
43877	-10.084530	-4.407690	-1.351858	0.505987	0.412931	0.646056	-0.395064
43878	-10.715537	-3.901169	-1.456512	0.491409	0.433886	0.633055	-0.411706
43879	-10.889273	-2.808784	-1.625360	0.481616	0.449935	0.620435	-0.425049
43880	-9.993362	-2.081952	-2.934312	0.476221	0.461656	0.608098	-0.436238
43881	-9.085230	-1.313077	-1.750230	0.466893	0.475723	0.593743	-0.450741
43882	-9.437903	-0.504380	-0.463328	0.455450	0.490434	0.577051	-0.468029
43883	-9.299067	-0.195131	-2.214838	0.443630	0.504273	0.559544	-0.485604
43884	-9.482723	0.430763	-3.825702	0.431656	0.518164	0.541914	-0.501506
43885	-8.792697	1.341884	-4.213669	0.424122	0.529413	0.525675	-0.513331
43886	-7.642249	2.064505	-4.124645	0.414913	0.541949	0.510354	-0.523141
43887	-8.250347	4.630599	-2.402778	0.398656	0.558868	0.492760	-0.534721
43888	-9.101844	5.645127	-1.114495	0.387607	0.572137	0.479799	-0.540567
43889	-9.782527	2.408788	-1.538177	0.378254	0.585180	0.467816	-0.543724
43890	-10.852159	1.388949	0.880459	0.369844	0.597492	0.456036	-0.546122
43891	-11.596356	0.307291	2.890122	0.368428	0.604322	0.447731	-0.546436
43892	-11.431398	-2.002184	1.932866	0.370445	0.609836	0.438943	-0.546076
43893	-11.587882	-4.062037	0.587261	0.364991	0.619381	0.425657	-0.549514
43894	-9.160122	-4.707055	-0.280646	0.362990	0.624061	0.417335	-0.551921
43895	-7.521280	-8.165664	-3.976577	0.359786	0.627164	0.412388	-0.554216
43896	-7.522191	-2.372187	-4.772411	0.331541	0.644049	0.393337	-0.566187
43897	-8.488238	5.474554	-3.253777	0.300025	0.663191	0.367786	-0.578702
43898	-10.589750	7.210025	-2.139842	0.293061	0.671771	0.361401	-0.576392
43899	-12.114323	7.937337	-2.993060	0.288017	0.680143	0.353507	-0.574007
43900	-10.952790	4.376012	-1.071672	0.298144	0.680534	0.358102	-0.565462
43901	-10.991358	-2.378851	-1.759733	0.311674	0.677438	0.364987	-0.557425
43902	-9.398065	-5.652132	-2.545315	0.315459	0.677843	0.363736	-0.555617
43903	-8.654863	-2.826763	-3.056766	0.299157	0.688393	0.350034	-0.560443
43904	-9.401550	1.991431	-2.461563	0.273862	0.701874	0.329203	-0.569208
43905	-10.312912	7.180559	-1.453920	0.261279	0.709341	0.316967	-0.572800
43906	-9.798762	2.803968	-3.177069	0.260249	0.711162	0.311206	-0.574169
43907	-8.923444	0.305337	-3.326259	0.257034	0.713779	0.303953	-0.576251
43908	-9.831397	-1.328861	-2.257998	0.253482	0.716211	0.297010	-0.578423
43909	-9.755967	-1.534225	-2.719413	0.244187	0.720156	0.285477	-0.583311
43910	-9.479547	0.503400	-2.691656	0.228612	0.725972	0.269406	-0.590019
43911	-9.779568	2.666383	-1.728149	0.215179	0.730681	0.255188	-0.595552
43912	-9.453933	2.403947	-1.723360	0.207140	0.732917	0.244871	-0.599970
43913	-9.314858	3.272961	-1.298325	0.196805	0.736115	0.233328	-0.604121
43914	-9.552015	3.502312	-1.311609	0.189913	0.737557	0.224183	-0.608017
43915	-9.449023	2.538608	-1.878297	0.182842	0.738517	0.215566	-0.612122
43916	-9.499467	2.864973	-1.399097	0.175779	0.739174	0.207759	-0.616084
43917	-9.295975	1.669403	-2.061843	0.170394	0.738778	0.201941	-0.619994
43918	-9.326109	1.754976	-2.865101	0.162215	0.738732	0.194520	-0.624598
43919	-9.245838	2.273209	-3.460478	0.154092	0.738202	0.187629	-0.629372
43920	-8.494409	2.050610	-4.728835	0.145417	0.737579	0.181025	-0.634082
43921	-8.670847	2.078584	-5.485612	0.135934	0.737666	0.174937	-0.637784
43922	-8.694212	0.682107	-5.154077	0.127349	0.738118	0.170156	-0.640320
43923	-7.932525	-0.849587	-5.492423	0.116125	0.739744	0.163307	-0.642359
43924	-8.786483	-1.295858	-5.442449	0.096534	0.744557	0.150903	-0.643074
43925	-10.305521	-1.038004	-2.648778	0.073062	0.749717	0.136364	-0.643421
43926	-12.840849	-3.087997	1.314841	0.055848	0.751822	0.126442	-0.644714
43927	-15.334764	-8.673929	2.564403	0.045536	0.748409	0.118480	-0.650978
43928	-13.780934	-11.895733	-1.382862	0.024451	0.741907	0.095870	-0.663163
43929	-11.425313	-9.428076	-2.446508	-0.007916	0.735500	0.061312	-0.674699
43930	-9.485858	-6.559966	-4.029842	-0.048017	0.726417	0.019854	-0.685287
43931	-8.580532	-1.999428	-4.917031	-0.098379	0.715666	-0.031989	-0.690739
43932	-8.774952	2.959586	-3.484800	-0.153024	0.700206	-0.090737	-0.691420
43933	-8.584931	5.904209	-0.772029	-0.189228	0.683830	-0.129359	-0.692702
43934	-8.332873	2.272668	-4.528892	-0.217111	0.669737	-0.155602	-0.692895
43935	-8.894935	3.840090	-1.361721	-0.247328	0.659409	-0.183240	-0.685880
43936	-8.862573	4.318534	1.917256	-0.257357	0.652824	-0.185573	-0.687860
43937	-7.089984	0.264685	-1.064601	-0.258603	0.651886	-0.175902	-0.690817
43938	-6.792576	-0.538936	-1.478597	-0.263359	0.652005	-0.169642	-0.690473
43939	-6.788988	-0.501803	-2.312369	-0.270248	0.653413	-0.167608	-0.686967
43940	-7.432554	-1.842119	-2.733970	-0.277141	0.657093	-0.169263	-0.680273
43941	-9.207310	-3.698098	-0.772474	-0.283606	0.661909	-0.175401	-0.671326
43942	-10.262622	-5.271192	-0.180784	-0.289608	0.664438	-0.184402	-0.663811
43943	-10.234496	-5.845980	-1.203527	-0.297132	0.663616	-0.195680	-0.658055
43944	-9.062679	-5.256338	-2.040058	-0.309369	0.659523	-0.211953	-0.651456
43945	-8.826476	-3.677073	-2.313168	-0.328396	0.652143	-0.236169	-0.641163
43946	-9.410204	-1.531882	-1.869714	-0.352052	0.641961	-0.266615	-0.626787
43947	-9.970598	1.339127	-0.882003	-0.378256	0.627608	-0.301944	-0.609804
43948	-9.836478	5.386988	0.481438	-0.398659	0.612928	-0.333991	-0.594844
43949	-9.655874	5.691725	0.379095	-0.409032	0.602653	-0.358381	-0.584008
43950	-9.398656	5.508868	-0.250285	-0.417134	0.593294	-0.382623	-0.572364
43951	-9.021642	5.433036	-0.725693	-0.421659	0.586032	-0.405146	-0.560916
43952	-9.355555	6.344635	0.131908	-0.424312	0.579563	-0.428615	-0.548047
43953	-14.063561	7.463729	4.089875	-0.422489	0.576057	-0.447923	-0.537612
43954	-14.661974	4.060181	8.111555	-0.411433	0.580850	-0.444127	-0.544138
43955	-10.532853	-6.503622	1.963212	-0.389803	0.594628	-0.422072	-0.562429
43956	-8.430388	-13.151023	-3.412149	-0.387761	0.597339	-0.424458	-0.559163
43957	-9.401553	-3.376581	-2.882423	-0.403215	0.584974	-0.450524	-0.540603
43958	-7.312315	1.095063	-3.765296	-0.416036	0.569068	-0.479859	-0.522313
43959	-10.403894	10.126970	-1.920367	-0.424881	0.558243	-0.503391	-0.504419
43960	-10.019865	4.948111	-2.866184	-0.415367	0.560937	-0.502138	-0.510565
43961	-9.988312	-2.679055	-3.367165	-0.405332	0.564968	-0.499828	-0.516419
43962	-8.676268	-4.510839	-3.416990	-0.407489	0.559760	-0.510694	-0.509718
43963	-8.672797	-0.594182	-4.299014	-0.420505	0.547549	-0.532947	-0.489217
43964	-10.315233	6.482941	-2.018708	-0.431164	0.537228	-0.552239	-0.469591
43965	-10.710806	4.426893	-2.707017	-0.427313	0.537388	-0.552925	-0.472113
43966	-9.146541	0.858564	-3.880779	-0.429391	0.532537	-0.559785	-0.467620
43967	-9.213471	1.246737	-2.048122	-0.434386	0.525029	-0.569896	-0.459207
43968	-10.067709	0.306345	-2.316898	-0.438116	0.518256	-0.578578	-0.452452
43969	-10.251516	0.002247	-2.161165	-0.443916	0.508753	-0.588085	-0.445269
43970	-9.330424	0.864391	-2.857703	-0.451128	0.497800	-0.598622	-0.436269
43971	-9.331426	2.598800	-2.714914	-0.459408	0.485591	-0.609878	-0.425670
43972	-9.785802	3.213729	-2.667019	-0.465307	0.475517	-0.618113	-0.418700
43973	-9.725051	2.126458	-2.580707	-0.470784	0.465760	-0.624459	-0.414103
43974	-9.409072	1.866523	-2.443236	-0.476762	0.455436	-0.631671	-0.407759
43975	-9.349642	1.673281	-2.877049	-0.482920	0.445053	-0.638179	-0.401801
43976	-9.142353	1.625481	-3.983298	-0.489722	0.433945	-0.644437	-0.395683
43977	-9.033778	1.761398	-3.838819	-0.496982	0.421955	-0.651501	-0.387955
43978	-8.652837	2.802405	-3.839999	-0.504060	0.409970	-0.658705	-0.379415
43979	-8.801726	2.461306	-4.165343	-0.510072	0.399609	-0.664404	-0.372433
43980	-9.033669	1.332228	-4.076207	-0.515724	0.390112	-0.668803	-0.366802
43981	-9.418867	0.859003	-4.348856	-0.522375	0.379063	-0.674373	-0.358688
43982	-10.118789	0.633500	-3.511378	-0.530169	0.366967	-0.679339	-0.350363
43983	-8.754592	0.027570	-4.187078	-0.539103	0.353554	-0.683391	-0.342556
43984	-7.844138	1.314223	-4.474801	-0.549330	0.335900	-0.691678	-0.327091
43985	-9.029578	4.799167	-2.426581	-0.558844	0.317817	-0.701359	-0.307866
43986	-9.318173	4.494206	-1.990227	-0.565907	0.306248	-0.706044	-0.295741
43987	-9.230293	1.960772	-1.503826	-0.572614	0.296834	-0.709104	-0.284911
43988	-9.397764	-1.122401	-0.049374	-0.578874	0.290166	-0.709567	-0.277890
43989	-9.791702	-4.263425	-1.096453	-0.587026	0.281410	-0.709324	-0.270314
43990	-11.747528	-7.277855	-2.387001	-0.599072	0.263724	-0.711799	-0.254762
43991	-12.627397	-8.452564	-3.529848	-0.616200	0.234530	-0.715480	-0.231046
43992	-11.846784	-9.837975	-5.469975	-0.634974	0.199449	-0.718255	-0.202825
43993	-9.490705	-7.215688	-8.687388	-0.654044	0.150694	-0.723833	-0.159947
43994	-8.328650	-1.050483	-9.777103	-0.667115	0.089945	-0.732342	-0.102679
43995	-9.336871	7.906242	-6.950495	-0.672122	0.024209	-0.739034	-0.038655
43996	-10.338785	11.248510	-2.174605	-0.677002	-0.005345	-0.735883	-0.010777
43997	-8.491897	5.779871	-4.305383	-0.682894	-0.027765	-0.729859	0.013831
43998	-9.137820	7.053004	-0.446233	-0.687750	-0.042543	-0.723863	0.034809
43999	-8.445887	3.330185	-0.819762	-0.694244	-0.045446	-0.716789	0.046623
44000	-7.761188	1.589306	-0.681878	-0.699010	-0.048662	-0.710833	0.061096
44001	-7.446801	1.020346	-0.182825	-0.701860	-0.050104	-0.706567	0.075139
44002	-7.720979	-0.487052	-1.351984	-0.702632	-0.049596	-0.704388	0.087672
44003	-8.354761	-1.737268	-2.378272	-0.699963	-0.053011	-0.704783	0.102578
44004	-8.762869	-1.960196	-1.535026	-0.695678	-0.062558	-0.705429	0.120370
44005	-8.659191	-1.338659	-1.299825	-0.690117	-0.072951	-0.706870	0.136935
44006	-9.023158	-0.598025	-1.348655	-0.683159	-0.082922	-0.709433	0.152064
44007	-9.462414	0.433151	-1.601445	-0.674931	-0.095868	-0.711753	0.169370
44008	-9.776636	1.479162	-1.146620	-0.666545	-0.107622	-0.714225	0.184441
44009	-9.772326	1.038189	-0.591894	-0.660238	-0.112869	-0.717133	0.192529
44010	-9.326512	-0.001198	-0.837665	-0.654950	-0.115073	-0.720234	0.197640
44011	-8.951565	-0.342988	-1.010230	-0.649522	-0.116957	-0.723578	0.202179
44012	-8.521329	-0.335498	-1.145765	-0.642739	-0.119623	-0.728047	0.206217
44013	-8.758721	-0.108609	-1.010269	-0.634470	-0.124382	-0.733368	0.210116
44014	-8.994723	-0.007294	-1.380072	-0.625435	-0.131051	-0.738983	0.213448
44015	-9.875793	-0.229163	-2.163661	-0.615478	-0.138782	-0.745198	0.215884
44016	-12.290055	-0.364764	-2.208345	-0.604804	-0.145193	-0.752440	0.216713
44017	-13.464688	1.714714	1.578979	-0.596550	-0.145864	-0.760288	0.211693
44018	-12.576571	2.286703	5.248039	-0.596351	-0.138357	-0.765855	0.196697
44019	-10.221713	-1.821438	1.808030	-0.597994	-0.132720	-0.768548	0.184725
44020	-10.657264	-3.742607	-3.456515	-0.594896	-0.132864	-0.771855	0.180792
44021	-9.311489	-2.974441	-6.152893	-0.592024	-0.135151	-0.773962	0.179512
44022	-7.000762	-2.040458	-5.627299	-0.586365	-0.138318	-0.777881	0.178731
44023	-8.253320	-0.499450	-2.032223	-0.575717	-0.143889	-0.784457	0.180201
44024	-10.148573	1.002061	-1.206944	-0.572486	-0.147017	-0.786082	0.180888
44025	-9.134254	0.994266	-4.719111	-0.571460	-0.145978	-0.787729	0.177784
44026	-11.177048	0.960204	-2.818169	-0.566124	-0.148811	-0.790757	0.179059
44027	-12.213817	1.995891	-0.415557	-0.565317	-0.147850	-0.792085	0.176518
44028	-11.844935	0.002532	-0.810103	-0.567356	-0.143043	-0.793108	0.169192
44029	-11.156250	-1.280486	-1.073536	-0.569538	-0.141415	-0.792536	0.165877
44030	-10.208503	-1.429194	-1.621234	-0.572380	-0.140780	-0.790954	0.164176
44031	-8.960439	-1.740514	-3.168693	-0.575105	-0.141213	-0.788940	0.163976
44032	-8.605670	-1.171163	-3.865443	-0.575426	-0.145069	-0.787250	0.167564
44033	-9.236911	-0.444205	-3.187646	-0.575546	-0.148463	-0.785904	0.170473
44034	-9.359417	-0.505304	-3.014055	-0.576675	-0.149650	-0.784696	0.171181
44035	-9.376040	-0.091833	-2.475501	-0.577476	-0.150092	-0.783919	0.171657
44036	-9.307336	0.501828	-2.041020	-0.578570	-0.149027	-0.783473	0.170934
44037	-9.039760	0.406381	-2.343271	-0.579828	-0.146396	-0.783586	0.168407
44038	-9.125113	0.067946	-2.834576	-0.580298	-0.144557	-0.783993	0.166473
44039	-9.429876	-0.230281	-2.659598	-0.580676	-0.142992	-0.784338	0.164873
44040	-9.377058	-0.747704	-2.608318	-0.581549	-0.141300	-0.784328	0.163295
44041	-9.452228	-1.265231	-2.732342	-0.582340	-0.140326	-0.784030	0.162744
44042	-9.570462	-1.333085	-2.647087	-0.582439	-0.140311	-0.783881	0.163117
44043	-9.636837	-0.877905	-1.906607	-0.582395	-0.140330	-0.783800	0.163647
44044	-9.282999	-0.421099	-1.969785	-0.582720	-0.139029	-0.783982	0.162730
44045	-9.375940	-0.251955	-2.188802	-0.582647	-0.137983	-0.784324	0.162231
44046	-9.511350	0.156511	-2.611769	-0.582479	-0.136460	-0.784929	0.161194
44047	-9.800360	-0.092897	-3.011186	-0.581856	-0.134326	-0.786254	0.158758
44048	-10.164959	-0.301473	-2.112971	-0.581608	-0.132366	-0.787300	0.156107
44049	-10.083797	-0.587711	-1.521918	-0.582154	-0.129509	-0.788057	0.152610
44050	-9.852145	-1.150057	-1.295588	-0.583437	-0.126892	-0.788026	0.150047
44051	-9.596695	-1.086089	-1.757687	-0.585069	-0.124657	-0.787487	0.148387
44052	-9.402862	-0.912648	-2.494295	-0.586561	-0.122278	-0.787034	0.146875
44053	-9.521920	-0.741617	-2.651212	-0.587203	-0.119829	-0.787228	0.145275
44054	-9.497996	-0.375790	-2.408672	-0.588235	-0.116962	-0.787256	0.143272
44055	-9.337335	-0.357101	-2.504047	-0.589703	-0.113101	-0.787284	0.140152
44056	-9.133716	-0.637578	-2.816628	-0.591434	-0.109676	-0.786928	0.137549
44057	-8.951758	-1.009615	-3.287536	-0.592931	-0.106697	-0.786604	0.135287
44058	-8.969232	-1.651174	-3.378345	-0.593782	-0.103841	-0.786747	0.132928
44059	-9.098519	-1.779005	-3.243951	-0.594030	-0.101945	-0.786986	0.131869
44060	-9.282051	-1.406107	-2.716905	-0.593865	-0.100277	-0.787462	0.131045
44061	-9.121213	-1.346511	-2.809962	-0.594256	-0.098085	-0.787721	0.129365
44062	-9.155220	-1.338936	-2.942214	-0.594475	-0.096671	-0.787875	0.128482
44063	-9.140472	-1.068441	-3.174422	-0.594738	-0.096332	-0.787654	0.128870
44064	-9.227921	-1.079742	-3.304806	-0.594790	-0.096334	-0.787487	0.129648
44065	-9.208913	-1.053335	-3.097293	-0.594645	-0.096043	-0.787580	0.129967
44066	-9.153763	-0.923016	-2.806292	-0.594574	-0.095160	-0.787781	0.129719
44067	-9.111777	-0.805969	-2.697010	-0.594577	-0.094597	-0.787817	0.129899
44068	-9.093552	-0.943359	-2.975900	-0.594768	-0.094246	-0.787636	0.130382
44069	-9.087154	-1.256063	-3.161847	-0.594501	-0.094391	-0.787667	0.131298
44070	-9.274795	-1.231988	-2.545202	-0.593838	-0.094754	-0.787948	0.132349
44071	-9.285958	-1.089537	-2.336990	-0.593226	-0.094836	-0.788284	0.133031
44072	-9.180002	-0.847790	-2.693982	-0.592267	-0.095243	-0.788810	0.133896
44073	-9.263215	-0.859731	-2.784987	-0.591093	-0.095550	-0.789559	0.134445
44074	-9.455016	-1.018348	-2.547765	-0.589759	-0.095611	-0.790507	0.134692
44075	-9.583268	-0.971749	-2.309424	-0.588698	-0.095682	-0.791217	0.135109
44076	-9.554212	-0.949725	-2.292481	-0.587694	-0.095483	-0.791957	0.135287
44077	-9.531148	-0.985946	-2.519400	-0.586698	-0.094961	-0.792793	0.135085
44078	-9.693172	-1.019124	-2.550676	-0.585778	-0.094327	-0.793626	0.134626
44079	-9.580541	-1.129577	-2.487762	-0.584941	-0.093413	-0.794519	0.133631
44080	-9.542254	-1.196768	-2.341466	-0.584362	-0.092968	-0.795098	0.133030
44081	-9.467856	-1.286054	-2.730748	-0.584213	-0.092628	-0.795325	0.132564
44082	-9.278948	-1.385896	-3.064013	-0.583951	-0.092289	-0.795639	0.132074
44083	-9.255839	-1.252781	-3.023158	-0.583442	-0.092163	-0.796064	0.131848
44084	-9.277050	-1.211021	-2.806874	-0.582982	-0.092021	-0.796446	0.131676
44085	-9.221083	-1.065639	-3.023470	-0.582573	-0.091722	-0.796844	0.131285
44086	-9.171149	-1.143603	-3.135256	-0.581977	-0.091376	-0.797418	0.130678
44087	-9.216321	-1.093289	-3.121111	-0.581397	-0.091157	-0.797942	0.130215
44088	-9.262886	-1.191708	-3.022256	-0.580979	-0.091098	-0.798254	0.130215
44089	-9.299280	-1.034215	-3.164135	-0.580589	-0.091161	-0.798493	0.130441
44090	-9.276139	-1.062063	-3.085413	-0.580137	-0.090770	-0.798940	0.129991
44091	-9.360792	-1.194593	-2.925147	-0.579712	-0.090610	-0.799293	0.129824
44092	-9.409469	-1.110843	-2.734390	-0.579532	-0.090804	-0.799326	0.130289
44093	-9.430927	-1.001978	-2.975640	-0.579442	-0.091010	-0.799289	0.130770
44094	-9.439905	-0.997949	-2.898417	-0.579171	-0.091241	-0.799405	0.131105
44095	-9.456011	-0.806762	-2.668201	-0.579133	-0.091768	-0.799259	0.131787
44096	-9.422197	-0.778263	-2.550964	-0.579362	-0.092042	-0.798996	0.132186
44097	-9.327041	-0.855084	-2.835279	-0.579806	-0.092404	-0.798521	0.132856
44098	-9.392566	-0.852846	-2.912535	-0.580086	-0.092919	-0.798071	0.133970
44099	-9.540588	-0.842469	-2.793988	-0.580390	-0.092975	-0.797734	0.134623
44100	-9.554081	-0.777028	-2.823525	-0.581070	-0.092744	-0.797182	0.135120
44101	-9.538401	-0.742165	-2.633649	-0.581742	-0.092647	-0.796607	0.135684
44102	-9.405351	-0.870881	-2.696321	-0.582733	-0.092471	-0.795829	0.136115
44103	-9.258669	-1.103194	-2.901298	-0.583580	-0.092559	-0.795064	0.136894
44104	-9.270602	-1.074202	-2.767283	-0.583958	-0.093150	-0.794466	0.138348
44105	-9.335162	-0.930329	-2.546524	-0.584222	-0.093721	-0.793969	0.139695
44106	-9.287415	-0.787313	-2.609514	-0.584613	-0.094131	-0.793434	0.140817
44107	-9.290395	-0.692182	-2.640654	-0.584877	-0.094786	-0.792895	0.142311
44108	-9.209576	-0.619336	-2.797735	-0.585070	-0.095417	-0.792409	0.143793
44109	-9.197089	-0.671393	-3.023295	-0.585126	-0.096029	-0.792027	0.145257
44110	-9.244819	-0.753592	-3.041620	-0.584948	-0.096731	-0.791799	0.146743
44111	-9.230217	-0.883388	-2.962712	-0.584995	-0.097408	-0.791431	0.148090
44112	-9.292121	-1.164022	-2.913407	-0.584900	-0.098303	-0.791108	0.149586
44113	-9.436696	-1.261993	-2.746656	-0.584949	-0.099817	-0.790456	0.151823
44114	-9.473729	-1.266938	-2.675349	-0.585014	-0.101781	-0.789604	0.154676
44115	-9.419151	-1.092494	-2.639688	-0.585065	-0.104142	-0.788558	0.158204
44116	-9.511748	-0.924314	-2.657936	-0.585040	-0.106646	-0.787437	0.162167
44117	-9.748855	-0.779370	-2.559729	-0.584949	-0.109057	-0.786299	0.166356
44118	-10.017400	-0.629488	-2.420182	-0.584974	-0.111387	-0.785057	0.170540
44119	-10.049771	-0.626742	-2.276388	-0.585542	-0.112959	-0.783731	0.173627
44120	-9.841589	-1.018776	-2.254297	-0.586791	-0.114192	-0.782051	0.176160
44121	-9.657675	-1.438702	-2.309077	-0.588418	-0.115554	-0.780057	0.178671
44122	-9.269672	-1.883263	-2.427153	-0.590565	-0.117187	-0.777566	0.181359
44123	-3.461026	-1.127451	-1.873079	-0.594197	-0.116633	-0.773838	0.185747
44124	-15.167231	-8.813597	-17.245471	-0.618600	-0.091906	-0.765214	0.152754
44125	-10.468253	-5.002148	3.811137	-0.601040	-0.126187	-0.760322	0.211515
44126	-4.690966	8.310518	6.250515	-0.591606	-0.150675	-0.758583	0.227710
44127	-15.213082	-3.227312	-2.766817	-0.592062	-0.132310	-0.768635	0.202873
44128	-10.671091	-5.076942	-5.994832	-0.599325	-0.141531	-0.759918	0.208092
44129	-9.111343	-1.394770	-6.842977	-0.598804	-0.154027	-0.753091	0.224866
44130	-8.866944	0.882227	-2.692314	-0.599425	-0.159216	-0.748867	0.233535
44131	-10.052385	0.278922	-1.476074	-0.604127	-0.153650	-0.747293	0.230164
44132	-9.294062	-1.654331	0.636115	-0.609940	-0.149643	-0.743990	0.228163
44133	-7.336629	-0.830283	1.693936	-0.614079	-0.154082	-0.737746	0.234301
44134	-7.943646	0.196725	0.767821	-0.613085	-0.158449	-0.736356	0.238330
44135	-9.979209	-1.185604	-1.375188	-0.613332	-0.160138	-0.735315	0.239775
44136	-9.515633	-2.632387	-2.758966	-0.615485	-0.162158	-0.732459	0.241632
44137	-9.237363	-3.011913	-2.081655	-0.617042	-0.164266	-0.730020	0.243610
44138	-9.148443	-2.800892	-1.299796	-0.618951	-0.164398	-0.728092	0.244449
44139	-9.356740	-3.064482	-1.448299	-0.620199	-0.164929	-0.726537	0.245551
44140	-9.762740	-2.572714	-1.324892	-0.619946	-0.168445	-0.724940	0.248508
44141	-10.175013	-1.711060	-0.303556	-0.619092	-0.173336	-0.723575	0.251235
44142	-10.566824	-1.111941	0.798424	-0.618616	-0.178282	-0.722342	0.252493
44143	-10.715856	-0.950054	1.497471	-0.619627	-0.182923	-0.720104	0.253085
44144	-10.619998	-1.336200	1.798751	-0.622317	-0.187354	-0.716614	0.253148
44145	-10.197829	-1.608889	1.624684	-0.626309	-0.193179	-0.711107	0.254451
44146	-8.966488	-0.857777	0.486012	-0.629827	-0.201836	-0.704468	0.257497
44147	-8.136555	0.417317	-0.257141	-0.630969	-0.214030	-0.698264	0.261720
44148	-8.219610	1.352260	-1.919346	-0.631488	-0.224105	-0.694372	0.262389
44149	-8.767878	-0.320137	-2.281132	-0.632617	-0.229301	-0.692984	0.258824
44150	-8.782237	-2.437255	-1.823496	-0.633807	-0.231650	-0.692437	0.255260
44151	-9.014845	-3.230663	-1.261732	-0.632583	-0.235721	-0.692095	0.255499
44152	-9.156087	-1.136698	0.012890	-0.629557	-0.244754	-0.689487	0.261458
44153	-12.462268	0.763356	1.067790	-0.625298	-0.250061	-0.691017	0.262615
44154	-12.727163	-1.967087	1.518526	-0.626918	-0.242909	-0.694321	0.256687
44155	-9.309336	-5.542846	0.623552	-0.632692	-0.233179	-0.694350	0.251408
44156	-6.078908	-4.994070	-3.208391	-0.633253	-0.231300	-0.693603	0.253783
44157	-7.201940	-1.903614	-2.801996	-0.624666	-0.240098	-0.696036	0.260152
44158	-9.609454	1.479091	-2.084822	-0.615204	-0.256017	-0.695612	0.268522
44159	-10.086835	3.225012	-3.056692	-0.610241	-0.264842	-0.696975	0.267752
44160	-10.329916	-0.476437	-3.952310	-0.608712	-0.267042	-0.699186	0.263244
44161	-10.256617	-1.139068	-2.045422	-0.604243	-0.271976	-0.700266	0.265606
44162	-11.083161	0.296316	0.932486	-0.599859	-0.276199	-0.701079	0.269018
44163	-10.450106	0.029406	1.040172	-0.599040	-0.276836	-0.701588	0.268864
44164	-9.561895	-0.428066	-0.857869	-0.598469	-0.277753	-0.702352	0.267187
44165	-9.668570	-0.964546	-2.864745	-0.599453	-0.276953	-0.703607	0.262469
44166	-9.469497	-1.845286	-3.753755	-0.600746	-0.276584	-0.704072	0.258626
44167	-8.914018	-1.448348	-2.679901	-0.598747	-0.281102	-0.703273	0.260560
44168	-9.147406	-0.338280	-1.176825	-0.595073	-0.288207	-0.701686	0.265446
44169	-9.148012	0.024067	-1.543035	-0.591888	-0.294707	-0.699994	0.269860
44170	-9.207214	0.192826	-2.439259	-0.588382	-0.300324	-0.699266	0.273201
44171	-9.758635	0.311887	-2.631685	-0.585545	-0.303511	-0.699660	0.274762
44172	-9.819401	0.401264	-2.239219	-0.583971	-0.304595	-0.700429	0.274955
44173	-9.543972	0.466868	-2.088953	-0.583025	-0.304951	-0.701189	0.274628
44174	-9.243534	0.166927	-2.087265	-0.581783	-0.305894	-0.701860	0.274501
44175	-9.321186	-0.526139	-2.074987	-0.579741	-0.307712	-0.702563	0.274989
44176	-9.515058	-0.732187	-1.781546	-0.576800	-0.310793	-0.702956	0.276699
44177	-9.484689	-0.716974	-1.510370	-0.573617	-0.314397	-0.703092	0.278888
44178	-9.420283	-0.409914	-1.486344	-0.569632	-0.319070	-0.703062	0.281812
44179	-9.840193	0.314841	-1.137540	-0.565119	-0.324201	-0.703058	0.285034
44180	-10.314586	0.962993	-0.991180	-0.561654	-0.328052	-0.703179	0.287169
44181	-10.318360	1.190440	-0.966223	-0.559822	-0.330301	-0.703252	0.287990
44182	-10.296747	1.213810	-1.155002	-0.558731	-0.331934	-0.703162	0.288449
44183	-10.269901	1.067935	-1.284659	-0.558305	-0.332961	-0.703035	0.288399
44184	-9.950707	0.378439	-1.538225	-0.558593	-0.333155	-0.702980	0.287753
44185	-9.707544	-0.155485	-1.776385	-0.558650	-0.333492	-0.702957	0.287306
44186	-9.612348	-0.200485	-1.926054	-0.558557	-0.333949	-0.702927	0.287030
44187	-9.526361	-0.175540	-2.054206	-0.558606	-0.334219	-0.702936	0.286597
44188	-9.439434	0.014485	-2.120809	-0.558464	-0.334608	-0.702972	0.286331
44189	-9.313320	0.188514	-2.220451	-0.558469	-0.334748	-0.703097	0.285851
44190	-9.290051	0.092282	-2.442192	-0.558428	-0.334730	-0.703368	0.285285
44191	-9.464715	0.110877	-2.423056	-0.558245	-0.334644	-0.703745	0.284812
44192	-9.014321	0.336888	-2.421845	-0.558291	-0.334319	-0.704106	0.284211
44193	-9.902372	-0.049443	-2.237530	-0.557705	-0.334696	-0.704517	0.283902
44194	-9.665358	-0.118349	-2.572798	-0.558001	-0.333595	-0.705547	0.282050
44195	-9.365820	-0.095989	-2.690884	-0.557857	-0.333549	-0.705821	0.281704
44196	-9.590157	-0.078624	-2.262641	-0.557895	-0.332998	-0.706411	0.280800
44197	-9.549225	-0.038394	-2.241578	-0.558022	-0.332285	-0.707132	0.279575
44198	-9.579255	-0.108109	-2.324122	-0.558313	-0.331782	-0.707530	0.278581
44199	-9.547482	-0.138216	-2.253655	-0.558617	-0.331294	-0.707882	0.277657
44200	-9.637158	-0.119351	-2.191821	-0.558880	-0.330806	-0.708176	0.276960
44201	-9.623696	-0.032503	-2.253788	-0.559151	-0.330308	-0.708430	0.276358
44202	-9.671848	-0.048565	-2.156677	-0.559532	-0.329742	-0.708647	0.275704
44203	-9.675907	-0.175036	-2.066554	-0.560021	-0.329081	-0.708782	0.275156
44204	-9.631699	-0.179760	-2.073758	-0.560635	-0.328383	-0.708788	0.274723
44205	-9.558199	-0.177149	-2.152036	-0.561227	-0.327790	-0.708757	0.274303
44206	-9.522780	-0.215961	-2.096501	-0.561558	-0.327542	-0.708729	0.273993
44207	-9.599766	-0.187072	-1.991708	-0.561839	-0.327264	-0.708744	0.273709
44208	-9.613895	-0.070896	-2.015247	-0.562066	-0.326997	-0.708765	0.273509
44209	-9.681181	-0.034406	-1.987932	-0.562329	-0.326753	-0.708726	0.273362
44210	-9.636905	-0.027067	-1.990209	-0.562717	-0.326435	-0.708643	0.273157
44211	-9.611592	-0.147635	-1.971335	-0.563125	-0.326098	-0.708590	0.272855
44212	-9.581336	-0.245328	-1.963009	-0.563601	-0.325631	-0.708568	0.272487
44213	-9.512895	-0.159905	-2.073869	-0.564010	-0.325079	-0.708648	0.272094
44214	-9.523208	-0.075682	-2.038835	-0.564310	-0.324560	-0.708803	0.271686
44215	-9.548477	-0.014944	-2.084515	-0.564665	-0.323911	-0.709025	0.271142
44216	-9.593261	-0.057069	-2.095900	-0.565132	-0.323033	-0.709341	0.270389
44217	-9.620614	-0.092402	-1.999658	-0.565513	-0.322234	-0.709661	0.269708
44218	-9.605933	-0.115841	-1.982723	-0.566003	-0.321318	-0.709982	0.268925
44219	-9.581323	-0.153617	-2.057667	-0.566423	-0.320505	-0.710279	0.268224
44220	-9.599663	-0.165852	-2.032349	-0.566847	-0.319617	-0.710629	0.267462
44221	-9.581284	-0.176081	-2.069155	-0.567212	-0.318771	-0.710980	0.266763
44222	-9.558596	-0.091473	-2.036188	-0.567630	-0.317853	-0.711330	0.266035
44223	-9.552853	-0.106164	-2.066835	-0.567978	-0.317002	-0.711690	0.265344
44224	-9.558578	-0.035227	-2.099889	-0.568329	-0.316168	-0.712010	0.264730
44225	-9.520888	-0.023434	-2.117467	-0.568605	-0.315364	-0.712361	0.264150
44226	-9.582732	-0.035945	-2.043337	-0.568862	-0.314455	-0.712807	0.263476
44227	-9.569314	-0.058078	-2.064281	-0.569245	-0.313380	-0.713268	0.262680
44228	-9.554789	-0.117787	-2.107058	-0.569686	-0.312157	-0.713778	0.261795
44229	-9.525842	-0.108628	-2.178791	-0.570068	-0.311015	-0.714258	0.261012
44230	-9.531178	-0.120358	-2.161069	-0.570445	-0.309903	-0.714726	0.260230
44231	-9.494471	-0.186360	-2.165051	-0.570724	-0.308971	-0.715154	0.259549
44232	-9.506425	-0.262354	-2.103192	-0.570847	-0.308146	-0.715608	0.259007
44233	-9.545637	-0.261264	-2.116265	-0.570906	-0.307346	-0.716098	0.258473
44234	-9.602112	-0.140217	-2.046993	-0.570982	-0.306563	-0.716567	0.257935
44235	-9.651133	-0.115471	-2.098493	-0.571127	-0.305688	-0.717043	0.257329
44236	-9.658648	-0.099269	-2.103395	-0.571321	-0.304854	-0.717431	0.256805
44237	-9.615729	-0.135717	-2.073977	-0.571581	-0.304072	-0.717720	0.256346
44238	-9.530671	-0.269579	-2.131368	-0.571912	-0.303353	-0.717932	0.255866
44239	-9.499212	-0.378403	-2.177202	-0.572051	-0.302838	-0.718129	0.255613
44240	-9.494874	-0.345211	-2.179069	-0.572077	-0.302400	-0.718358	0.255429
44241	-9.532956	-0.247076	-2.152766	-0.571993	-0.301992	-0.718645	0.255292
44242	-9.566755	-0.171439	-2.064694	-0.571894	-0.301653	-0.718943	0.255073
44243	-9.609773	-0.205032	-2.078089	-0.571745	-0.301393	-0.719265	0.254809
44244	-9.608727	-0.206361	-2.082789	-0.571708	-0.301112	-0.719502	0.254555
44245	-9.566763	-0.268205	-2.151418	-0.571660	-0.300846	-0.719729	0.254336
44246	-9.574005	-0.250550	-2.157627	-0.571560	-0.300728	-0.719894	0.254232
44247	-9.540099	-0.229459	-2.110699	-0.571530	-0.300598	-0.720031	0.254066
44248	-9.594375	-0.270905	-2.081029	-0.571381	-0.300554	-0.720185	0.254016
44249	-9.599263	-0.270070	-2.060297	-0.571232	-0.300666	-0.720262	0.254001
44250	-9.592128	-0.284404	-2.096384	-0.571088	-0.300723	-0.720334	0.254054
44251	-9.527665	-0.276027	-2.137732	-0.570866	-0.300805	-0.720440	0.254155
44252	-9.545562	-0.210487	-2.167425	-0.570634	-0.300892	-0.720560	0.254232
44253	-9.564699	-0.178151	-2.117814	-0.570411	-0.300991	-0.720687	0.254255
44254	-9.587721	-0.211873	-2.126096	-0.570247	-0.301042	-0.720818	0.254192
44255	-9.560970	-0.215161	-2.149970	-0.570041	-0.301149	-0.720938	0.254185
44256	-9.571704	-0.212848	-2.104755	-0.569837	-0.301288	-0.721026	0.254228
44257	-9.558435	-0.176889	-2.055882	-0.569640	-0.301397	-0.721140	0.254219
44258	-9.507201	-0.269366	-2.130305	-0.569440	-0.301489	-0.721254	0.254236
44259	-9.527509	-0.263103	-2.176048	-0.569168	-0.301641	-0.721395	0.254263
44260	-9.522052	-0.228570	-2.183412	-0.568892	-0.301690	-0.721605	0.254228
44261	-9.531059	-0.161913	-2.161661	-0.568596	-0.301773	-0.721812	0.254203
44262	-9.543375	-0.143810	-2.147017	-0.568302	-0.301760	-0.722059	0.254174
44263	-9.607629	-0.138364	-2.144691	-0.567988	-0.301757	-0.722326	0.254121
