// Start Time: Unknown
// Update Rate: 60.0Hz
// Filter Profile: human (46.1)
// Option Flags: AHS Disabled ICC Disabled 
// Firmware Version: 4.3.5
PacketCounter	Acc_X	Acc_Y	Acc_Z	Quat_q0	Quat_q1	Quat_q2	Quat_q3
08551	0.064519	0.058834	9.814108	0.999989	0.003085	-0.003424	0.000694
08552	0.058262	0.068799	9.791263	0.999989	0.003081	-0.003424	0.000691
08553	0.049048	0.060905	9.808466	0.999989	0.003083	-0.003418	0.000654
08554	0.061627	0.059557	9.814123	0.999989	0.003076	-0.003436	0.000665
08555	0.066122	0.050042	9.836979	0.999989	0.003079	-0.003440	0.000659
08556	0.053092	0.032906	9.822996	0.999989	0.003076	-0.003439	0.000654
08557	0.058899	0.060096	9.814136	0.999989	0.003067	-0.003432	0.000656
08558	0.048020	0.075443	9.804049	0.999989	0.003077	-0.003450	0.000659
08559	0.065705	0.064597	9.832566	0.999989	0.003081	-0.003437	0.000651
08560	0.055909	0.061026	9.814148	0.999989	0.003078	-0.003436	0.000650
08561	0.046839	0.053162	9.831346	0.999989	0.003084	-0.003447	0.000649
08562	0.050765	0.048081	9.818587	0.999989	0.003084	-0.003450	0.000658
08563	0.040188	0.059093	9.844112	0.999989	0.003082	-0.003439	0.000649
08564	0.074111	0.064408	9.838256	0.999989	0.003086	-0.003435	0.000664
08565	0.060617	0.051647	9.788647	0.999989	0.003087	-0.003442	0.000663
08566	0.067051	0.074670	9.815405	0.999989	0.003086	-0.003446	0.000672
08567	0.040926	0.054881	9.831363	0.999989	0.003093	-0.003432	0.000646
08568	0.055997	0.015657	9.820390	0.999989	0.003078	-0.003441	0.000643
08569	0.057121	0.048298	9.824286	0.999989	0.003088	-0.003430	0.000636
08570	0.064350	0.056823	9.807101	0.999989	0.003092	-0.003442	0.000643
08571	0.072212	0.061018	9.825535	0.999989	0.003097	-0.003452	0.000645
08572	0.071274	0.061342	9.825540	0.999989	0.003098	-0.003446	0.000650
08573	0.039954	0.051149	9.818621	0.999989	0.003096	-0.003445	0.000644
08574	0.057132	0.044463	9.811551	0.999989	0.003102	-0.003441	0.000657
08575	0.052527	0.031273	9.815990	0.999989	0.003106	-0.003424	0.000648
08576	0.061926	0.072186	9.802693	0.999989	0.003109	-0.003442	0.000661
08577	0.059346	0.035721	9.834434	0.999989	0.003109	-0.003434	0.000645
08578	0.051787	0.064473	9.819886	0.999989	0.003096	-0.003437	0.000654
08579	0.069033	0.057740	9.812827	0.999989	0.003105	-0.003437	0.000648
08580	0.060002	0.049950	9.830014	0.999989	0.003107	-0.003455	0.000639
08581	0.050476	0.046464	9.811578	0.999989	0.003116	-0.003444	0.000632
08582	0.053281	0.055957	9.842771	0.999989	0.003106	-0.003448	0.000631
08583	0.048471	0.047008	9.811586	0.999989	0.003120	-0.003444	0.000627
08584	0.067849	0.072746	9.808416	0.999989	0.003102	-0.003451	0.000629
08585	0.058661	0.064838	9.825601	0.999989	0.003116	-0.003445	0.000603
08586	0.070988	0.063598	9.831303	0.999989	0.003108	-0.003442	0.000620
08587	0.054284	0.032909	9.821733	0.999989	0.003111	-0.003425	0.000620
08588	0.055176	0.065660	9.825616	0.999989	0.003111	-0.003417	0.000629
08589	0.077186	0.053493	9.805834	0.999989	0.003101	-0.003424	0.000622
08590	0.058647	0.056295	9.848503	0.999989	0.003095	-0.003445	0.000617
08591	0.057379	0.060823	9.812883	0.999989	0.003100	-0.003429	0.000610
08592	0.066149	0.046066	9.823028	0.999989	0.003101	-0.003423	0.000638
08593	0.048355	0.034212	9.821760	0.999989	0.003086	-0.003430	0.000637
08594	0.059528	0.051760	9.835780	0.999989	0.003092	-0.003431	0.000635
08595	0.054765	0.042911	9.804593	0.999989	0.003098	-0.003432	0.000637
08596	0.062451	0.047212	9.823046	0.999989	0.003112	-0.003438	0.000633
08597	0.055029	0.076142	9.808470	0.999989	0.003106	-0.003436	0.000639
08598	0.050569	0.062786	9.812908	0.999989	0.003102	-0.003436	0.000637
08599	0.049548	0.063144	9.812911	0.999989	0.003116	-0.003431	0.000635
08600	0.068081	0.037613	9.797591	0.999989	0.003111	-0.003429	0.000633
08601	0.049173	0.040457	9.840241	0.999989	0.003105	-0.003426	0.000648
08602	0.064869	0.056896	9.805904	0.999989	0.003106	-0.003443	0.000641
08603	0.045919	0.064044	9.812923	0.999989	0.003097	-0.003449	0.000631
08604	0.048760	0.073539	9.844117	0.999989	0.003103	-0.003448	0.000639
08605	0.049042	0.054823	9.835821	0.999989	0.003093	-0.003441	0.000642
08606	0.069663	0.061621	9.824382	0.999989	0.003099	-0.003442	0.000640
08607	0.051681	0.050024	9.823095	0.999989	0.003105	-0.003426	0.000630
08608	0.052060	0.031382	9.814801	0.999989	0.003105	-0.003441	0.000662
08609	0.053355	0.063961	9.818668	0.999989	0.003093	-0.003440	0.000645
08610	0.065891	0.062505	9.824402	0.999989	0.003091	-0.003452	0.000634
08611	0.048002	0.050784	9.823110	0.999989	0.003093	-0.003436	0.000636
08612	0.080529	0.074940	9.825713	0.999989	0.003087	-0.003433	0.000647
08613	0.063959	0.044252	9.816123	0.999989	0.003089	-0.003429	0.000643
08614	0.031260	0.053065	9.817386	0.999989	0.003091	-0.003422	0.000646
08615	0.040101	0.038301	9.827559	0.999989	0.003094	-0.003419	0.000632
08616	0.081055	0.070677	9.813011	0.999989	0.003096	-0.003416	0.000656
08617	0.059697	0.045429	9.816145	0.999989	0.003093	-0.003417	0.000651
08618	0.057307	0.064614	9.824442	0.999989	0.003082	-0.003327	0.000791
08619	0.052841	0.051371	9.828880	0.999989	0.003083	-0.003330	0.000798
08620	0.038499	0.053234	9.823139	0.999989	0.003088	-0.003328	0.000802
08621	0.064086	0.054699	9.799005	0.999989	0.003090	-0.003333	0.000803
08622	0.055054	0.042543	9.851795	0.999989	0.003083	-0.003330	0.000819
08623	0.067437	0.045403	9.821919	0.999989	0.003081	-0.003358	0.000824
08624	0.051876	0.066220	9.824462	0.999989	0.003089	-0.003347	0.000818
08625	0.069138	0.059564	9.817494	0.999989	0.003085	-0.003359	0.000811
08626	0.059949	0.051738	9.834653	0.999989	0.003091	-0.003359	0.000820
08627	0.055244	0.042831	9.803463	0.999989	0.003096	-0.003358	0.000829
08628	0.062773	0.046955	9.821942	0.999989	0.003091	-0.003356	0.000836
08629	0.061769	0.047126	9.821948	0.999989	0.003087	-0.003356	0.000834
08630	0.065813	0.042051	9.809233	0.999989	0.003100	-0.003374	0.000823
08631	0.063595	0.061287	9.817521	0.999989	0.003091	-0.003367	0.000817
08632	0.045807	0.049555	9.816200	0.999989	0.003099	-0.003380	0.000814
08633	0.053335	0.053790	9.834681	0.999989	0.003103	-0.003367	0.000830
08634	0.060541	0.062261	9.817534	0.999989	0.003109	-0.003364	0.000836
08635	0.056120	0.049067	9.821972	0.999989	0.003111	-0.003369	0.000833
08636	0.045281	0.064359	9.811776	0.999989	0.003108	-0.003367	0.000836
08637	0.049280	0.054848	9.834696	0.999989	0.003102	-0.003363	0.000821
08638	0.058054	0.039853	9.844904	0.999989	0.003091	-0.003354	0.000835
08639	0.047184	0.059497	9.799073	0.999989	0.003110	-0.003383	0.000846
08640	0.051522	0.050171	9.821992	0.999989	0.003097	-0.003382	0.000831
08641	0.040659	0.065342	9.811790	0.999989	0.003094	-0.003383	0.000830
08642	0.049598	0.050486	9.822000	0.999989	0.003093	-0.003386	0.000836
08643	0.075497	0.047575	9.833553	0.999989	0.003089	-0.003394	0.000832
08644	0.056292	0.059017	9.804861	0.999989	0.003092	-0.003401	0.000816
08645	0.060395	0.049709	9.827786	0.999989	0.003098	-0.003401	0.000823
08646	0.045984	0.051607	9.822012	0.999989	0.003099	-0.003397	0.000820
08647	0.065237	0.077383	9.818926	0.999989	0.003101	-0.003390	0.000824
08648	0.060902	0.064066	9.823365	0.999989	0.003094	-0.003411	0.000827
08649	0.065153	0.054791	9.846292	0.999989	0.003111	-0.003413	0.000829
08650	0.064031	0.059509	9.810663	0.999989	0.003118	-0.003410	0.000833
08651	0.043429	0.085714	9.825859	0.999989	0.003114	-0.003409	0.000830
08652	0.052383	0.070986	9.836082	0.999989	0.003126	-0.003418	0.000830
08653	0.066260	0.050875	9.833603	0.999989	0.003127	-0.003423	0.000834
08654	0.061742	0.041837	9.802411	0.999989	0.003124	-0.003428	0.000845
08655	0.059364	0.060953	9.810684	0.999989	0.003115	-0.003422	0.000840
08656	0.049919	0.052975	9.827828	0.999989	0.003108	-0.003419	0.000853
08657	0.048934	0.053164	9.827832	0.999989	0.003109	-0.003424	0.000829
08658	0.069693	0.059991	9.816493	0.999989	0.003112	-0.003422	0.000845
08659	0.056883	0.038716	9.838069	0.999989	0.003115	-0.003430	0.000832
08660	0.072822	0.051019	9.839435	0.999989	0.003119	-0.003428	0.000839
08661	0.046586	0.035448	9.819579	0.999989	0.003115	-0.003439	0.000839
08662	0.076027	0.046007	9.826746	0.999989	0.003109	-0.003448	0.000839
08663	0.047004	0.068409	9.823412	0.999989	0.003123	-0.003442	0.000832
08664	0.052434	0.040059	9.838089	0.999989	0.003106	-0.003451	0.000829
08665	0.055126	0.057685	9.798024	0.999989	0.003087	-0.003467	0.000842
08666	0.062721	0.061733	9.816529	0.999989	0.003098	-0.003459	0.000825
08667	0.063036	0.043208	9.808272	0.999989	0.003103	-0.003458	0.000831
08668	0.062125	0.039284	9.843912	0.999989	0.003100	-0.003455	0.000827
08669	0.059628	0.062687	9.816542	0.999989	0.003102	-0.003448	0.000821
08670	0.050288	0.054825	9.833676	0.999989	0.003096	-0.003456	0.000830
08671	0.049287	0.059261	9.798045	0.999989	0.003099	-0.003454	0.000817
08672	0.070042	0.057652	9.858003	0.999989	0.003096	-0.003444	0.000818
08673	0.060407	0.058161	9.803868	0.999989	0.003092	-0.003444	0.000816
08674	0.046009	0.055707	9.833692	0.999989	0.003088	-0.003431	0.000814
08675	0.058311	0.058629	9.803878	0.999989	0.003093	-0.003443	0.000817
08676	0.044074	0.056314	9.833698	0.999989	0.003096	-0.003438	0.000822
08677	0.064819	0.063097	9.822396	0.999989	0.003094	-0.003441	0.000833
08678	0.056807	0.036352	9.831271	0.999989	0.003097	-0.003436	0.000827
08679	0.062729	0.063674	9.822406	0.999989	0.003100	-0.003431	0.000830
08680	0.058169	0.050397	9.826846	0.999989	0.003097	-0.003431	0.000821
08681	0.065681	0.058626	9.809728	0.999989	0.003092	-0.003440	0.000824
08682	0.043082	0.052419	9.821027	0.999989	0.003104	-0.003445	0.000822
08683	0.047122	0.047369	9.808343	0.999989	0.003105	-0.003451	0.000821
08684	0.059431	0.046154	9.814176	0.999989	0.003113	-0.003438	0.000819
08685	0.058456	0.046452	9.814180	0.999989	0.003109	-0.003450	0.000808
08686	0.057555	0.046813	9.814184	0.999989	0.003122	-0.003449	0.000805
08687	0.051773	0.052535	9.826871	0.999989	0.003110	-0.003465	0.000807
08688	0.059269	0.060840	9.809756	0.999989	0.003119	-0.003456	0.000797
08689	0.063278	0.051461	9.832714	0.999989	0.003109	-0.003471	0.000818
08690	0.049031	0.053173	9.826881	0.999989	0.003107	-0.003462	0.000802
08691	0.051432	0.066970	9.822449	0.999989	0.003109	-0.003457	0.000799
08692	0.055251	0.061824	9.809773	0.999989	0.003109	-0.003451	0.000802
08693	0.027406	0.061009	9.833730	0.999989	0.003107	-0.003442	0.000795
08694	0.067681	0.041907	9.807383	0.999989	0.003117	-0.003436	0.000810
08695	0.078603	0.059458	9.821477	0.999989	0.003097	-0.003440	0.000802
08696	0.051001	0.062717	9.809790	0.999989	0.003105	-0.003442	0.000787
08697	0.059734	0.048056	9.820077	0.999989	0.003111	-0.003428	0.000797
08698	0.053837	0.053793	9.832758	0.999989	0.003109	-0.003444	0.000809
08699	0.079700	0.055054	9.808825	0.999989	0.003104	-0.003442	0.000805
08700	0.047238	0.059661	9.845439	0.999989	0.003105	-0.003455	0.000806
08701	0.061270	0.043711	9.807417	0.999989	0.003119	-0.003462	0.000794
08702	0.055545	0.049502	9.820094	0.999989	0.003114	-0.003472	0.000792
08703	0.067739	0.048107	9.825956	0.999989	0.003110	-0.003447	0.000779
08704	0.061722	0.053755	9.838635	0.999989	0.003110	-0.003463	0.000813
08705	0.060983	0.058170	9.803000	0.999989	0.003111	-0.003465	0.000785
08706	0.060130	0.054148	9.838642	0.999989	0.003097	-0.003482	0.000789
08707	0.050965	0.050430	9.820115	0.999989	0.003100	-0.003489	0.000777
08708	0.066915	0.062634	9.821544	0.999989	0.003098	-0.003488	0.000770
08709	0.053977	0.041287	9.843090	0.999989	0.003099	-0.003491	0.000775
08710	0.049594	0.032288	9.811891	0.999989	0.003108	-0.003495	0.000763
08711	0.050702	0.065023	9.815692	0.999989	0.003100	-0.003488	0.000755
08712	0.047653	0.032794	9.811899	0.999989	0.003106	-0.003502	0.000754
08713	0.070720	0.072255	9.804460	0.999989	0.003124	-0.003503	0.000752
08714	0.061457	0.068846	9.785927	0.999989	0.003128	-0.003512	0.000734
08715	0.065397	0.055395	9.844543	0.999989	0.003130	-0.003518	0.000731
08716	0.029429	0.054954	9.814266	0.999989	0.003137	-0.003519	0.000731
08717	0.046681	0.048306	9.807476	0.999989	0.003139	-0.003513	0.000725
08718	0.072400	0.045322	9.819229	0.999989	0.003121	-0.003522	0.000728
08719	0.039721	0.053997	9.820148	0.999989	0.003123	-0.003502	0.000736
08720	0.060564	0.060693	9.808928	0.999989	0.003116	-0.003523	0.000740
08721	0.051293	0.052889	9.826031	0.999989	0.003123	-0.003521	0.000745
08722	0.050262	0.053136	9.826035	0.999989	0.003116	-0.003516	0.000758
08723	0.032416	0.041371	9.824594	0.999989	0.003116	-0.003520	0.000768
08724	0.060248	0.071051	9.840148	0.999989	0.003123	-0.003521	0.000764
08725	0.055937	0.061959	9.808948	0.999989	0.003117	-0.003530	0.000772
08726	0.046632	0.058180	9.790408	0.999989	0.003109	-0.003525	0.000788
08727	0.063988	0.047149	9.819279	0.999989	0.003103	-0.003548	0.000812
08728	0.071546	0.051285	9.837829	0.999989	0.003107	-0.003542	0.000772
08729	0.057293	0.053286	9.831944	0.999989	0.003121	-0.003553	0.000786
08730	0.061359	0.048291	9.819290	0.999988	0.003129	-0.003551	0.000788
08731	0.060318	0.048635	9.819295	0.999989	0.003131	-0.003545	0.000782
08732	0.059260	0.048961	9.819300	0.999988	0.003137	-0.003543	0.000794
08733	0.058330	0.053410	9.783663	0.999989	0.003138	-0.003537	0.000800
08734	0.077565	0.070860	9.851971	0.999988	0.003139	-0.003554	0.000793
08735	0.064861	0.057909	9.802221	0.999988	0.003143	-0.003538	0.000784
08736	0.055302	0.050104	9.819317	0.999988	0.003136	-0.003548	0.000794
08737	0.057822	0.059661	9.850525	0.999988	0.003136	-0.003550	0.000774
08738	0.044865	0.042589	9.836414	0.999989	0.003066	-0.003438	0.000839
08739	0.075583	0.038381	9.799931	0.999989	0.003056	-0.003443	0.000837
08740	0.050140	0.074091	9.791905	0.999989	0.003053	-0.003441	0.000831
08741	0.050461	0.051229	9.819337	0.999989	0.003053	-0.003448	0.000829
08742	0.049467	0.051510	9.819341	0.999989	0.003054	-0.003443	0.000839
08743	0.043500	0.057256	9.831993	0.999989	0.003053	-0.003449	0.000841
08744	0.060876	0.050687	9.825256	0.999989	0.003073	-0.003451	0.000839
08745	0.046681	0.052618	9.819349	0.999989	0.003068	-0.003460	0.000842
08746	0.057721	0.070229	9.833472	0.999989	0.003070	-0.003463	0.000837
08747	0.058330	0.051590	9.825267	0.999989	0.003075	-0.003473	0.000839
08748	0.057391	0.051918	9.825270	0.999989	0.003077	-0.003466	0.000841
08749	0.059958	0.065609	9.820837	0.999989	0.003068	-0.003470	0.000829
08750	0.050476	0.057596	9.837925	0.999989	0.003052	-0.003467	0.000834
08751	0.063055	0.060488	9.808203	0.999989	0.003073	-0.003473	0.000835
08752	0.057367	0.066375	9.820848	0.999989	0.003065	-0.003492	0.000842
08753	0.061571	0.061063	9.808209	0.999989	0.003061	-0.003490	0.000837
08754	0.048728	0.043861	9.794088	0.999989	0.003060	-0.003491	0.000826
08755	0.050894	0.049341	9.860940	0.999989	0.003057	-0.003492	0.000841
08756	0.060163	0.042750	9.800019	0.999989	0.003056	-0.003495	0.000849
08757	0.049175	0.053954	9.825304	0.999989	0.003057	-0.003487	0.000857
08758	0.075061	0.055064	9.801519	0.999989	0.003040	-0.003495	0.000857
