// Start Time: Unknown
// Update Rate: 60.0Hz
// Filter Profile: human (46.1)
// Option Flags: AHS Disabled ICC Disabled 
// Firmware Version: 4.3.5
PacketCounter	Acc_X	Acc_Y	Acc_Z	Quat_q0	Quat_q1	Quat_q2	Quat_q3
43442	-9.609447	0.323048	-1.408096	-0.654912	-0.056189	-0.752763	0.035781
43443	-9.634277	0.327198	-1.487649	-0.654778	-0.056210	-0.752874	0.035876
43444	-9.608755	0.332040	-1.457112	-0.654655	-0.056290	-0.752967	0.036042
43445	-9.656795	0.284714	-1.400097	-0.654534	-0.056408	-0.753055	0.036226
43446	-9.657770	0.300074	-1.298678	-0.654415	-0.056547	-0.753135	0.036479
43447	-9.667297	0.334361	-1.388862	-0.654290	-0.056507	-0.753244	0.036523
43448	-9.680965	0.288963	-1.452708	-0.654206	-0.056342	-0.753333	0.036479
43449	-9.637469	0.270382	-1.439901	-0.654194	-0.056244	-0.753349	0.036484
43450	-9.676257	0.193067	-1.313885	-0.654201	-0.056252	-0.753338	0.036602
43451	-9.601851	0.229379	-1.356973	-0.654232	-0.056234	-0.753307	0.036697
43452	-9.599366	0.202258	-1.499756	-0.654225	-0.056133	-0.753321	0.036700
43453	-9.567387	0.240129	-1.520668	-0.654197	-0.056018	-0.753352	0.036733
43454	-9.584608	0.239182	-1.445515	-0.654113	-0.056005	-0.753419	0.036855
43455	-9.564944	0.183051	-1.336717	-0.654010	-0.056022	-0.753501	0.036992
43456	-9.640825	0.189761	-1.381059	-0.653859	-0.055978	-0.753631	0.037073
43457	-9.674408	0.194676	-1.393910	-0.653759	-0.055971	-0.753719	0.037077
43458	-9.667522	0.232163	-1.416745	-0.653682	-0.055959	-0.753785	0.037102
43459	-9.650156	0.225989	-1.388954	-0.653608	-0.056005	-0.753840	0.037220
43460	-9.616868	0.228820	-1.313923	-0.653527	-0.055975	-0.753910	0.037275
43461	-9.639860	0.198571	-1.349524	-0.653463	-0.055874	-0.753974	0.037252
43462	-9.638725	0.190522	-1.387981	-0.653424	-0.055824	-0.754012	0.037239
43463	-9.646032	0.192311	-1.488327	-0.653413	-0.055750	-0.754029	0.037208
43464	-9.612425	0.197031	-1.466808	-0.653370	-0.055861	-0.754052	0.037313
43465	-9.614411	0.214143	-1.363019	-0.653359	-0.055927	-0.754052	0.037405
43466	-9.586839	0.187752	-1.396742	-0.653315	-0.055918	-0.754092	0.037389
43467	-9.629475	0.202315	-1.416142	-0.653218	-0.055930	-0.754175	0.037391
43468	-9.620798	0.220713	-1.490063	-0.653149	-0.055905	-0.754238	0.037366
43469	-9.607014	0.276585	-1.473089	-0.653069	-0.055931	-0.754304	0.037384
43470	-9.646719	0.229244	-1.426913	-0.653012	-0.056008	-0.754346	0.037424
43471	-9.638721	0.239973	-1.424833	-0.653041	-0.055981	-0.754324	0.037395
43472	-9.628241	0.202962	-1.395654	-0.653022	-0.056028	-0.754336	0.037422
43473	-9.646764	0.232373	-1.397532	-0.653009	-0.056103	-0.754337	0.037498
43474	-9.648266	0.280110	-1.481518	-0.652965	-0.056027	-0.754387	0.037383
43475	-9.642436	0.324867	-1.467472	-0.652956	-0.056004	-0.754399	0.037335
43476	-9.597783	0.280814	-1.429937	-0.652978	-0.055943	-0.754388	0.037269
43477	-9.628517	0.239949	-1.467808	-0.652976	-0.055881	-0.754397	0.037217
43478	-9.628573	0.253005	-1.508542	-0.652980	-0.055831	-0.754399	0.037175
43479	-9.604028	0.259789	-1.473771	-0.653042	-0.055760	-0.754355	0.037093
43480	-9.571642	0.271226	-1.415388	-0.653040	-0.055713	-0.754362	0.037059
43481	-9.558750	0.236128	-1.551596	-0.652964	-0.055673	-0.754428	0.037090
43482	-9.589448	0.179301	-1.498740	-0.652815	-0.055757	-0.754547	0.037180
43483	-9.600469	0.211717	-1.425680	-0.652642	-0.055881	-0.754679	0.037343
43484	-9.629708	0.282332	-1.426733	-0.652495	-0.056018	-0.754788	0.037511
43485	-9.612147	0.319453	-1.571762	-0.652388	-0.056066	-0.754872	0.037607
43486	-9.632200	0.353162	-1.486436	-0.652231	-0.056032	-0.755008	0.037651
43487	-9.594707	0.295740	-1.457072	-0.652066	-0.056003	-0.755149	0.037716
43488	-9.579235	0.217586	-1.534992	-0.651832	-0.055987	-0.755347	0.037820
43489	-9.578102	0.207228	-1.522618	-0.651632	-0.055964	-0.755516	0.037933
43490	-9.525150	0.208122	-1.584658	-0.651322	-0.055910	-0.755786	0.037962
43491	-9.600570	0.220965	-1.600760	-0.650909	-0.055973	-0.756132	0.038062
43492	-9.516122	0.233937	-1.552857	-0.650426	-0.056054	-0.756533	0.038220
43493	-9.501197	0.181862	-1.607230	-0.649834	-0.056208	-0.757019	0.038450
43494	-9.528974	0.110423	-1.582597	-0.649193	-0.056352	-0.757550	0.038614
43495	-9.571810	0.128507	-1.527245	-0.648510	-0.056502	-0.758114	0.038809
43496	-9.562003	0.178569	-1.604523	-0.647773	-0.056659	-0.758724	0.038963
43497	-9.524117	0.182524	-1.655548	-0.646960	-0.056793	-0.759398	0.039138
43498	-9.516474	0.244198	-1.665924	-0.646047	-0.056999	-0.760144	0.039454
43499	-9.545663	0.157099	-1.555619	-0.645068	-0.057282	-0.760934	0.039821
43500	-9.586954	0.074876	-1.587786	-0.644067	-0.057608	-0.761736	0.040221
43501	-9.581546	0.091072	-1.672463	-0.643069	-0.057992	-0.762526	0.040663
43502	-9.608293	0.186956	-1.718700	-0.642094	-0.058380	-0.763298	0.041034
43503	-9.526580	0.260748	-1.693085	-0.641139	-0.058743	-0.764051	0.041426
43504	-9.556776	0.256502	-1.707397	-0.640226	-0.059172	-0.764758	0.041888
43505	-9.685354	0.271012	-1.651502	-0.639348	-0.059598	-0.765436	0.042300
43506	-9.766206	0.364266	-1.643270	-0.638552	-0.059900	-0.766062	0.042570
43507	-9.815098	0.405721	-1.693910	-0.637890	-0.060114	-0.766587	0.042741
43508	-9.791175	0.493114	-1.743641	-0.637468	-0.060202	-0.766926	0.042835
43509	-9.826099	0.504283	-1.727147	-0.637342	-0.060210	-0.767026	0.042900
43510	-9.782158	0.434147	-1.816289	-0.637491	-0.059989	-0.766924	0.042820
43511	-9.693651	0.380415	-1.827316	-0.637751	-0.059555	-0.766751	0.042663
43512	-9.624717	0.257047	-1.861037	-0.638076	-0.058913	-0.766549	0.042305
43513	-9.580538	0.205639	-1.847960	-0.638468	-0.058131	-0.766313	0.041757
43514	-9.522943	0.133639	-1.895958	-0.638900	-0.057329	-0.766047	0.041135
43515	-9.535813	0.016816	-1.994776	-0.639364	-0.056486	-0.765759	0.040457
43516	-9.489189	-0.107825	-1.930935	-0.639709	-0.055907	-0.765533	0.040067
43517	-9.476462	-0.134424	-1.835148	-0.639966	-0.055493	-0.765359	0.039878
43518	-9.380574	-0.085880	-1.645744	-0.640144	-0.055304	-0.765225	0.039843
43519	-9.430726	-0.085006	-1.666865	-0.640205	-0.055247	-0.765177	0.039872
43520	-9.560144	-0.093164	-1.773108	-0.640192	-0.055258	-0.765188	0.039862
43521	-9.601481	-0.041791	-1.703043	-0.640112	-0.055438	-0.765228	0.040110
43522	-9.572498	0.054393	-1.582423	-0.640009	-0.055756	-0.765271	0.040495
43523	-9.556150	0.123574	-1.658822	-0.639931	-0.056184	-0.765282	0.040930
43524	-9.582826	0.167721	-1.690705	-0.639853	-0.056534	-0.765307	0.041196
43525	-9.583503	0.121676	-1.764642	-0.639799	-0.056850	-0.765317	0.041430
43526	-9.686045	0.128451	-1.910073	-0.639758	-0.057194	-0.765305	0.041803
43527	-9.609994	0.195106	-1.687823	-0.639747	-0.057661	-0.765253	0.042272
43528	-9.625978	0.255644	-1.634669	-0.639780	-0.058029	-0.765178	0.042613
43529	-9.573720	0.312350	-1.733653	-0.639863	-0.058211	-0.765087	0.042768
43530	-9.573330	0.285986	-1.861916	-0.640003	-0.058249	-0.764964	0.042815
43531	-9.587139	0.240775	-1.865139	-0.640119	-0.058278	-0.764863	0.042857
43532	-9.607674	0.156411	-1.848976	-0.640281	-0.058219	-0.764732	0.042845
43533	-9.548252	0.123280	-1.812105	-0.640446	-0.058137	-0.764603	0.042808
43534	-9.520385	0.155852	-1.753252	-0.640616	-0.058110	-0.764461	0.042830
43535	-9.534423	0.144101	-1.798790	-0.640766	-0.058060	-0.764339	0.042823
43536	-9.592598	0.094700	-1.914778	-0.640828	-0.058055	-0.764285	0.042865
43537	-9.538974	0.128648	-1.857135	-0.640875	-0.058143	-0.764231	0.043009
43538	-9.493983	0.137327	-1.764103	-0.640975	-0.058268	-0.764129	0.043153
43539	-9.489889	0.115493	-1.813874	-0.641080	-0.058335	-0.764031	0.043241
43540	-9.488017	0.099990	-1.829606	-0.641097	-0.058316	-0.764013	0.043325
43541	-9.477537	0.100765	-1.710161	-0.640989	-0.058485	-0.764076	0.043594
43542	-9.483553	0.158481	-1.672912	-0.640764	-0.058759	-0.764224	0.043933
43543	-9.521778	0.203098	-1.644138	-0.640440	-0.058957	-0.764470	0.044109
43544	-9.555878	0.221049	-1.648617	-0.640057	-0.059141	-0.764766	0.044293
43545	-9.592668	0.206577	-1.708995	-0.639670	-0.059319	-0.765067	0.044442
43546	-9.639878	0.180103	-1.719398	-0.639263	-0.059446	-0.765389	0.044607
43547	-9.634465	0.255719	-1.605604	-0.638878	-0.059564	-0.765690	0.044785
43548	-9.590893	0.264657	-1.621506	-0.638547	-0.059565	-0.765959	0.044907
43549	-9.634258	0.276793	-1.747737	-0.638241	-0.059474	-0.766217	0.044964
43550	-9.619691	0.283422	-1.708364	-0.637996	-0.059442	-0.766416	0.045102
43551	-9.658470	0.220092	-1.682899	-0.637759	-0.059425	-0.766607	0.045226
43552	-9.674182	0.172804	-1.639697	-0.637568	-0.059481	-0.766752	0.045393
43553	-9.663959	0.167917	-1.656236	-0.637454	-0.059571	-0.766828	0.045600
43554	-9.690626	0.197329	-1.802440	-0.637453	-0.059665	-0.766809	0.045791
43555	-9.652198	0.120577	-1.912800	-0.637595	-0.059647	-0.766680	0.045999
43556	-9.596360	0.024687	-1.752682	-0.637775	-0.059610	-0.766517	0.046274
43557	-9.562054	-0.073841	-1.648488	-0.637938	-0.059656	-0.766359	0.046584
43558	-9.529068	-0.164648	-1.662023	-0.638114	-0.059747	-0.766185	0.046926
43559	-9.639303	-0.181658	-1.787263	-0.638283	-0.059948	-0.766006	0.047283
43560	-9.715426	-0.077182	-1.804098	-0.638572	-0.060213	-0.765727	0.047563
43561	-9.693535	-0.016221	-1.708222	-0.639066	-0.060518	-0.765272	0.047876
43562	-9.629422	-0.042388	-1.635735	-0.639709	-0.060841	-0.764688	0.048200
43563	-9.501730	-0.092838	-1.599650	-0.640415	-0.061185	-0.764052	0.048475
43564	-9.462762	-0.193073	-1.723960	-0.641164	-0.061558	-0.763379	0.048703
43565	-9.321623	-0.265277	-1.901425	-0.641873	-0.062164	-0.762709	0.049082
43566	-9.316930	-0.134190	-2.377730	-0.642484	-0.063096	-0.762085	0.049589
43567	-9.398774	-0.241974	-2.796705	-0.642779	-0.063976	-0.761725	0.050173
43568	-9.545437	-0.110272	-2.817337	-0.642969	-0.064405	-0.761503	0.050564
43569	-9.224412	-0.167491	-2.542219	-0.643011	-0.064715	-0.761436	0.050629
43570	-9.190890	-0.145665	-2.403546	-0.643022	-0.065807	-0.761279	0.051447
43571	-9.346403	0.084367	-2.703413	-0.643060	-0.066742	-0.761125	0.052038
43572	-9.406708	0.145991	-2.610355	-0.643119	-0.067067	-0.761055	0.051912
43573	-9.387714	-0.060610	-2.656224	-0.643101	-0.067162	-0.761080	0.051648
43574	-9.413344	-0.148138	-2.667398	-0.642888	-0.067679	-0.761187	0.052043
43575	-9.522653	-0.056475	-2.319799	-0.642782	-0.068180	-0.761202	0.052470
43576	-9.685231	-0.053117	-1.976559	-0.642904	-0.068481	-0.761064	0.052602
43577	-9.807016	0.035903	-2.066370	-0.643354	-0.068660	-0.760668	0.052592
43578	-9.670068	0.122495	-2.088469	-0.643993	-0.068813	-0.760097	0.052832
43579	-9.499819	0.379102	-2.205108	-0.644728	-0.068896	-0.759457	0.052964
43580	-9.743711	0.475583	-2.303120	-0.645652	-0.068542	-0.758724	0.052661
43581	-9.902021	0.623548	-2.157762	-0.647050	-0.068048	-0.757616	0.052094
43582	-9.768957	0.187639	-1.851449	-0.648947	-0.067551	-0.756074	0.051534
43583	-9.754455	0.176133	-1.967716	-0.651210	-0.067015	-0.754190	0.051305
43584	-10.307988	-0.173978	-2.499667	-0.653741	-0.066440	-0.752055	0.051203
43585	-10.363107	-0.054407	-2.730527	-0.657113	-0.066182	-0.749116	0.051450
43586	-9.930470	0.062231	-2.728113	-0.661153	-0.066003	-0.745535	0.051938
43587	-9.625594	-0.001707	-2.229476	-0.665599	-0.066246	-0.741468	0.053048
43588	-9.518009	0.056000	-1.824219	-0.670235	-0.067171	-0.737076	0.054702
43589	-9.275971	-0.235861	-1.849413	-0.674759	-0.068792	-0.732636	0.056668
43590	-8.681723	-1.262098	-1.857314	-0.678338	-0.071945	-0.728756	0.059958
43591	-7.987398	-1.447752	-1.543889	-0.680100	-0.077336	-0.726107	0.065209
43592	-8.122363	-0.785301	-1.531520	-0.680383	-0.083701	-0.724592	0.070991
43593	-8.690331	0.191802	-1.119833	-0.680014	-0.089892	-0.723657	0.076291
43594	-9.211709	1.245223	-0.720214	-0.679271	-0.095402	-0.723217	0.080290
43595	-9.614769	1.644041	-0.445951	-0.678707	-0.099338	-0.722954	0.082622
43596	-9.484926	1.666187	-0.164072	-0.678330	-0.102115	-0.722716	0.084392
43597	-9.448786	1.801121	-0.029106	-0.677733	-0.103417	-0.722963	0.085478
43598	-9.297066	1.527043	0.131448	-0.677202	-0.103241	-0.723436	0.085907
43599	-8.821569	0.940075	0.144803	-0.676570	-0.102722	-0.724098	0.085927
43600	-8.863805	0.346226	0.107369	-0.675391	-0.102971	-0.725136	0.086152
43601	-9.563915	0.271085	0.448678	-0.673830	-0.103855	-0.726394	0.086714
43602	-10.333588	0.536103	1.318312	-0.672156	-0.105171	-0.727622	0.087821
43603	-10.292928	0.766494	2.219230	-0.670678	-0.106234	-0.728656	0.089249
43604	-10.457625	0.817619	2.731540	-0.668848	-0.106804	-0.730111	0.090405
43605	-11.038908	0.898221	2.614749	-0.666957	-0.107210	-0.731666	0.091323
43606	-11.434322	1.280332	2.187517	-0.665307	-0.107512	-0.733034	0.092026
43607	-11.194740	1.515340	1.845027	-0.664192	-0.107482	-0.734022	0.092246
43608	-10.703288	1.424969	1.382497	-0.663342	-0.107051	-0.734854	0.092228
43609	-10.251981	1.082164	0.907356	-0.662191	-0.106672	-0.735911	0.092512
43610	-10.117710	0.606969	0.598128	-0.660575	-0.105974	-0.737435	0.092736
43611	-9.929909	0.259851	0.337775	-0.658841	-0.104678	-0.739185	0.092616
43612	-9.947751	0.216350	0.337755	-0.656971	-0.103153	-0.741103	0.092278
43613	-10.106578	0.328959	0.596977	-0.654842	-0.101922	-0.743173	0.092127
43614	-10.450707	0.611986	0.621138	-0.652595	-0.100620	-0.745362	0.091816
43615	-10.445793	0.866578	0.588107	-0.650731	-0.098615	-0.747366	0.090931
43616	-10.448473	0.872089	0.258062	-0.648883	-0.095966	-0.749456	0.089762
43617	-10.278021	0.855386	0.270887	-0.647441	-0.092494	-0.751318	0.088235
43618	-9.479181	0.714614	0.129294	-0.646463	-0.088308	-0.752928	0.085946
43619	-8.946893	0.298764	-0.042052	-0.645412	-0.083933	-0.754642	0.083156
43620	-9.048545	-0.056933	-0.338263	-0.644050	-0.079703	-0.756576	0.080255
43621	-9.683822	0.034482	-0.305579	-0.642258	-0.075248	-0.758890	0.076995
43622	-10.549590	0.144814	-0.036671	-0.640416	-0.070256	-0.761283	0.073348
43623	-10.757509	0.204914	-0.900142	-0.639574	-0.065545	-0.762698	0.070289
43624	-9.963661	-0.077241	-2.087722	-0.640498	-0.061189	-0.762538	0.067478
43625	-8.895520	-0.544259	-2.284160	-0.641701	-0.057381	-0.762060	0.064741
43626	-8.998789	-0.682365	-2.046552	-0.642391	-0.054508	-0.761865	0.062647
43627	-9.001809	-0.480331	-2.126532	-0.643093	-0.052356	-0.761539	0.061227
43628	-8.384013	-0.273258	-2.473334	-0.643523	-0.050415	-0.761412	0.059910
43629	-8.125698	-0.227040	-2.983933	-0.642796	-0.048230	-0.762301	0.058173
43630	-8.385345	-0.196415	-3.613832	-0.641103	-0.045907	-0.764018	0.056178
43631	-8.531938	-0.194259	-3.572934	-0.638803	-0.043599	-0.766244	0.053860
43632	-8.793929	-0.277704	-3.080859	-0.635672	-0.041821	-0.769100	0.051554
43633	-9.148435	-0.435741	-2.759599	-0.632005	-0.040303	-0.772345	0.049280
43634	-9.409236	-0.370909	-2.591554	-0.627892	-0.038486	-0.775928	0.046977
43635	-9.644211	0.170069	-2.529035	-0.623979	-0.036232	-0.779327	0.044575
43636	-9.967138	0.379577	-2.166060	-0.620259	-0.033793	-0.782523	0.042358
43637	-10.104686	0.590707	-1.164863	-0.616862	-0.030768	-0.785445	0.040133
43638	-9.913087	0.716236	-1.503949	-0.614104	-0.026895	-0.787887	0.037252
43639	-9.829536	0.142592	-2.096253	-0.611913	-0.022700	-0.789882	0.033682
43640	-9.731192	-0.236775	-2.498357	-0.610252	-0.019167	-0.791396	0.030285
43641	-9.128270	-0.428829	-2.832437	-0.608892	-0.016054	-0.792621	0.027313
43642	-8.065611	-0.802467	-3.366306	-0.607092	-0.013025	-0.794150	0.024400
43643	-8.850910	-1.867485	-3.998974	-0.604639	-0.010190	-0.796143	0.021550
43644	-9.284903	-1.776280	-4.493970	-0.602832	-0.008518	-0.797568	0.020160
43645	-9.014090	-1.095260	-4.346368	-0.601171	-0.007621	-0.798841	0.019721
43646	-8.531114	-0.277925	-4.553369	-0.599817	-0.006488	-0.799887	0.018927
43647	-8.712248	-0.587004	-4.518229	-0.598496	-0.004811	-0.800927	0.017178
43648	-9.144838	-1.179680	-4.392800	-0.597268	-0.003334	-0.801887	0.015437
43649	-9.416364	-1.443384	-4.687563	-0.596516	-0.002392	-0.802473	0.014147
43650	-9.414019	-1.284239	-4.145540	-0.596269	-0.002147	-0.802665	0.013688
43651	-9.345911	-1.342281	-4.098587	-0.596435	-0.002441	-0.802541	0.013698
43652	-9.185403	-1.193624	-4.344195	-0.596865	-0.003196	-0.802210	0.014193
43653	-9.019106	-0.934101	-4.273503	-0.597393	-0.004254	-0.801794	0.015184
43654	-9.140498	-0.600448	-4.551512	-0.598039	-0.005791	-0.801274	0.016618
43655	-9.073770	0.011424	-4.921171	-0.598990	-0.007804	-0.800509	0.018312
43656	-9.357956	0.252621	-4.612115	-0.600123	-0.010197	-0.799588	0.020174
43657	-9.222320	0.608348	-4.433721	-0.601413	-0.012651	-0.798528	0.022256
43658	-8.890108	0.799067	-4.131601	-0.602883	-0.014894	-0.797315	0.024474
43659	-8.594553	0.549935	-3.881889	-0.604287	-0.016706	-0.796155	0.026376
43660	-8.951957	0.153770	-4.219752	-0.605793	-0.018624	-0.794900	0.028309
43661	-8.904607	0.348269	-4.506887	-0.607418	-0.020756	-0.793524	0.030535
43662	-9.141899	0.580428	-4.244817	-0.609177	-0.022856	-0.792027	0.032761
43663	-9.478021	0.209015	-3.946411	-0.611043	-0.024693	-0.790439	0.034966
43664	-9.319760	-0.060422	-3.669798	-0.612934	-0.026089	-0.788841	0.036885
43665	-9.089942	-0.734428	-3.547924	-0.614734	-0.027289	-0.787322	0.038482
43666	-8.767442	-0.644534	-3.489361	-0.616289	-0.028794	-0.785975	0.040026
43667	-8.676157	-0.768114	-3.470707	-0.617479	-0.029923	-0.784961	0.040736
43668	-9.092471	-1.411700	-3.387477	-0.618352	-0.030973	-0.784216	0.041071
43669	-9.086995	-2.158259	-3.025776	-0.619409	-0.032480	-0.783295	0.041546
43670	-9.224644	-2.589125	-2.425710	-0.620527	-0.035007	-0.782239	0.042694
43671	-9.351480	-2.651246	-2.441057	-0.621848	-0.038645	-0.780915	0.044533
43672	-9.202793	-2.033893	-2.049369	-0.623007	-0.042922	-0.779638	0.046740
43673	-9.461841	-1.058429	-1.778292	-0.624240	-0.046664	-0.778322	0.048594
43674	-9.220076	0.099222	-2.300539	-0.626254	-0.049731	-0.776426	0.049955
43675	-9.107230	0.552906	-2.729133	-0.628862	-0.051556	-0.774223	0.049524
43676	-9.424182	0.533513	-2.597530	-0.631777	-0.052336	-0.771900	0.047841
43677	-9.796391	0.837761	-2.843910	-0.634914	-0.052460	-0.769440	0.045757
43678	-10.260456	1.497355	-2.980639	-0.638446	-0.051691	-0.766718	0.043105
43679	-10.146580	1.557196	-2.717479	-0.642802	-0.050400	-0.763289	0.040678
43680	-9.672099	0.914340	-2.268867	-0.647040	-0.048973	-0.759874	0.039154
43681	-9.225905	0.080307	-2.234200	-0.650783	-0.049249	-0.756618	0.039807
43682	-9.254584	0.307197	-2.090479	-0.653902	-0.052113	-0.753564	0.042873
43683	-9.426034	1.451467	-1.180772	-0.656606	-0.056044	-0.750701	0.046638
43684	-9.647318	2.978592	-0.106432	-0.658909	-0.059467	-0.748191	0.050137
43685	-9.926336	4.046456	-0.056558	-0.661120	-0.061632	-0.745868	0.052941
43686	-10.319787	4.577372	-0.490204	-0.663663	-0.061905	-0.743458	0.054668
43687	-10.467413	4.095346	-0.444467	-0.666793	-0.059657	-0.740803	0.055132
43688	-9.728748	2.969540	-0.814239	-0.670058	-0.056353	-0.738072	0.055640
43689	-8.757779	1.670542	-1.033847	-0.672591	-0.053631	-0.735847	0.057220
43690	-8.308424	0.662765	-1.214109	-0.673751	-0.052537	-0.734605	0.060462
43691	-8.999004	0.950029	-0.885369	-0.673850	-0.052677	-0.734155	0.064558
43692	-9.484715	1.602229	-0.315220	-0.673501	-0.053679	-0.733995	0.069041
43693	-9.633813	1.700256	0.710103	-0.672789	-0.055222	-0.734013	0.074367
43694	-10.012779	1.818890	1.573237	-0.671605	-0.056957	-0.734320	0.080478
43695	-10.338853	2.446853	1.970347	-0.670474	-0.057636	-0.734678	0.085967
43696	-10.153781	2.419960	1.691825	-0.669080	-0.056778	-0.735531	0.090015
43697	-9.969368	1.967883	1.145488	-0.667247	-0.054669	-0.736916	0.093532
43698	-9.745409	1.325691	0.944708	-0.665077	-0.051802	-0.738723	0.096325
43699	-9.397147	0.576137	1.771559	-0.662313	-0.049622	-0.740989	0.099066
43700	-9.462400	-0.225416	1.714739	-0.659199	-0.046545	-0.743727	0.100796
43701	-10.179194	-1.728359	1.753970	-0.655376	-0.043242	-0.747001	0.102963
43702	-11.302825	-2.447267	2.268601	-0.651535	-0.040670	-0.749991	0.106594
43703	-10.933401	-2.445286	3.275040	-0.647791	-0.039837	-0.752599	0.111246
43704	-10.344831	-1.845737	2.825048	-0.643793	-0.040220	-0.755278	0.116053
43705	-9.786975	-1.216529	1.959864	-0.639652	-0.041168	-0.758031	0.120583
43706	-9.772897	-1.092576	1.813985	-0.635468	-0.041943	-0.760830	0.124733
43707	-9.818429	-1.717010	2.066498	-0.630964	-0.042088	-0.764044	0.127868
43708	-9.873458	-3.240694	1.628321	-0.626193	-0.042371	-0.767528	0.130335
43709	-9.560753	-3.595281	1.002610	-0.621539	-0.043480	-0.770832	0.132725
43710	-9.019523	-3.634557	0.865525	-0.616775	-0.045173	-0.774163	0.134983
43711	-9.332481	-3.566156	0.369718	-0.612021	-0.046647	-0.777562	0.136570
43712	-8.868869	-3.761373	0.389639	-0.607280	-0.047441	-0.781110	0.137215
43713	-9.149767	-4.008751	-0.317904	-0.602661	-0.047317	-0.784803	0.136549
43714	-9.445955	-3.720805	-1.286070	-0.598545	-0.045623	-0.788435	0.134285
43715	-8.692504	-3.261778	-1.832151	-0.594943	-0.042386	-0.791917	0.130821
43716	-8.672923	-3.157753	-2.328746	-0.591427	-0.037199	-0.795710	0.125205
43717	-8.972685	-3.459168	-2.625863	-0.588143	-0.030945	-0.799506	0.117987
43718	-8.398224	-3.423948	-2.863965	-0.585030	-0.024510	-0.803138	0.110040
43719	-8.482146	-3.981541	-2.829447	-0.581976	-0.018328	-0.806633	0.101545
43720	-8.804464	-4.910808	-3.140813	-0.579201	-0.013207	-0.809672	0.093715
43721	-8.791514	-5.145797	-3.583802	-0.576762	-0.009615	-0.812179	0.087281
43722	-8.667041	-4.550865	-3.807469	-0.574588	-0.007953	-0.814222	0.082628
43723	-8.609332	-3.837757	-4.071178	-0.572756	-0.007756	-0.815873	0.079001
43724	-8.070691	-2.822168	-4.157888	-0.571097	-0.008890	-0.817288	0.076216
43725	-7.969731	-2.463616	-4.985057	-0.569370	-0.010619	-0.818751	0.073158
43726	-7.261669	-2.388193	-5.522286	-0.567458	-0.012782	-0.820293	0.070343
43727	-7.889666	-2.326147	-5.991336	-0.565378	-0.014881	-0.821956	0.067188
43728	-7.272501	-2.276728	-6.420511	-0.563379	-0.016550	-0.823538	0.064148
43729	-7.506472	-1.144406	-6.294102	-0.561022	-0.018648	-0.825305	0.061477
43730	-7.365561	-0.870072	-6.074533	-0.559453	-0.020793	-0.826548	0.058289
43731	-7.029579	-0.652035	-6.538493	-0.558746	-0.023043	-0.827192	0.055000
43732	-7.039747	-1.626587	-7.445701	-0.557678	-0.024911	-0.828118	0.050932
43733	-6.756896	-2.113940	-7.092339	-0.555787	-0.026884	-0.829560	0.046991
43734	-7.854365	-2.507879	-6.694820	-0.552979	-0.028791	-0.831592	0.042890
43735	-9.704456	-1.518060	-5.429171	-0.550238	-0.030763	-0.833485	0.039931
43736	-9.167095	-0.483527	-3.980135	-0.548452	-0.032498	-0.834732	0.036974
43737	-9.454199	-0.097074	-3.926994	-0.547980	-0.034082	-0.835151	0.032862
43738	-9.361706	-0.976938	-4.251726	-0.548528	-0.035810	-0.834886	0.028277
43739	-9.507838	-0.641687	-5.209998	-0.550083	-0.038376	-0.833868	0.024497
43740	-9.331034	0.635183	-4.531068	-0.552517	-0.041004	-0.832235	0.020694
43741	-8.717208	1.111838	-5.019689	-0.555275	-0.042714	-0.830416	0.015964
43742	-9.309344	1.194214	-4.815542	-0.558235	-0.044376	-0.828416	0.011457
43743	-8.571128	1.491213	-4.725363	-0.561716	-0.046461	-0.825996	0.006877
43744	-7.961146	1.086557	-5.624164	-0.565217	-0.049922	-0.823425	0.003138
43745	-8.363612	0.975014	-5.941302	-0.568383	-0.055104	-0.820916	0.000855
43746	-8.311081	1.638577	-6.393156	-0.571216	-0.061522	-0.818491	0.000132
43747	-8.815553	2.818530	-6.134087	-0.573578	-0.067798	-0.816340	0.000375
43748	-8.072792	3.541331	-5.432727	-0.576076	-0.072857	-0.814142	0.000239
43749	-7.677532	3.136303	-5.280056	-0.578550	-0.076665	-0.812035	-0.001118
43750	-7.804954	2.407598	-5.266976	-0.580787	-0.080443	-0.810067	-0.002439
43751	-8.496622	2.697721	-5.131723	-0.582971	-0.084983	-0.808031	-0.002837
43752	-8.613073	3.411973	-5.083774	-0.585252	-0.089307	-0.805913	-0.002970
43753	-8.879248	3.332100	-4.764998	-0.587816	-0.092576	-0.803671	-0.003927
43754	-8.807831	3.284700	-4.362671	-0.590675	-0.094748	-0.801310	-0.005308
43755	-8.970205	2.906462	-3.907486	-0.593693	-0.096355	-0.798874	-0.006602
43756	-9.150905	2.741720	-3.743487	-0.596940	-0.097885	-0.796256	-0.007553
43757	-9.263888	3.221941	-3.420726	-0.600578	-0.099693	-0.793285	-0.008178
43758	-9.292484	3.055686	-3.229222	-0.604304	-0.101357	-0.790233	-0.008680
43759	-8.756931	3.235877	-2.904586	-0.607906	-0.102743	-0.787275	-0.009595
43760	-9.245411	2.870221	-2.608329	-0.611464	-0.103961	-0.784340	-0.010705
43761	-9.683335	2.790258	-2.279767	-0.615551	-0.105059	-0.780980	-0.011426
43762	-9.733627	2.738710	-1.879702	-0.619614	-0.106288	-0.777597	-0.011184
43763	-10.019668	3.007049	-1.556136	-0.623391	-0.107414	-0.774430	-0.010260
43764	-10.010372	3.315416	-1.831589	-0.627316	-0.108608	-0.771107	-0.008542
43765	-10.514631	3.720810	-2.268843	-0.631703	-0.108677	-0.767519	-0.007447
43766	-10.753617	4.349111	-2.114814	-0.637881	-0.107288	-0.762593	-0.006949
43767	-10.249837	4.652385	-1.335089	-0.645283	-0.103811	-0.756824	-0.007152
43768	-8.695699	4.486592	-0.275202	-0.652900	-0.097970	-0.751039	-0.007983
43769	-7.889668	3.463020	-0.547596	-0.659193	-0.090835	-0.746408	-0.009406
43770	-8.144107	2.525658	-0.593449	-0.664340	-0.083972	-0.742625	-0.010491
43771	-8.638394	1.921736	-0.126246	-0.668691	-0.077977	-0.739355	-0.011217
43772	-8.992465	1.247968	0.197329	-0.672069	-0.073320	-0.736766	-0.011084
43773	-9.659280	0.992354	0.302250	-0.674719	-0.070578	-0.734639	-0.008858
43774	-9.872358	1.357771	-0.146117	-0.676891	-0.069425	-0.732790	-0.004167
43775	-10.281437	2.471978	-0.635314	-0.678490	-0.068863	-0.731372	0.002142
43776	-9.968032	3.492907	0.117532	-0.680126	-0.068284	-0.729854	0.008840
43777	-9.216767	3.476045	0.870201	-0.681193	-0.066856	-0.728894	0.014830
43778	-9.195168	3.355204	1.387919	-0.681296	-0.064441	-0.728907	0.019462
43779	-9.754001	3.137686	1.343373	-0.680977	-0.061966	-0.729289	0.023830
43780	-10.127680	2.251172	2.081008	-0.680754	-0.059329	-0.729550	0.028465
43781	-9.932948	1.221639	2.660083	-0.680391	-0.056776	-0.729867	0.033743
43782	-9.562861	0.508318	2.640855	-0.679600	-0.054273	-0.730504	0.039526
43783	-9.264390	-0.571247	1.886650	-0.677773	-0.052636	-0.731944	0.045955
43784	-9.813396	-1.688333	1.056011	-0.674781	-0.053720	-0.734080	0.053957
43785	-9.857300	-1.230611	0.630090	-0.671590	-0.058555	-0.735811	0.064192
43786	-9.076409	0.616071	0.254982	-0.668221	-0.065086	-0.737331	0.074747
43787	-8.940351	1.540317	0.443223	-0.663944	-0.071549	-0.739538	0.084513
43788	-10.035843	1.630818	0.281192	-0.659412	-0.075605	-0.742265	0.092210
43789	-10.503573	1.256250	0.934825	-0.655641	-0.077578	-0.744580	0.098569
43790	-10.671563	0.621889	2.004922	-0.652466	-0.077393	-0.746720	0.103480
43791	-10.329458	-0.338960	3.274183	-0.649396	-0.076139	-0.748984	0.107292
43792	-9.639930	-1.512134	3.191640	-0.646078	-0.074236	-0.751676	0.109798
43793	-9.157416	-2.884111	2.188038	-0.642117	-0.073444	-0.754755	0.112410
43794	-9.442547	-3.612169	0.680339	-0.637777	-0.074601	-0.757828	0.115637
43795	-9.141909	-3.292560	-0.143354	-0.633702	-0.076955	-0.760406	0.119513
43796	-9.209495	-2.210249	-0.027754	-0.629228	-0.078948	-0.763364	0.122940
43797	-9.189594	-1.698593	-0.253636	-0.624678	-0.079338	-0.766706	0.125080
43798	-9.643068	-1.635373	-0.336706	-0.620573	-0.077211	-0.770298	0.124771
43799	-10.253465	-2.359452	-0.176684	-0.617432	-0.073104	-0.773603	0.122360
43800	-9.764963	-3.520287	-0.703507	-0.615007	-0.067766	-0.776565	0.118829
43801	-9.188573	-3.994192	-1.453335	-0.612866	-0.062001	-0.779315	0.114979
43802	-8.842455	-3.749619	-1.795340	-0.610767	-0.055535	-0.782108	0.110394
43803	-8.703260	-2.922689	-1.814912	-0.608764	-0.048569	-0.784852	0.105145
43804	-9.027093	-2.747273	-1.801778	-0.606799	-0.040647	-0.787673	0.098558
43805	-9.027239	-3.462074	-2.227641	-0.605157	-0.032412	-0.790198	0.091222
43806	-9.183677	-4.456013	-2.720800	-0.603743	-0.025047	-0.792314	0.084300
43807	-9.122607	-4.992130	-2.934064	-0.602635	-0.019698	-0.793897	0.078556
43808	-8.740215	-4.541840	-3.663136	-0.601703	-0.016908	-0.795054	0.074535
43809	-8.763239	-4.086898	-3.944603	-0.600870	-0.016066	-0.795963	0.071697
43810	-8.748357	-3.499783	-4.073359	-0.600216	-0.016455	-0.796607	0.069906
43811	-8.459237	-2.645717	-4.001473	-0.599648	-0.017104	-0.797157	0.068340
43812	-8.216335	-1.942208	-4.084031	-0.599179	-0.017289	-0.797688	0.066176
43813	-8.404543	-1.762601	-4.014263	-0.598789	-0.017204	-0.798213	0.063344
43814	-8.696481	-2.021701	-4.153896	-0.598567	-0.017129	-0.798625	0.060186
43815	-8.769471	-1.829061	-4.629727	-0.598655	-0.017341	-0.798778	0.057145
43816	-8.451321	-1.479258	-4.727894	-0.598672	-0.017979	-0.798932	0.054564
43817	-8.253301	-1.353849	-4.713859	-0.598469	-0.018877	-0.799225	0.052145
43818	-8.180461	-1.166694	-4.567803	-0.597748	-0.019934	-0.799900	0.049598
43819	-8.674567	-1.312374	-4.556967	-0.596781	-0.021014	-0.800762	0.046802
43820	-8.645396	-0.785467	-4.775002	-0.596274	-0.022721	-0.801199	0.044950
43821	-8.531247	-0.753736	-4.147723	-0.595799	-0.024863	-0.801568	0.043522
43822	-8.811868	-0.560274	-4.027662	-0.595346	-0.026925	-0.801918	0.042017
43823	-9.305603	-0.099829	-4.383895	-0.595712	-0.029119	-0.801634	0.040778
43824	-9.529829	0.408114	-3.763757	-0.596513	-0.031699	-0.800982	0.039930
43825	-9.507709	0.733590	-3.622748	-0.597709	-0.034382	-0.800028	0.038962
43826	-9.430004	0.765762	-3.410454	-0.599100	-0.036773	-0.798962	0.037247
43827	-9.927682	0.912630	-3.709600	-0.601500	-0.038718	-0.797155	0.035237
43828	-10.683670	1.279998	-3.595508	-0.604712	-0.040986	-0.794691	0.033315
43829	-10.630029	2.296750	-2.573650	-0.609003	-0.043019	-0.791341	0.032324
43830	-9.648819	2.969730	-1.613701	-0.614234	-0.043697	-0.787342	0.029990
43831	-9.968715	2.562553	-1.896417	-0.620190	-0.043789	-0.782793	0.026127
43832	-9.636197	1.934674	-1.874767	-0.626492	-0.043644	-0.777898	0.021880
43833	-9.025053	1.046885	-1.742571	-0.632824	-0.043357	-0.772865	0.018266
43834	-9.224832	0.877501	-1.321225	-0.638882	-0.043937	-0.767888	0.015724
43835	-9.951411	0.660184	-1.404616	-0.645064	-0.046180	-0.762586	0.014945
43836	-10.737227	0.875662	-1.299102	-0.651181	-0.050603	-0.757044	0.016901
43837	-11.528557	1.537720	-2.056241	-0.657963	-0.057943	-0.750475	0.022686
43838	-10.759648	2.283837	-1.546636	-0.666563	-0.066554	-0.741873	0.029819
43839	-10.568789	2.459944	-0.612473	-0.674809	-0.076623	-0.733038	0.037631
43840	-9.782437	2.207230	-0.857254	-0.683428	-0.087948	-0.723194	0.046706
43841	-8.532915	1.772993	-2.570066	-0.692853	-0.097822	-0.712280	0.055165
43842	-8.279180	0.865935	-3.140100	-0.700688	-0.104200	-0.703164	0.061150
43843	-8.313764	-0.300413	-4.018733	-0.705216	-0.109194	-0.697392	0.066268
43844	-7.900093	-0.970820	-3.765142	-0.705347	-0.117111	-0.695229	0.073664
43845	-7.901218	-1.176238	-2.783184	-0.702581	-0.128326	-0.694885	0.083954
43846	-8.576936	0.274068	-2.003638	-0.698574	-0.141746	-0.694777	0.095853
43847	-9.194235	3.402907	-1.305987	-0.694625	-0.155144	-0.694367	0.106210
43848	-9.269250	5.523413	-0.500896	-0.691022	-0.167181	-0.693961	0.113829
43849	-9.028963	6.556884	0.643920	-0.687643	-0.177661	-0.693550	0.120718
43850	-8.846117	5.717776	1.015372	-0.684627	-0.184348	-0.693689	0.126875
43851	-8.009143	4.826082	0.570566	-0.681484	-0.187300	-0.695145	0.131423
43852	-8.493413	3.348779	-1.781959	-0.676685	-0.187477	-0.699229	0.134269
43853	-10.223033	2.474565	-1.546804	-0.672684	-0.185133	-0.703210	0.136813
43854	-10.795981	2.046716	0.738414	-0.671499	-0.180000	-0.705200	0.139219
43855	-11.291644	-0.713280	1.837320	-0.670683	-0.174266	-0.706326	0.144634
43856	-12.744201	-1.549676	1.556476	-0.668338	-0.172017	-0.707142	0.153901
43857	-14.198192	-1.233647	3.631389	-0.667413	-0.174090	-0.705697	0.161998
43858	-10.160843	-0.614656	2.291286	-0.666692	-0.188470	-0.698656	0.178551
43859	-7.506622	-0.408770	0.711922	-0.663452	-0.205169	-0.692168	0.196575
43860	-7.063250	-0.004056	-1.108451	-0.660514	-0.211114	-0.690097	0.207168
43861	-9.105914	-2.908017	1.279889	-0.656252	-0.214163	-0.689754	0.218417
43862	-10.146255	-5.660212	2.892328	-0.649834	-0.220703	-0.689009	0.232965
43863	-9.543851	-5.112246	0.143956	-0.642984	-0.226919	-0.689533	0.244180
43864	-10.472897	-4.838712	-1.711136	-0.636073	-0.234295	-0.689728	0.254542
43865	-10.448206	-3.142805	-3.279070	-0.628585	-0.245008	-0.687774	0.267991
43866	-8.911364	0.427269	-4.088126	-0.621889	-0.255109	-0.684887	0.281254
43867	-8.766140	3.898778	-1.649716	-0.613462	-0.265628	-0.683692	0.292698
43868	-9.933808	6.398918	0.338480	-0.604926	-0.274466	-0.684657	0.299963
43869	-9.606081	5.170824	-0.119764	-0.598265	-0.278532	-0.687690	0.302624
43870	-8.872022	0.681056	1.389421	-0.593414	-0.278586	-0.692002	0.302296
43871	-9.540683	-4.294008	2.344495	-0.588765	-0.278688	-0.696289	0.301447
43872	-10.432134	-6.051377	1.321199	-0.584763	-0.280320	-0.698785	0.301948
43873	-9.574582	-5.856024	0.811980	-0.580394	-0.284591	-0.699023	0.305805
43874	-9.670008	-4.607380	0.744054	-0.575606	-0.290361	-0.698094	0.311503
43875	-9.949501	-3.354318	-0.536904	-0.571875	-0.296519	-0.695593	0.318096
43876	-9.271251	-2.554978	-0.753746	-0.569095	-0.304085	-0.690741	0.326403
43877	-9.335728	-1.396744	0.050553	-0.565173	-0.313834	-0.685028	0.335894
43878	-10.054836	-1.858552	-0.048232	-0.561123	-0.323451	-0.679568	0.344540
43879	-10.086251	-2.801178	-0.666215	-0.557807	-0.332209	-0.673969	0.352498
43880	-8.849160	-2.420633	-0.964594	-0.553997	-0.341433	-0.667924	0.361094
43881	-9.242738	-1.570237	-1.445700	-0.549588	-0.350927	-0.662430	0.368768
43882	-9.495241	-1.832522	-1.281578	-0.545401	-0.360133	-0.656888	0.375952
43883	-9.507944	-2.976288	-1.023821	-0.541167	-0.369340	-0.651293	0.382809
43884	-10.207349	-3.787871	-1.400219	-0.536764	-0.379145	-0.644872	0.390222
43885	-9.919414	-3.491055	-1.776216	-0.532493	-0.389819	-0.636037	0.399936
43886	-9.103697	-2.882880	-1.124362	-0.527809	-0.400618	-0.627083	0.409500
43887	-8.781252	-4.010823	-0.004739	-0.522014	-0.411777	-0.618457	0.418870
43888	-9.528630	-4.709200	-0.391345	-0.515016	-0.423864	-0.610319	0.427327
43889	-10.487547	-5.115026	-1.632985	-0.507826	-0.436920	-0.600447	0.436666
43890	-10.752242	-4.061094	-2.290080	-0.500634	-0.450914	-0.587698	0.447943
43891	-10.707824	-0.572181	-1.690561	-0.494265	-0.464057	-0.572101	0.461578
43892	-9.057519	0.957904	0.172367	-0.487708	-0.476361	-0.556691	0.474675
43893	-8.740491	0.644323	0.306123	-0.480444	-0.487822	-0.543747	0.485327
43894	-9.455508	-0.272445	-1.299959	-0.474980	-0.497034	-0.533955	0.492183
43895	-9.374309	-1.733526	1.302683	-0.470707	-0.505718	-0.523087	0.499063
43896	-9.894311	-2.741572	4.038175	-0.466426	-0.515524	-0.509560	0.506982
43897	-11.682218	-3.594310	3.442271	-0.462237	-0.526234	-0.491489	0.517546
43898	-12.769189	-4.038333	2.642564	-0.458509	-0.536432	-0.467388	0.532502
43899	-12.324649	-3.618614	4.197977	-0.455385	-0.545939	-0.440187	0.548462
43900	-12.661464	-2.359992	2.707239	-0.453533	-0.552451	-0.413004	0.564388
43901	-11.864751	-1.186224	-1.662218	-0.452129	-0.554034	-0.387671	0.581667
43902	-10.841651	-0.761487	-3.541986	-0.450838	-0.551043	-0.366572	0.598933
43903	-9.466294	-2.385183	-3.081837	-0.447080	-0.547726	-0.349207	0.614956
43904	-8.305207	-3.376190	-1.255836	-0.438895	-0.547390	-0.333342	0.629777
43905	-8.104286	-5.750048	-1.211047	-0.424457	-0.552152	-0.316588	0.644000
43906	-8.095565	-6.421682	-2.358207	-0.404940	-0.560132	-0.297457	0.658631
43907	-8.259214	-5.806830	-4.206863	-0.381609	-0.570914	-0.275263	0.672801
43908	-7.770954	-1.925612	-4.649112	-0.353956	-0.584765	-0.248761	0.686209
43909	-7.373454	2.382896	-4.623486	-0.326887	-0.598799	-0.222943	0.696334
43910	-7.489442	4.314819	-3.930967	-0.301527	-0.612265	-0.199887	0.703035
43911	-7.325689	3.998058	-3.135479	-0.278174	-0.624786	-0.180696	0.706832
43912	-7.136200	2.322579	-3.673936	-0.256455	-0.637052	-0.164860	0.707966
43913	-8.108482	1.867640	-4.935975	-0.235141	-0.650212	-0.150814	0.706532
43914	-9.171915	1.777136	-4.981611	-0.215288	-0.663132	-0.139678	0.703134
43915	-8.809628	2.104456	-6.390175	-0.196511	-0.674820	-0.129755	0.699403
43916	-7.374506	2.823187	-8.867529	-0.174124	-0.688422	-0.115497	0.694563
43917	-8.687645	2.797336	-8.558474	-0.145672	-0.704465	-0.094784	0.688131
43918	-13.160855	3.661569	-2.475509	-0.113310	-0.718395	-0.069308	0.682837
43919	-13.911058	7.965702	4.372116	-0.080617	-0.727123	-0.040694	0.680542
43920	-10.405877	14.919367	2.258235	-0.054526	-0.733994	-0.013657	0.676826
43921	-10.628946	16.258827	-2.647758	-0.039988	-0.740221	0.004684	0.671157
43922	-9.164103	12.544957	-1.913358	-0.033880	-0.742337	0.012581	0.669051
43923	-10.009596	7.317394	-7.694378	-0.036827	-0.745481	0.005784	0.665483
43924	-17.224629	-5.751173	-3.003425	-0.042864	-0.747031	-0.015188	0.663232
43925	-18.392715	-10.241858	4.878682	-0.042649	-0.745315	-0.030357	0.664654
43926	-7.757744	-6.140037	0.006293	-0.038532	-0.745506	-0.029234	0.664742
43927	-8.146727	-5.400419	-2.477573	-0.025042	-0.746352	-0.011147	0.664986
43928	-7.082889	-2.812642	0.227365	-0.007130	-0.744846	0.007973	0.667151
43929	-8.397041	-2.206423	-0.141120	0.007736	-0.745825	0.019958	0.665798
43930	-10.260358	-3.915812	-3.616310	0.023563	-0.748695	0.030473	0.661794
43931	-9.497623	-1.470063	-2.710332	0.043104	-0.751710	0.043385	0.656651
43932	-9.114757	2.685262	0.680119	0.060046	-0.754690	0.054151	0.651081
43933	-8.612655	4.360793	1.711056	0.067957	-0.757632	0.057779	0.646558
43934	-8.226117	2.137702	1.147848	0.069117	-0.761429	0.057141	0.642015
43935	-9.742138	-0.149557	1.695945	0.067913	-0.765329	0.055779	0.637611
43936	-10.419012	-3.552648	0.498793	0.066666	-0.768754	0.054637	0.633709
43937	-10.019524	-5.839971	-1.078169	0.069282	-0.770720	0.056162	0.630901
43938	-10.085616	-5.340226	-0.828319	0.076877	-0.771910	0.062057	0.628008
43939	-9.738305	-3.825326	-0.094054	0.086984	-0.772658	0.070529	0.624867
43940	-9.820538	-2.250075	0.596089	0.097091	-0.773223	0.079754	0.621562
43941	-9.701391	-1.174523	-0.027003	0.105015	-0.773386	0.087870	0.618971
43942	-9.163742	-0.971978	-0.772423	0.110642	-0.773451	0.095054	0.616844
43943	-9.267956	-1.966610	-1.187288	0.114749	-0.773687	0.101917	0.614698
43944	-9.558722	-3.160854	-1.803713	0.119058	-0.773787	0.109965	0.612361
43945	-9.586971	-4.055849	-2.559969	0.124075	-0.773287	0.119226	0.610260
43946	-9.203890	-4.883584	-3.232089	0.131381	-0.771815	0.130374	0.608312
43947	-9.173011	-5.303536	-3.314706	0.141363	-0.769645	0.144369	0.605658
43948	-9.706377	-6.015721	-3.207654	0.153291	-0.766729	0.160584	0.602363
43949	-9.756653	-5.165393	-2.721358	0.167942	-0.762101	0.179206	0.599068
43950	-9.688821	-3.343696	-2.286161	0.182122	-0.756758	0.197463	0.595951
43951	-9.890982	-2.228599	-1.345621	0.196419	-0.750371	0.215917	0.593079
43952	-9.676559	-1.713989	-0.759264	0.210858	-0.743087	0.234251	0.590327
43953	-10.212398	-1.305507	-1.788389	0.225612	-0.734782	0.252137	0.587896
43954	-10.452398	0.838171	-2.119552	0.241267	-0.724620	0.269290	0.586685
43955	-8.957827	4.007299	-1.662731	0.256667	-0.712511	0.285880	0.587131
43956	-10.489034	4.585785	0.927752	0.270276	-0.698858	0.303427	0.588626
43957	-12.184850	1.541589	3.168863	0.281406	-0.683943	0.318714	0.592835
43958	-11.889808	-1.260490	2.487247	0.288356	-0.670196	0.330265	0.598843
43959	-12.118814	-3.232655	1.431878	0.293087	-0.656837	0.340320	0.605679
43960	-11.885901	-4.415696	1.017110	0.300894	-0.642075	0.351643	0.611187
43961	-11.429564	-3.657305	-0.471481	0.313862	-0.624660	0.363951	0.615492
43962	-10.227225	-2.500291	-3.242533	0.328916	-0.606024	0.373701	0.620401
43963	-9.059601	-2.463445	-5.306756	0.345290	-0.588135	0.383626	0.622658
43964	-8.852944	-2.261304	-4.511959	0.362390	-0.570811	0.395732	0.621486
43965	-9.120197	-3.112924	-1.814308	0.379088	-0.554601	0.407742	0.618431
43966	-9.375578	-5.225589	-0.850021	0.397178	-0.539548	0.420601	0.611746
43967	-9.064346	-5.939443	-1.589646	0.417189	-0.525247	0.434151	0.601317
43968	-8.481586	-6.003984	-3.522755	0.438209	-0.511113	0.447579	0.588565
43969	-7.928784	-4.726289	-4.973624	0.460216	-0.495997	0.463669	0.572013
43970	-7.929802	-1.847859	-5.367764	0.481242	-0.480061	0.481991	0.552840
43971	-8.493730	0.599698	-4.820941	0.499924	-0.464473	0.499794	0.533429
43972	-9.460702	1.122856	-3.687883	0.516956	-0.450073	0.515474	0.514274
43973	-9.945829	0.381531	-3.135354	0.533958	-0.436183	0.529381	0.494356
43974	-9.946201	-1.087695	-3.903678	0.551504	-0.421969	0.543252	0.471871
43975	-10.465027	-2.523737	-4.861434	0.569256	-0.406952	0.558391	0.445575
43976	-11.132184	-4.218797	-5.555151	0.587925	-0.389529	0.574131	0.415915
43977	-10.203395	-4.667302	-7.036535	0.607289	-0.367772	0.591684	0.381908
43978	-8.741882	-3.047324	-7.631017	0.623565	-0.343816	0.612118	0.343901
43979	-9.798874	-1.131851	-7.334000	0.636028	-0.319629	0.632505	0.305359
43980	-11.482773	1.743774	-6.785741	0.646392	-0.294040	0.650981	0.268220
43981	-11.455988	7.682447	-7.385152	0.655748	-0.263155	0.668626	0.231697
43982	-9.874164	13.374080	-5.142074	0.665219	-0.227955	0.683192	0.196897
43983	-9.831750	12.515020	-1.721269	0.671280	-0.199692	0.692946	0.171263
43984	-10.205201	8.805782	-0.773719	0.676289	-0.179834	0.697376	0.154789
43985	-10.006999	3.282932	-0.522858	0.680771	-0.166776	0.698585	0.143930
43986	-6.222887	-0.497513	-2.788896	0.685685	-0.157547	0.697588	0.135596
43987	-3.364723	-1.451662	-8.214934	0.685484	-0.153760	0.700067	0.127970
43988	-6.229240	-0.583106	-9.705275	0.682941	-0.152731	0.704099	0.120453
43989	-16.383051	-0.281756	-2.502815	0.678779	-0.151426	0.709816	0.111760
43990	-18.981080	-0.511182	4.670854	0.679489	-0.140541	0.713108	0.100104
43991	-10.122041	3.100991	1.537087	0.682920	-0.124436	0.714564	0.086796
43992	-5.572081	1.079867	1.134751	0.684906	-0.114152	0.715412	0.077839
43993	-7.351860	-4.180254	2.324559	0.683077	-0.109384	0.718723	0.069849
43994	-11.147006	-7.839675	0.411294	0.680428	-0.103237	0.723185	0.057993
43995	-10.278607	-3.571285	0.310529	0.679100	-0.093071	0.726857	0.042899
43996	-8.813174	0.870564	0.510289	0.677016	-0.082974	0.730688	0.029323
43997	-9.407553	2.789901	0.899270	0.674410	-0.075187	0.734252	0.019805
43998	-9.648108	1.957081	0.949816	0.671758	-0.070438	0.737293	0.013376
43999	-9.377918	-0.870382	-0.990128	0.669169	-0.068443	0.739897	0.008931
44000	-9.731474	-2.641474	-1.517290	0.666904	-0.065739	0.742225	0.004562
44001	-9.789813	-2.686451	-1.364974	0.665094	-0.061419	0.744229	-0.000811
44002	-9.810118	-1.908772	-0.877363	0.663432	-0.055915	0.746107	-0.007468
44003	-9.297804	-0.873713	-0.433598	0.661337	-0.051368	0.748215	-0.012999
44004	-10.041388	-1.427944	-2.000052	0.658354	-0.047117	0.751040	-0.016986
44005	-9.836396	-1.463076	-2.018124	0.657461	-0.041826	0.752040	-0.020763
44006	-9.132745	-2.462812	-0.719145	0.656154	-0.036132	0.753353	-0.024820
44007	-9.614839	-2.744396	-0.969593	0.654838	-0.030531	0.754589	-0.029167
44008	-9.804735	-2.607184	-1.474431	0.653487	-0.024701	0.755783	-0.033713
44009	-9.302835	-1.445607	-1.101233	0.652732	-0.017753	0.756391	-0.038706
44010	-9.612669	-1.547017	-0.892847	0.651855	-0.011197	0.757084	-0.042229
44011	-9.927125	-2.000948	-0.980983	0.651387	-0.004523	0.757381	-0.045260
44012	-10.013254	-1.909573	-1.545530	0.651120	0.002000	0.757445	-0.048130
44013	-9.811608	-1.383575	-1.270517	0.651288	0.008775	0.757033	-0.051449
44014	-9.860192	-1.265097	-1.443185	0.651737	0.015289	0.756361	-0.054076
44015	-9.745306	-0.561904	-1.731737	0.652585	0.021869	0.755314	-0.056164
44016	-9.691600	-0.257637	-1.185390	0.653390	0.028421	0.754301	-0.057475
44017	-10.141945	-1.057645	-0.879087	0.653814	0.035083	0.753566	-0.058610
44018	-10.870543	-1.225712	-3.694170	0.655091	0.041027	0.752064	-0.059763
44019	-9.247585	0.209604	-2.924655	0.658683	0.047990	0.748252	-0.062869
44020	-8.787664	1.712528	-2.158395	0.662185	0.053856	0.744580	-0.064899
44021	-8.077912	2.521087	-2.519527	0.665358	0.057308	0.741519	-0.064521
44022	-7.560382	1.840512	-3.123060	0.666519	0.058912	0.740605	-0.061535
44023	-8.332114	1.015023	-3.332156	0.665869	0.060702	0.741340	-0.057868
44024	-9.189593	0.151086	-3.344610	0.663655	0.064520	0.743211	-0.055106
44025	-9.297256	-0.579216	-2.799013	0.660586	0.071187	0.745347	-0.054925
44026	-8.902328	-0.396560	-2.386422	0.656949	0.078398	0.747700	-0.056703
44027	-9.168718	0.175598	-2.243540	0.653040	0.085665	0.750118	-0.059355
44028	-9.827749	0.923466	-2.393503	0.649533	0.092106	0.752133	-0.062599
44029	-10.251660	1.990885	-2.079688	0.646588	0.097273	0.753747	-0.065781
44030	-10.658063	2.834696	-1.428246	0.644353	0.099534	0.755214	-0.067483
44031	-10.831265	2.877208	-1.037602	0.643020	0.098674	0.756514	-0.066895
44032	-10.013887	2.939253	-1.265150	0.642199	0.095111	0.757969	-0.063375
44033	-9.092192	2.698494	-1.531145	0.641275	0.090276	0.759814	-0.057445
44034	-8.757135	1.635395	-1.442267	0.640255	0.086460	0.761556	-0.051293
44035	-9.118266	0.027833	-0.990158	0.638821	0.083676	0.763392	-0.046249
44036	-9.823642	-1.134929	-1.274292	0.637403	0.080903	0.765090	-0.042533
44037	-10.349981	-1.394712	-1.759983	0.636120	0.078787	0.766484	-0.040566
44038	-10.305606	-0.531452	-2.129052	0.634961	0.077855	0.767558	-0.040233
44039	-9.755293	0.500481	-1.898733	0.634147	0.077918	0.768193	-0.040807
44040	-9.610428	1.227895	-1.425299	0.633296	0.077734	0.768917	-0.040748
44041	-9.528497	1.826130	-1.119661	0.632837	0.076669	0.769457	-0.039688
44042	-9.347565	1.884338	-0.795776	0.632533	0.074862	0.769957	-0.038276
44043	-9.271567	1.474836	-0.936982	0.631904	0.072927	0.770754	-0.036298
44044	-9.640101	0.586010	-1.352705	0.630886	0.070411	0.771911	-0.034327
44045	-10.139320	-0.017939	-1.948569	0.630306	0.068150	0.772658	-0.032699
44046	-10.246621	-0.108450	-1.810509	0.629972	0.066042	0.773178	-0.031129
44047	-10.021256	0.143865	-1.395180	0.629749	0.064097	0.773580	-0.029707
44048	-9.673794	0.378575	-1.386040	0.630062	0.062104	0.773532	-0.028532
44049	-9.591486	0.604102	-1.548517	0.630304	0.060066	0.773541	-0.027271
44050	-9.791659	0.950688	-2.176891	0.630648	0.057309	0.773539	-0.025214
44051	-9.734955	1.148355	-2.551659	0.631446	0.054422	0.773175	-0.022678
44052	-9.414248	1.083837	-2.378337	0.632626	0.051291	0.772496	-0.020092
44053	-9.271990	0.752623	-1.891525	0.633391	0.047979	0.772146	-0.017442
44054	-9.397058	0.302882	-2.005058	0.633627	0.044208	0.772241	-0.014365
44055	-9.281759	0.084308	-2.299241	0.633697	0.040283	0.772455	-0.010913
44056	-9.183836	-0.047895	-2.238350	0.633625	0.036612	0.772738	-0.007433
44057	-9.295864	-0.200851	-2.084713	0.632992	0.033360	0.773427	-0.004430
44058	-9.513913	-0.244524	-1.975496	0.632079	0.030735	0.774291	-0.002224
44059	-9.620204	-0.141819	-1.896516	0.630961	0.029117	0.775267	-0.000644
44060	-9.541928	0.197333	-1.917914	0.630012	0.027678	0.776092	0.000601
44061	-9.571415	0.500890	-1.997145	0.629077	0.026382	0.776893	0.001862
44062	-9.677581	0.625555	-1.485989	0.628601	0.025242	0.777312	0.002963
44063	-9.817405	0.489310	-1.506948	0.628214	0.024499	0.777645	0.003888
44064	-9.921001	0.397657	-1.759550	0.628296	0.023761	0.777599	0.004419
44065	-9.742187	0.378377	-1.889827	0.628425	0.023247	0.777509	0.004670
44066	-9.549970	0.310320	-1.477711	0.628734	0.022919	0.777269	0.004619
44067	-9.452232	0.365595	-1.376927	0.628920	0.022865	0.777120	0.004541
44068	-9.356917	0.370995	-2.033242	0.628717	0.022495	0.777295	0.004632
44069	-9.385155	0.284117	-2.273766	0.628387	0.022390	0.777565	0.004647
44070	-9.305057	0.112782	-2.150660	0.628164	0.022564	0.777742	0.004317
44071	-9.439796	0.036130	-1.982115	0.627604	0.023142	0.778181	0.003487
44072	-9.516086	0.121531	-2.376445	0.626933	0.023663	0.778709	0.002687
44073	-9.356813	0.426895	-2.313364	0.626298	0.024109	0.779208	0.002014
44074	-9.284144	0.532614	-1.907155	0.625644	0.024387	0.779725	0.001549
44075	-9.511439	0.434893	-2.032690	0.624917	0.024713	0.780299	0.001254
44076	-9.628394	0.394469	-2.175222	0.624195	0.024535	0.780883	0.001114
44077	-9.668496	0.412065	-2.154379	0.623617	0.024314	0.781351	0.001117
44078	-9.580243	0.327049	-2.029526	0.623210	0.023981	0.781686	0.001179
44079	-9.488255	0.264698	-1.982327	0.622768	0.023801	0.782043	0.001406
44080	-9.504674	0.158679	-2.299721	0.622663	0.023466	0.782136	0.001757
44081	-9.420996	0.266647	-2.565802	0.622432	0.022919	0.782335	0.002244
44082	-9.415506	0.375219	-2.465110	0.622326	0.022470	0.782432	0.002619
44083	-9.420207	0.272062	-2.296595	0.622414	0.022012	0.782373	0.003035
44084	-9.432993	0.216079	-2.245717	0.622424	0.021772	0.782370	0.003370
44085	-9.404276	0.299706	-2.436366	0.622424	0.021400	0.782378	0.003824
44086	-9.375264	0.306105	-2.409133	0.622397	0.021128	0.782406	0.004059
44087	-9.387290	0.315250	-2.169564	0.622329	0.021177	0.782458	0.004232
44088	-9.397138	0.162944	-2.221235	0.622080	0.021200	0.782655	0.004273
44089	-9.455287	0.225377	-2.531030	0.621776	0.021424	0.782891	0.004116
44090	-9.403561	0.431896	-2.495795	0.621612	0.021705	0.783015	0.003881
44091	-9.458459	0.501299	-2.158033	0.621473	0.022164	0.783114	0.003518
44092	-9.462567	0.489436	-1.998062	0.621255	0.022617	0.783275	0.003234
44093	-9.528738	0.415016	-2.287659	0.620963	0.023024	0.783496	0.002890
44094	-9.450997	0.486864	-2.410133	0.620827	0.023388	0.783594	0.002559
44095	-9.462822	0.528383	-2.238142	0.620817	0.023894	0.783589	0.002092
44096	-9.480894	0.490876	-2.260833	0.620690	0.024479	0.783672	0.001592
44097	-9.495256	0.554213	-2.308145	0.620413	0.024937	0.783878	0.001081
44098	-9.380128	0.664274	-2.156975	0.620240	0.025271	0.784004	0.000628
44099	-9.426657	0.587382	-2.147626	0.619917	0.025663	0.784248	0.000221
44100	-9.384980	0.578590	-2.222579	0.619481	0.026155	0.784575	-0.000240
44101	-9.298066	0.598811	-2.190076	0.619012	0.026748	0.784926	-0.000710
44102	-9.233390	0.596464	-2.379584	0.618259	0.027358	0.785497	-0.001220
44103	-9.137724	0.529386	-2.515879	0.617283	0.028012	0.786240	-0.001952
44104	-9.133933	0.464096	-2.455462	0.616134	0.029004	0.787102	-0.002835
44105	-9.144039	0.423398	-2.506346	0.614792	0.030406	0.788092	-0.004106
44106	-9.236933	0.463495	-2.531645	0.613117	0.031797	0.789333	-0.005518
44107	-9.288126	0.432103	-2.357479	0.611178	0.033250	0.790764	-0.006979
44108	-9.390529	0.505202	-2.166666	0.608969	0.034878	0.792377	-0.008895
44109	-9.416920	0.614602	-1.917696	0.606771	0.036782	0.793948	-0.011118
44110	-9.470617	0.633678	-1.824430	0.604613	0.038657	0.795466	-0.013538
44111	-9.679588	0.578392	-1.859350	0.602410	0.040693	0.796987	-0.016041
44112	-9.841747	0.476324	-1.923778	0.600324	0.042872	0.798386	-0.018803
44113	-9.951318	0.447611	-2.092375	0.598354	0.045081	0.799662	-0.021927
44114	-9.752128	0.502423	-2.128711	0.596625	0.047539	0.800707	-0.025431
44115	-9.639356	0.607039	-2.574307	0.594825	0.050224	0.801752	-0.029254
44116	-9.556633	0.753092	-3.019357	0.593236	0.052720	0.802619	-0.033080
44117	-9.624412	0.774111	-3.024346	0.591683	0.054930	0.803465	-0.036588
44118	-9.681797	0.738558	-2.741483	0.590450	0.056628	0.804101	-0.039810
44119	-9.663922	0.589996	-2.425497	0.589528	0.058042	0.804526	-0.042739
44120	-9.493277	0.376820	-2.485893	0.588881	0.058964	0.804792	-0.045300
44121	-9.077087	-0.003730	-2.911790	0.588260	0.059777	0.805053	-0.047604
44122	-9.750249	4.926345	-2.013521	0.585653	0.059461	0.806761	-0.051099
44123	-6.256889	-8.936425	-8.165370	0.584965	0.047313	0.809189	-0.028136
44124	-10.003644	2.560042	-4.058298	0.588585	0.056083	0.805037	-0.048363
44125	-7.926211	-2.605862	-0.205640	0.581848	0.068195	0.807864	-0.064484
44126	-10.213520	-0.798559	-8.252571	0.580172	0.069726	0.808777	-0.066464
44127	-10.426734	-1.197924	-3.826020	0.581620	0.071455	0.807319	-0.069629
44128	-7.285914	0.668172	-2.768697	0.581636	0.080516	0.805349	-0.081417
44129	-8.969879	0.358476	-4.102332	0.578285	0.088983	0.805740	-0.091927
44130	-9.719477	1.090809	-2.691956	0.576898	0.091136	0.805894	-0.097043
44131	-8.707815	0.799003	-2.670494	0.576226	0.090043	0.806342	-0.098332
44132	-8.742292	0.726157	-3.877690	0.574459	0.090640	0.807242	-0.100709
44133	-9.482893	-0.330242	-3.344703	0.573104	0.092182	0.807651	-0.103702
44134	-9.465423	-1.676640	-2.394154	0.572561	0.093533	0.807622	-0.105697
44135	-9.314284	-2.490864	-2.753626	0.572066	0.094651	0.807622	-0.107369
44136	-9.131963	-2.025670	-3.298473	0.571223	0.096593	0.807564	-0.110524
44137	-8.897465	-1.386662	-3.192067	0.570329	0.099014	0.807331	-0.114617
44138	-8.953898	-1.096073	-2.686563	0.569441	0.101112	0.807217	-0.117955
44139	-9.084493	-0.981997	-2.071069	0.568637	0.102637	0.807230	-0.120400
44140	-9.456644	-1.276356	-1.896836	0.567548	0.104136	0.807490	-0.122498
44141	-9.501260	-1.653945	-2.297310	0.566306	0.106110	0.807728	-0.124955
44142	-9.412855	-1.805627	-2.503667	0.565178	0.108674	0.807740	-0.127746
44143	-9.396650	-1.967801	-2.272638	0.564084	0.111576	0.807649	-0.130627
44144	-9.749715	-2.262030	-1.961229	0.563058	0.114785	0.807454	-0.133451
44145	-10.043363	-2.324432	-2.016334	0.562277	0.118082	0.807079	-0.136107
44146	-9.876574	-1.820858	-2.043286	0.561890	0.121099	0.806496	-0.138485
44147	-9.552992	-0.938000	-2.026992	0.561818	0.124099	0.805750	-0.140457
44148	-9.355256	-0.176340	-2.103651	0.561897	0.126938	0.805025	-0.141752
44149	-9.689534	-0.184299	-2.368591	0.562168	0.129541	0.804322	-0.142309
44150	-9.820246	-0.430297	-2.534326	0.562783	0.132032	0.803399	-0.142800
44151	-9.578137	-0.706689	-2.573144	0.563814	0.134483	0.802149	-0.143475
44152	-9.348687	-0.940855	-2.777845	0.564829	0.136876	0.800911	-0.144131
44153	-9.121433	-1.013970	-3.357767	0.566118	0.138914	0.799562	-0.144617
44154	-8.909294	-0.963215	-3.578243	0.567583	0.141151	0.797933	-0.145702
44155	-8.892516	-1.010353	-3.195393	0.568926	0.144047	0.796178	-0.147223
44156	-8.811290	-1.539181	-3.258896	0.569911	0.146831	0.794773	-0.148249
44157	-8.775176	-2.046719	-3.455188	0.570631	0.149258	0.793718	-0.148712
44158	-8.775240	-2.246834	-3.384619	0.571090	0.151656	0.792883	-0.148975
44159	-8.918655	-1.953656	-3.249326	0.571508	0.154318	0.791951	-0.149591
44160	-9.150308	-1.118373	-2.815051	0.571982	0.157393	0.790767	-0.150836
44161	-9.457810	-0.214833	-2.651010	0.572447	0.160477	0.789520	-0.152345
44162	-9.613151	0.024436	-3.034638	0.573110	0.163676	0.788018	-0.154218
44163	-9.485454	0.233742	-3.176594	0.574140	0.167438	0.786021	-0.156518
44164	-9.269973	0.174185	-2.912287	0.575505	0.171635	0.783615	-0.159007
44165	-9.226193	-0.358654	-2.774648	0.577084	0.175955	0.780982	-0.161498
44166	-9.231910	-0.714134	-2.719776	0.578572	0.179730	0.778600	-0.163507
44167	-9.328610	-0.794377	-2.702487	0.579787	0.182934	0.776630	-0.165008
44168	-9.475447	-0.666549	-2.820268	0.580893	0.186046	0.774695	-0.166725
44169	-9.461232	-0.361947	-2.971301	0.581896	0.189319	0.772654	-0.168998
44170	-9.170701	-0.182922	-3.384650	0.583121	0.193131	0.770208	-0.171608
44171	-9.033902	-0.201982	-3.247301	0.584412	0.197693	0.767409	-0.174539
44172	-9.138323	-0.071467	-2.648386	0.585793	0.202899	0.764194	-0.178005
44173	-9.182162	0.106535	-2.296324	0.587188	0.208509	0.760735	-0.181706
44174	-8.980370	0.004176	-2.549340	0.588142	0.213529	0.757766	-0.185163
44175	-8.881632	-0.434060	-3.031587	0.588322	0.217505	0.755862	-0.187727
44176	-8.864214	-0.659153	-3.629931	0.588063	0.220078	0.755026	-0.188897
44177	-9.211151	-0.831952	-3.632919	0.587444	0.222518	0.754496	-0.190080
44178	-9.268939	-0.712183	-3.350575	0.586446	0.225453	0.753910	-0.192023
44179	-9.253905	-0.382044	-3.268344	0.585085	0.228753	0.753341	-0.194487
44180	-9.153892	0.072883	-3.501844	0.583695	0.232322	0.752587	-0.197331
44181	-9.182659	0.318524	-3.287751	0.582158	0.235946	0.751916	-0.200111
44182	-9.364559	0.666219	-2.837740	0.580747	0.239186	0.751384	-0.202348
44183	-9.600672	0.760574	-2.605466	0.579447	0.241624	0.751160	-0.204004
44184	-9.903956	0.807929	-2.567379	0.578576	0.243121	0.751137	-0.204781
44185	-9.881883	0.839204	-2.824737	0.578252	0.243528	0.751225	-0.204887
44186	-9.599383	0.956950	-2.945311	0.578297	0.243398	0.751348	-0.204464
44187	-9.309058	0.948104	-2.802780	0.578546	0.242991	0.751493	-0.203711
44188	-9.168948	0.724240	-2.790242	0.578927	0.242150	0.751785	-0.202550
44189	-9.265093	0.319979	-3.043505	0.579212	0.241296	0.752148	-0.201405
44190	-9.315924	0.006055	-3.169170	0.579622	0.240151	0.752564	-0.200035
44191	-9.066120	-0.097067	-3.025775	0.579925	0.238948	0.753062	-0.198717
44192	-9.059590	-0.338589	-2.767513	0.579816	0.237921	0.753817	-0.197399
44193	-9.261851	-0.454080	-2.799566	0.579522	0.236911	0.754722	-0.196016
44194	-9.183201	-0.303649	-2.996912	0.579101	0.235781	0.755792	-0.194497
44195	-9.321498	-0.048653	-3.056192	0.578520	0.234664	0.757010	-0.192828
44196	-9.412853	0.024943	-2.910509	0.577857	0.233871	0.758056	-0.191667
44197	-9.534580	0.208337	-2.585975	0.577196	0.233362	0.758912	-0.190892
44198	-9.714893	0.118400	-2.477280	0.576653	0.232844	0.759660	-0.190191
44199	-9.741529	0.121322	-2.424554	0.576432	0.232129	0.760229	-0.189456
44200	-9.686085	0.199818	-2.307301	0.576515	0.231345	0.760611	-0.188629
44201	-9.629706	0.126002	-2.186553	0.576885	0.230515	0.760774	-0.187858
44202	-9.532001	0.020661	-2.174796	0.577348	0.229910	0.760720	-0.187392
44203	-9.464239	-0.046604	-2.355804	0.577905	0.229241	0.760616	-0.186916
44204	-9.524027	-0.144508	-2.577584	0.578566	0.228498	0.760477	-0.186349
44205	-9.491078	-0.130678	-2.582310	0.579295	0.227934	0.760156	-0.186083
44206	-9.416976	-0.225591	-2.311010	0.580049	0.227430	0.759801	-0.185799
44207	-9.358126	-0.263872	-2.086705	0.580629	0.227110	0.759489	-0.185656
44208	-9.363408	-0.287489	-2.235083	0.581085	0.226798	0.759279	-0.185465
44209	-9.448903	-0.174502	-2.563766	0.581580	0.226287	0.759157	-0.185039
44210	-9.399552	0.023683	-2.739971	0.582149	0.225623	0.759050	-0.184499
44211	-9.351048	0.131463	-2.750896	0.582695	0.224907	0.758997	-0.183869
44212	-9.320974	0.022517	-2.601942	0.583168	0.224339	0.758915	-0.183398
44213	-9.361467	-0.147967	-2.449296	0.583466	0.223776	0.758981	-0.182865
44214	-9.418186	-0.251626	-2.495038	0.583850	0.222968	0.759112	-0.182080
44215	-9.367989	-0.246306	-2.537341	0.584265	0.222017	0.759283	-0.181195
44216	-9.274418	-0.147745	-2.596831	0.584672	0.220996	0.759501	-0.180217
44217	-9.319441	-0.070574	-2.639046	0.584938	0.220130	0.759774	-0.179263
44218	-9.358884	-0.026487	-2.591358	0.585156	0.219196	0.760092	-0.178341
44219	-9.453956	-0.021058	-2.592800	0.585336	0.218172	0.760489	-0.177312
44220	-9.391257	-0.049335	-2.484709	0.585478	0.217147	0.760920	-0.176250
44221	-9.341173	0.028369	-2.428277	0.585516	0.216101	0.761444	-0.175139
44222	-9.373085	-0.099602	-2.350520	0.585489	0.215105	0.761995	-0.174058
44223	-9.387523	-0.160129	-2.556206	0.585619	0.213847	0.762558	-0.172699
44224	-9.451308	-0.074945	-2.779493	0.585779	0.212465	0.763121	-0.171372
44225	-9.331791	0.048734	-2.661299	0.585864	0.211104	0.763738	-0.170008
44226	-9.369274	0.057429	-2.508216	0.585871	0.209857	0.764347	-0.168785
44227	-9.343790	-0.038436	-2.437493	0.585779	0.208817	0.764922	-0.167784
44228	-9.365248	-0.159416	-2.332292	0.585664	0.207677	0.765558	-0.166700
44229	-9.426385	-0.141478	-2.474734	0.585720	0.206253	0.766199	-0.165321
44230	-9.445375	-0.077224	-2.728767	0.585832	0.204761	0.766830	-0.163844
44231	-9.367754	0.016902	-2.783226	0.585906	0.203540	0.767332	-0.162748
44232	-9.337786	0.031944	-2.543209	0.585732	0.202573	0.767911	-0.161848
44233	-9.378605	-0.033184	-2.291527	0.585500	0.201631	0.768520	-0.160972
44234	-9.398221	-0.192861	-2.132448	0.585332	0.200678	0.769086	-0.160067
44235	-9.412336	-0.299957	-2.252756	0.585284	0.199632	0.769605	-0.159053
44236	-9.393831	-0.303550	-2.512986	0.585270	0.198575	0.770090	-0.158077
44237	-9.450627	-0.200522	-2.681568	0.585209	0.197639	0.770571	-0.157129
44238	-9.422682	-0.050933	-2.569155	0.585181	0.196835	0.770968	-0.156291
44239	-9.374897	-0.051871	-2.290524	0.585023	0.196182	0.771389	-0.155628
44240	-9.338430	-0.120008	-2.338993	0.584898	0.195589	0.771753	-0.155034
44241	-9.373210	-0.155856	-2.650405	0.584757	0.194969	0.772162	-0.154308
44242	-9.399148	-0.122791	-2.668268	0.584620	0.194497	0.772511	-0.153676
44243	-9.325543	-0.151243	-2.500067	0.584372	0.194274	0.772829	-0.153303
44244	-9.355128	-0.188777	-2.417462	0.584056	0.194390	0.773050	-0.153248
44245	-9.373231	-0.235110	-2.671926	0.583747	0.194577	0.773240	-0.153228
44246	-9.549604	-0.236629	-2.740700	0.583589	0.194468	0.773446	-0.152927
44247	-9.500557	-0.065105	-2.664465	0.583495	0.194196	0.773665	-0.152527
44248	-9.433174	0.055733	-2.440776	0.583392	0.194175	0.773773	-0.152397
44249	-9.346869	0.088675	-2.375525	0.583263	0.194335	0.773802	-0.152540
44250	-9.310474	0.010410	-2.578268	0.583186	0.194358	0.773866	-0.152482
44251	-9.297768	-0.139971	-2.706458	0.583144	0.194229	0.773985	-0.152199
44252	-9.304519	-0.233138	-2.737663	0.583044	0.194268	0.774088	-0.152011
44253	-9.346416	-0.246702	-2.655099	0.582910	0.194566	0.774098	-0.152093
44254	-9.383112	-0.229425	-2.616278	0.582682	0.194986	0.774105	-0.152396
44255	-9.351656	-0.165155	-2.598487	0.582450	0.195303	0.774163	-0.152580
44256	-9.317137	-0.099513	-2.634987	0.582142	0.195561	0.774315	-0.152655
44257	-9.337168	-0.002135	-2.719689	0.581816	0.195879	0.774460	-0.152752
44258	-9.360152	0.077826	-2.740090	0.581533	0.196165	0.774593	-0.152788
44259	-9.354171	0.041990	-2.743674	0.581298	0.196393	0.774704	-0.152829
44260	-9.368433	0.001649	-2.771639	0.581131	0.196546	0.774799	-0.152784
44261	-9.396373	-0.046698	-2.811666	0.581040	0.196641	0.774875	-0.152623
44262	-9.391505	-0.050109	-2.750741	0.580991	0.196675	0.774942	-0.152423
