// Start Time: Unknown
// Update Rate: 60.0Hz
// Filter Profile: human (46.1)
// Option Flags: AHS Disabled ICC Disabled 
// Firmware Version: 4.3.5
PacketCounter	Acc_X	Acc_Y	Acc_Z	Quat_q0	Quat_q1	Quat_q2	Quat_q3
40913	9.831477	1.318698	-0.948515	0.665836	0.002994	-0.742017	-0.077871
40914	10.470529	1.439066	-1.242835	0.664394	0.003753	-0.743401	-0.076949
40915	10.421305	1.349951	-1.164991	0.663478	0.004267	-0.744296	-0.076173
40916	9.974550	1.314026	-0.982392	0.662806	0.004805	-0.744981	-0.075293
40917	9.773674	1.339203	-0.945778	0.662145	0.005189	-0.745639	-0.074566
40918	9.713299	1.319885	-0.902145	0.661689	0.005152	-0.746069	-0.074318
40919	9.644654	1.348343	-0.902377	0.661197	0.004963	-0.746510	-0.074283
40920	9.578795	1.454762	-0.949080	0.660683	0.004639	-0.746957	-0.074375
40921	9.519035	1.544583	-0.969130	0.660119	0.004425	-0.747451	-0.074428
40922	9.642885	1.467467	-0.950080	0.659490	0.004132	-0.747985	-0.074655
40923	9.753500	1.238807	-1.058412	0.658784	0.003813	-0.748585	-0.074898
40924	9.882742	1.042894	-1.079197	0.658233	0.003665	-0.749053	-0.075069
40925	9.780034	0.912825	-1.047524	0.657830	0.003638	-0.749390	-0.075243
40926	9.709411	0.922540	-1.122903	0.657465	0.003811	-0.749700	-0.075333
40927	9.652189	0.904876	-1.122770	0.657183	0.004054	-0.749939	-0.075399
40928	9.600476	0.940973	-1.127958	0.656913	0.004380	-0.750183	-0.075306
40929	9.584151	0.990273	-1.115993	0.656710	0.004711	-0.750376	-0.075138
40930	9.579765	1.076006	-1.083421	0.656463	0.005147	-0.750616	-0.074868
40931	9.633940	1.153725	-1.038773	0.656257	0.005468	-0.750807	-0.074731
40932	9.634694	1.136189	-1.137605	0.655913	0.005693	-0.751115	-0.074646
40933	9.699011	1.141323	-1.160891	0.655515	0.005997	-0.751479	-0.074450
40934	9.648328	1.194175	-1.111373	0.655066	0.006296	-0.751888	-0.074252
40935	9.641738	1.170245	-1.170166	0.654551	0.006542	-0.752348	-0.074117
40936	9.668520	1.112993	-1.219112	0.654069	0.006721	-0.752769	-0.074083
40937	9.670889	1.127028	-1.223592	0.653641	0.006741	-0.753130	-0.074184
40938	9.639293	1.138692	-1.203542	0.653232	0.006615	-0.753470	-0.074343
40939	9.672796	1.147109	-1.216928	0.652820	0.006404	-0.753809	-0.074545
40940	9.660039	1.145433	-1.280451	0.652386	0.006141	-0.754165	-0.074769
40941	9.672325	1.140223	-1.289764	0.651932	0.005953	-0.754542	-0.074940
40942	9.705478	1.148108	-1.305642	0.651390	0.005803	-0.755001	-0.075040
40943	9.672688	1.116319	-1.274759	0.650883	0.005631	-0.755428	-0.075157
40944	9.681889	1.085608	-1.364854	0.650369	0.005428	-0.755855	-0.075330
40945	9.650959	1.066670	-1.291726	0.650038	0.005302	-0.756130	-0.075433
40946	9.642481	1.048233	-1.293885	0.649679	0.005263	-0.756432	-0.075493
40947	9.647876	1.060581	-1.328382	0.649334	0.005300	-0.756728	-0.075495
40948	9.593435	1.039362	-1.360102	0.649024	0.005389	-0.756997	-0.075466
40949	9.556735	1.025601	-1.383551	0.648706	0.005486	-0.757270	-0.075455
40950	9.625605	0.994121	-1.438120	0.648418	0.005696	-0.757527	-0.075328
40951	9.603570	1.017184	-1.473381	0.648143	0.006029	-0.757780	-0.075133
40952	9.608569	1.114250	-1.499599	0.647967	0.006420	-0.757950	-0.074900
40953	9.595194	1.161992	-1.517703	0.647897	0.006808	-0.758031	-0.074640
40954	9.517840	1.056991	-1.439034	0.647806	0.007086	-0.758125	-0.074462
40955	9.582248	1.006486	-1.516253	0.647614	0.007485	-0.758311	-0.074191
40956	9.649509	1.066235	-1.509056	0.647544	0.007926	-0.758387	-0.073976
40957	9.577458	1.123058	-1.535922	0.647540	0.008405	-0.758407	-0.073752
40958	9.617470	1.138747	-1.585922	0.647543	0.008759	-0.758413	-0.073628
40959	9.606889	1.080671	-1.532290	0.647608	0.008958	-0.758362	-0.073562
40960	9.645059	1.166070	-1.614672	0.647670	0.009210	-0.758318	-0.073426
40961	9.625631	1.215298	-1.527496	0.647925	0.009414	-0.758103	-0.073387
40962	9.594288	1.172504	-1.515345	0.648228	0.009608	-0.757842	-0.073372
40963	9.586997	1.078947	-1.454170	0.648508	0.009876	-0.757601	-0.073351
40964	9.530412	1.137153	-1.454037	0.648639	0.010169	-0.757491	-0.073289
40965	9.473372	1.140402	-1.514974	0.648692	0.010399	-0.757438	-0.073335
40966	9.475579	1.142685	-1.547194	0.648643	0.010658	-0.757476	-0.073348
40967	9.560808	1.136152	-1.679481	0.648598	0.011107	-0.757523	-0.073189
40968	9.619566	1.185551	-1.608766	0.648782	0.011671	-0.757390	-0.072837
40969	9.591076	1.077538	-1.545278	0.648996	0.012171	-0.757236	-0.072455
40970	9.588714	0.974285	-1.772995	0.648895	0.013170	-0.757393	-0.071544
40971	9.812328	1.050103	-1.663380	0.649305	0.014213	-0.757115	-0.070555
40972	9.704703	1.059477	-1.244809	0.650046	0.014904	-0.756523	-0.069935
40973	9.714871	1.028243	-1.275594	0.650414	0.015243	-0.756218	-0.069738
40974	9.767882	0.828591	-1.605759	0.650687	0.015495	-0.755992	-0.069591
40975	9.783860	0.732569	-1.452733	0.651244	0.015710	-0.755519	-0.069466
40976	9.812385	0.611548	-1.515204	0.651999	0.015909	-0.754870	-0.069389
40977	9.746384	0.561532	-1.783136	0.652703	0.015996	-0.754249	-0.069514
40978	9.702790	0.642193	-1.624308	0.653563	0.016292	-0.753511	-0.069363
40979	9.490587	0.698963	-1.585547	0.654299	0.016552	-0.752893	-0.069071
40980	9.788857	0.532769	-1.657916	0.655168	0.016905	-0.752170	-0.068633
40981	9.901769	0.545247	-1.561691	0.656387	0.017314	-0.751139	-0.068162
40982	9.946563	0.582508	-1.467600	0.657628	0.017743	-0.750091	-0.067626
40983	9.868726	0.684372	-1.328111	0.658913	0.018277	-0.749016	-0.066894
40984	9.739873	0.824990	-1.300834	0.660242	0.018922	-0.747910	-0.065986
40985	9.518007	0.962945	-1.285531	0.661526	0.019525	-0.746854	-0.064895
40986	9.511811	1.136481	-1.244102	0.662780	0.019703	-0.745829	-0.063824
40987	9.628258	1.142213	-1.155324	0.664057	0.019268	-0.744766	-0.063090
40988	9.685844	0.875229	-1.267929	0.665106	0.018703	-0.743890	-0.062536
40989	9.705325	0.742541	-1.318697	0.666293	0.018111	-0.742875	-0.062150
40990	9.577678	0.707568	-1.401938	0.667604	0.017619	-0.741758	-0.061559
40991	9.686089	0.769479	-1.318922	0.668968	0.016865	-0.740596	-0.060943
40992	9.608013	0.681125	-1.206042	0.670381	0.015764	-0.739386	-0.060414
40993	9.653905	0.388562	-1.174392	0.671738	0.014763	-0.738240	-0.059604
40994	9.602469	0.430839	-0.911980	0.673173	0.014130	-0.737035	-0.058468
40995	9.567213	0.587780	-0.778663	0.674508	0.013532	-0.735918	-0.057281
40996	9.518344	0.514845	-0.535612	0.675622	0.012540	-0.734995	-0.056214
40997	9.611088	0.373881	-0.643492	0.676664	0.011438	-0.734132	-0.055172
40998	9.676158	0.356522	-0.674460	0.677769	0.010748	-0.733209	-0.054019
40999	9.548019	0.577067	-0.705008	0.678890	0.010772	-0.732273	-0.052620
41000	9.475400	0.689221	-0.847541	0.680131	0.011363	-0.731240	-0.050802
41001	9.682299	0.903521	-0.692836	0.681793	0.012177	-0.729821	-0.048692
41002	9.904972	1.025459	-0.047570	0.683300	0.012224	-0.728527	-0.046908
41003	10.177995	1.050549	-0.212567	0.684381	0.011832	-0.727631	-0.045126
41004	10.020013	1.160520	-0.450610	0.685784	0.011329	-0.726404	-0.043697
41005	9.840353	1.277070	-0.405914	0.687387	0.010764	-0.724940	-0.042956
41006	10.098341	1.334467	-0.658629	0.688751	0.010395	-0.723679	-0.042462
41007	10.426910	1.430077	-0.393394	0.690700	0.010396	-0.721865	-0.041681
41008	10.121226	1.672973	-0.510401	0.692523	0.010745	-0.720160	-0.040827
41009	9.498744	2.174014	-0.464351	0.694935	0.011288	-0.717864	-0.040130
41010	8.657302	3.014171	-0.415158	0.696493	0.011315	-0.716350	-0.040159
41011	8.425706	3.481608	-1.253484	0.696832	0.009579	-0.715926	-0.042224
41012	8.911297	3.429018	-1.408798	0.696648	0.006303	-0.715905	-0.046059
41013	9.604495	3.166496	-1.625364	0.695986	0.002179	-0.716237	-0.051029
41014	10.341543	2.839114	-1.913326	0.695546	-0.002689	-0.716214	-0.056974
41015	9.871390	2.427299	-1.508489	0.696194	-0.008114	-0.715001	-0.063411
41016	9.464734	1.971912	-1.143542	0.696811	-0.013239	-0.713757	-0.069497
41017	9.249157	1.829892	-1.200862	0.697328	-0.018131	-0.712540	-0.075441
41018	8.709718	1.729075	-0.761791	0.697858	-0.023269	-0.711217	-0.081382
41019	8.617826	1.808283	-0.695237	0.697556	-0.028719	-0.710627	-0.087181
41020	8.915290	2.247651	-1.278263	0.696247	-0.034802	-0.710840	-0.093465
41021	9.150508	2.409622	-1.347722	0.694882	-0.041721	-0.710855	-0.100414
41022	9.168366	2.747987	-0.770295	0.693386	-0.048947	-0.710795	-0.107658
41023	9.376489	2.637398	-1.255472	0.691395	-0.056528	-0.710981	-0.115254
41024	9.221299	2.417677	-1.204437	0.689419	-0.064340	-0.710913	-0.123145
41025	8.846338	2.186977	-1.269972	0.687136	-0.071660	-0.711085	-0.130636
41026	8.875582	2.559834	-1.650872	0.684824	-0.078652	-0.711177	-0.138045
41027	9.220119	3.075460	-1.827874	0.683017	-0.085601	-0.710620	-0.145534
41028	9.760978	3.457893	-1.754506	0.681716	-0.092767	-0.709392	-0.153039
41029	9.787434	2.963032	-0.667405	0.681493	-0.099640	-0.707163	-0.159872
41030	9.577598	2.445313	-0.802035	0.680846	-0.106577	-0.705340	-0.166089
41031	9.439274	2.663493	-0.974689	0.680404	-0.113199	-0.703342	-0.171892
41032	9.618238	3.741233	-0.603166	0.679933	-0.119841	-0.701202	-0.177891
41033	9.440400	4.527678	-0.735744	0.678849	-0.127194	-0.699158	-0.184837
41034	9.525718	4.813007	-1.160972	0.676919	-0.135309	-0.697354	-0.192793
41035	9.562296	4.407329	-1.303420	0.674092	-0.143763	-0.695957	-0.201436
41036	10.175290	4.388155	-0.912112	0.670108	-0.153023	-0.694997	-0.210994
41037	11.185866	1.449085	0.080005	0.666456	-0.163951	-0.692565	-0.222059
41038	12.769361	0.210143	0.530802	0.664929	-0.172892	-0.688605	-0.231949
41039	13.326065	-1.798673	0.918989	0.664394	-0.181835	-0.683021	-0.242897
41040	13.630215	-0.323816	0.539954	0.663439	-0.187735	-0.679340	-0.251202
41041	11.189720	2.136540	-0.371167	0.661830	-0.195753	-0.674944	-0.260983
41042	8.321117	1.338749	-0.655130	0.659488	-0.206483	-0.669453	-0.272531
41043	7.957097	-0.369070	-0.593991	0.656423	-0.216442	-0.664792	-0.283396
41044	9.533010	-1.922285	-0.223013	0.652460	-0.225375	-0.661027	-0.294188
41045	10.580354	-3.607733	0.273754	0.649748	-0.231497	-0.657274	-0.303689
41046	10.515609	-4.286764	0.594342	0.646842	-0.236153	-0.655340	-0.310415
41047	11.060707	-3.786586	0.113941	0.644109	-0.241133	-0.653730	-0.315620
41048	10.965702	-2.981809	0.054713	0.641755	-0.246680	-0.651728	-0.320234
41049	9.916011	-2.220589	0.468502	0.640294	-0.251473	-0.649192	-0.324555
41050	8.997588	-1.561262	0.539928	0.638097	-0.256359	-0.647035	-0.329329
41051	8.162252	-1.458101	0.542053	0.635976	-0.261333	-0.644128	-0.335169
41052	7.665439	-1.397524	0.853511	0.633069	-0.265856	-0.642570	-0.340070
41053	8.764880	-0.819124	0.618454	0.630867	-0.269365	-0.640691	-0.344911
41054	9.229346	-1.068902	1.305439	0.628717	-0.272206	-0.638830	-0.350021
41055	9.689072	-1.024068	1.018398	0.627213	-0.273114	-0.637631	-0.354174
41056	9.514652	-1.340109	0.937786	0.626382	-0.272916	-0.636269	-0.358225
41057	9.267021	-2.161240	0.977477	0.627226	-0.271124	-0.634135	-0.361873
41058	8.961918	-2.684324	1.398934	0.629495	-0.268001	-0.631685	-0.364535
41059	9.447007	-1.993857	2.309710	0.633262	-0.264495	-0.627850	-0.367186
41060	9.814613	-0.174674	2.528704	0.638589	-0.259789	-0.623357	-0.368971
41061	9.561891	1.197264	3.154757	0.645450	-0.254562	-0.617367	-0.370744
41062	8.793537	2.292352	3.675811	0.651525	-0.250168	-0.611798	-0.372336
41063	8.141109	2.602280	1.532309	0.656128	-0.245335	-0.608686	-0.372569
41064	8.379063	2.753055	-0.378780	0.659055	-0.240124	-0.607928	-0.372035
41065	9.728739	4.028155	-0.551542	0.661379	-0.236304	-0.607084	-0.371735
41066	10.055364	5.658364	-0.504838	0.663626	-0.234623	-0.605043	-0.372123
41067	10.436663	4.520983	-0.420577	0.666510	-0.232269	-0.603097	-0.371603
41068	10.135574	3.646967	-0.775639	0.669386	-0.229717	-0.601085	-0.371281
41069	9.292953	1.971440	-0.793836	0.672602	-0.226072	-0.599589	-0.370123
41070	7.959090	1.148146	-0.640338	0.675237	-0.221811	-0.599905	-0.367381
41071	7.179008	0.940859	-1.483079	0.676982	-0.218014	-0.601312	-0.364128
41072	6.053952	1.922054	-1.133700	0.677632	-0.214615	-0.603850	-0.360723
41073	5.745609	0.735941	-1.402176	0.676722	-0.212286	-0.608026	-0.356772
41074	8.686352	-1.010056	-0.742626	0.675886	-0.207922	-0.614474	-0.349813
41075	10.710508	-2.201710	-1.678269	0.676837	-0.199272	-0.622280	-0.339044
41076	12.571246	-4.987439	-0.985419	0.678415	-0.188233	-0.631419	-0.325009
41077	13.428605	-4.405249	-2.118193	0.680182	-0.175329	-0.641473	-0.308423
41078	12.114531	-1.762006	-2.067877	0.683375	-0.160204	-0.650670	-0.289762
41079	12.093255	-1.383804	-0.868043	0.685817	-0.144080	-0.660890	-0.268553
41080	13.856024	-2.695394	-1.615006	0.688554	-0.126171	-0.670896	-0.244689
41081	14.832849	-4.461813	-2.447295	0.691956	-0.104376	-0.680589	-0.217028
41082	14.818970	-4.480386	-2.974951	0.696918	-0.078714	-0.688126	-0.185989
41083	13.567322	-2.820744	-2.592482	0.702910	-0.051920	-0.692695	-0.152953
41084	12.000048	-0.988966	-2.862556	0.708533	-0.024015	-0.695333	-0.117968
41085	10.559594	0.776473	-2.253375	0.714757	0.002872	-0.694396	-0.083238
41086	8.273171	2.674375	-1.450613	0.719922	0.028364	-0.691713	-0.049406
41087	7.040193	2.684898	-1.298066	0.723105	0.052222	-0.688539	-0.017501
41088	5.997704	2.052612	-1.208674	0.725659	0.076034	-0.683717	0.012989
41089	6.849790	1.734388	-0.264684	0.726332	0.100434	-0.678630	0.042625
41090	7.442994	2.359058	0.489956	0.727317	0.125808	-0.670858	0.071642
41091	9.190455	4.200454	1.687641	0.727545	0.145583	-0.663514	0.096085
41092	10.287851	7.629128	2.472760	0.727857	0.160378	-0.656290	0.117413
41093	9.717084	7.772731	1.683159	0.728922	0.169460	-0.649915	0.132543
41094	10.117732	8.324391	1.608669	0.729308	0.179310	-0.644065	0.145387
41095	12.445216	7.680025	1.973389	0.729237	0.187350	-0.639379	0.155908
41096	13.020160	5.843158	1.821249	0.731591	0.189743	-0.633823	0.164439
41097	9.646216	6.428450	2.034874	0.735148	0.188306	-0.628310	0.171243
41098	6.666678	9.624347	2.634357	0.737843	0.182665	-0.626533	0.172272
41099	9.629262	11.691963	2.553085	0.738313	0.172008	-0.630545	0.166495
41100	12.735504	11.882117	0.950334	0.739117	0.154930	-0.636958	0.154879
41101	12.970966	9.079321	0.273765	0.741613	0.132452	-0.643007	0.137869
41102	11.439560	7.568108	-0.131344	0.743733	0.107182	-0.649433	0.116662
41103	11.269335	6.313075	-1.355044	0.744126	0.078869	-0.657094	0.091011
41104	11.878007	5.112737	-2.352902	0.743852	0.048171	-0.663741	0.061737
41105	12.162564	3.825848	-2.368702	0.743363	0.015743	-0.668037	0.029853
41106	11.577056	2.968945	-2.137818	0.742115	-0.017444	-0.670034	-0.003946
41107	10.546557	1.747787	-2.753731	0.740583	-0.050338	-0.668928	-0.039222
41108	9.433909	-0.280085	-2.774663	0.739481	-0.082198	-0.663814	-0.075905
41109	7.455061	-2.105221	-1.873051	0.738635	-0.109335	-0.655810	-0.111252
41110	5.940939	-3.001135	-1.284777	0.735549	-0.132914	-0.648401	-0.144495
41111	5.929847	-2.432666	-2.691243	0.728830	-0.154610	-0.643482	-0.175596
41112	5.490689	-2.525225	-4.388070	0.720004	-0.177595	-0.638008	-0.207363
41113	4.425202	-2.687452	-3.106261	0.711692	-0.199869	-0.629532	-0.239240
41114	4.584454	-3.057727	-2.792270	0.701496	-0.219919	-0.622887	-0.267489
41115	6.124556	-4.991142	-0.957357	0.691875	-0.237697	-0.615658	-0.292872
41116	8.224940	-8.403343	-0.246365	0.682355	-0.252699	-0.609563	-0.314590
41117	10.666923	-7.216617	0.865332	0.674457	-0.263933	-0.603603	-0.333332
41118	12.468018	-3.554113	0.508041	0.666005	-0.274248	-0.598860	-0.350130
41119	14.182516	-0.623654	-1.186192	0.657097	-0.284542	-0.594743	-0.365431
41120	12.190443	-1.818806	-0.657136	0.651532	-0.292932	-0.588067	-0.379307
41121	10.061270	-3.211046	0.146869	0.646341	-0.299764	-0.584115	-0.388836
41122	12.078726	-4.963405	-1.370818	0.640203	-0.304885	-0.583902	-0.395277
41123	14.213604	-6.039371	-2.735336	0.635729	-0.305616	-0.585929	-0.398917
41124	15.090881	-6.085652	-2.921564	0.633430	-0.303117	-0.589236	-0.399609
41125	15.700072	-5.162628	-1.515591	0.634050	-0.297719	-0.593349	-0.396587
41126	15.087269	-3.821828	-0.659301	0.637132	-0.290283	-0.597880	-0.390305
41127	13.557014	-2.567366	-1.609722	0.641955	-0.280310	-0.603621	-0.380738
41128	11.131522	-1.977269	-2.169404	0.649231	-0.266597	-0.609796	-0.368204
41129	8.854353	-0.968963	-1.658055	0.657367	-0.249961	-0.617548	-0.352169
41130	8.602420	0.493325	-1.814363	0.666036	-0.231385	-0.625835	-0.333449
41131	7.659248	1.981776	-0.737228	0.676516	-0.211617	-0.631523	-0.314202
41132	6.262695	3.359302	-0.341585	0.685920	-0.192288	-0.637154	-0.294236
41133	5.369870	5.143876	-1.291183	0.693527	-0.173619	-0.643234	-0.274093
41134	5.701728	7.570312	-0.864330	0.699045	-0.157430	-0.649147	-0.255265
41135	6.392083	7.097489	-1.531512	0.702647	-0.144201	-0.655025	-0.237563
41136	7.129647	6.302712	-1.498580	0.705644	-0.130892	-0.660673	-0.220103
41137	8.429142	4.010240	-1.005813	0.707194	-0.118503	-0.666535	-0.203874
41138	9.954717	2.798930	-1.236600	0.708161	-0.104833	-0.672647	-0.187254
41139	10.273918	3.723600	-2.358460	0.709044	-0.091818	-0.677496	-0.172698
41140	9.566686	7.029406	-1.716458	0.709528	-0.077790	-0.682046	-0.159160
41141	10.421893	9.202516	1.494674	0.708238	-0.069596	-0.685845	-0.152224
41142	11.915516	7.576192	0.469490	0.706617	-0.060577	-0.689740	-0.145881
41143	12.592111	5.366585	0.748819	0.705975	-0.051854	-0.691994	-0.141612
41144	11.428361	2.838387	0.598695	0.705364	-0.041892	-0.694356	-0.136293
41145	11.013748	1.506213	0.679489	0.704676	-0.034765	-0.696460	-0.131021
41146	11.137616	1.309403	1.129661	0.704888	-0.031543	-0.697122	-0.127116
41147	11.011467	0.871803	1.716197	0.706986	-0.030598	-0.695488	-0.124621
41148	10.293378	0.785923	3.141305	0.710313	-0.029816	-0.692495	-0.122547
41149	10.362853	0.619080	2.498086	0.713067	-0.028587	-0.690108	-0.120288
41150	10.206334	0.421300	3.134506	0.718316	-0.027967	-0.685012	-0.118318
41151	9.490321	-0.622871	2.276382	0.722521	-0.030453	-0.680645	-0.117297
41152	9.502546	-1.505498	3.187413	0.729343	-0.033823	-0.673283	-0.116642
41153	8.159096	-0.722631	3.194669	0.736478	-0.036468	-0.665508	-0.115630
41154	7.043240	0.095185	2.466742	0.745539	-0.039353	-0.655119	-0.115943
41155	4.346277	0.183005	1.938910	0.756028	-0.041402	-0.642776	-0.116392
41156	1.858649	0.150307	0.763587	0.767275	-0.043611	-0.628871	-0.117934
41157	-1.072885	-0.522297	-0.035417	0.777973	-0.044064	-0.615339	-0.119060
41158	-1.706415	-1.061592	0.281404	0.787581	-0.044089	-0.602723	-0.120407
41159	-1.291194	-1.582671	-0.071038	0.796510	-0.042700	-0.590919	-0.120682
41160	0.471630	-2.158055	-0.932519	0.804842	-0.040315	-0.579919	-0.119575
41161	1.690838	-2.263482	-0.794555	0.812603	-0.037585	-0.569588	-0.117619
41162	0.989585	-2.912372	-0.133152	0.820713	-0.034012	-0.558732	-0.114421
41163	0.545523	-2.423234	-2.571206	0.828926	-0.028762	-0.547696	-0.109928
41164	-1.745312	-2.364139	-3.601162	0.835480	-0.021533	-0.539119	-0.104209
41165	-0.269021	-0.341791	-0.145970	0.838696	-0.014943	-0.535472	-0.098157
41166	4.124613	2.409243	2.003125	0.841106	-0.011785	-0.532682	-0.093017
41167	5.905047	2.846029	3.445214	0.845430	-0.013821	-0.526047	-0.091274
41168	3.958827	2.591534	5.243283	0.850111	-0.014127	-0.518434	-0.091316
41169	3.694003	2.578068	2.326392	0.851128	-0.011289	-0.516930	-0.090756
41170	8.422618	3.819312	1.792447	0.848923	-0.010037	-0.520617	-0.090479
41171	9.961030	1.586767	4.749244	0.849983	-0.010809	-0.518914	-0.090229
41172	10.723288	2.097794	6.976995	0.850697	-0.014700	-0.517286	-0.092266
41173	9.778189	3.473282	6.590662	0.852918	-0.019489	-0.512752	-0.096108
41174	8.998478	5.102887	-0.093165	0.853170	-0.022563	-0.511352	-0.100553
41175	11.074185	3.646309	4.193856	0.851883	-0.028516	-0.511882	-0.107043
41176	13.934602	0.131390	5.123469	0.850243	-0.034456	-0.512828	-0.113608
41177	15.028774	-0.262879	9.256717	0.849040	-0.038856	-0.513140	-0.119622
41178	16.377305	1.251199	9.348977	0.847051	-0.043012	-0.514729	-0.125330
41179	17.631006	2.470702	9.842175	0.844700	-0.046497	-0.516957	-0.130675
41180	21.343308	1.083543	11.526176	0.839707	-0.051976	-0.523205	-0.135819
41181	25.855278	2.397779	12.051713	0.834764	-0.057734	-0.529478	-0.139602
41182	28.973675	-0.438251	13.737529	0.830450	-0.065205	-0.534471	-0.142973
41183	30.620446	0.344887	13.289605	0.827939	-0.070008	-0.537121	-0.145318
41184	31.324955	1.721924	13.220560	0.826860	-0.074687	-0.537444	-0.147914
41185	28.829631	1.548452	12.459797	0.827555	-0.080491	-0.534600	-0.151252
41186	25.101998	1.195651	11.662452	0.829869	-0.086105	-0.529093	-0.154803
41187	20.734650	0.324055	10.084464	0.832672	-0.091635	-0.522646	-0.158436
41188	16.843415	0.023022	8.673485	0.835405	-0.096113	-0.516271	-0.162250
41189	13.726098	-0.098801	7.436772	0.837329	-0.099773	-0.511033	-0.166643
41190	11.799519	-0.591759	6.515223	0.837895	-0.102467	-0.507931	-0.171580
41191	10.631427	0.067503	5.484784	0.837424	-0.104109	-0.506550	-0.176889
41192	9.583301	1.516453	5.082585	0.836272	-0.105167	-0.506238	-0.182514
41193	8.506082	1.696012	4.418629	0.833967	-0.107397	-0.507421	-0.188382
41194	8.085368	0.502887	4.586981	0.830600	-0.110421	-0.510293	-0.193679
41195	8.355791	-0.016794	4.047094	0.826265	-0.113339	-0.514815	-0.198511
41196	8.251803	0.060670	3.386988	0.820707	-0.117029	-0.520736	-0.203907
41197	8.158985	0.565677	3.837975	0.813712	-0.120731	-0.528522	-0.209667
41198	8.948609	1.846838	3.508077	0.805126	-0.125065	-0.537891	-0.216343
41199	8.655906	1.785592	2.710772	0.796344	-0.130189	-0.546483	-0.224150
41200	8.693225	2.676221	1.768379	0.787176	-0.135246	-0.554839	-0.232845
41201	8.944181	2.359876	1.213690	0.778308	-0.141226	-0.561337	-0.243296
41202	8.591135	1.640623	1.764029	0.769493	-0.148408	-0.566275	-0.255320
41203	8.515526	0.959769	1.216984	0.760002	-0.156860	-0.570810	-0.268269
41204	6.566399	-0.957754	1.472157	0.751354	-0.165736	-0.573213	-0.281824
41205	4.718200	-3.027200	1.097289	0.742284	-0.174330	-0.576313	-0.294087
41206	3.275516	-4.804816	-1.452825	0.732598	-0.181205	-0.581426	-0.303988
41207	2.526236	-6.071871	-0.899123	0.724479	-0.184948	-0.586459	-0.311435
41208	1.398418	-6.505327	-0.649892	0.717544	-0.186151	-0.592240	-0.315800
41209	0.357529	-5.338581	0.300859	0.710566	-0.185871	-0.599942	-0.317203
41210	0.380096	-3.539313	0.883731	0.703553	-0.186054	-0.608021	-0.317344
41211	0.328474	-1.602967	0.327724	0.696989	-0.185324	-0.616417	-0.316056
41212	0.495197	-0.886697	0.852679	0.690286	-0.183558	-0.625543	-0.313859
41213	1.053128	-0.025920	-0.062885	0.682819	-0.181376	-0.635851	-0.310732
41214	3.033093	1.161714	-0.217509	0.675692	-0.179757	-0.645296	-0.307769
41215	4.439119	2.493124	0.449080	0.670363	-0.179550	-0.651530	-0.306404
41216	5.650140	4.710381	1.597943	0.666766	-0.180775	-0.654764	-0.306639
41217	6.348961	5.935292	1.889485	0.663848	-0.183700	-0.655680	-0.309263
41218	6.909260	9.099701	3.085024	0.662205	-0.184622	-0.655664	-0.312256
41219	10.707039	10.119860	3.260209	0.657960	-0.190775	-0.654269	-0.320353
41220	14.333155	9.475476	2.406590	0.655602	-0.198701	-0.648850	-0.331206
41221	15.048238	5.952509	1.442291	0.651182	-0.209085	-0.641874	-0.346760
41222	12.671559	1.618967	-2.011915	0.646093	-0.215012	-0.637157	-0.361059
41223	11.454610	3.101936	-0.352789	0.641186	-0.219707	-0.633798	-0.372705
41224	10.212329	5.780167	-1.270782	0.638613	-0.225680	-0.626830	-0.385132
41225	8.206776	5.797729	-0.268488	0.634814	-0.234569	-0.619243	-0.398153
41226	7.952658	4.940798	-1.445853	0.630229	-0.243765	-0.611936	-0.411005
41227	7.224308	1.374356	-0.191392	0.626460	-0.252116	-0.603775	-0.423605
41228	7.043179	-0.814903	-0.924410	0.623055	-0.258628	-0.598990	-0.431423
41229	5.921489	-4.098464	0.303851	0.622112	-0.263464	-0.594841	-0.435578
41230	4.295534	-4.874848	0.352527	0.622430	-0.266835	-0.593130	-0.435404
41231	3.064510	-4.412695	-1.061920	0.622643	-0.267444	-0.597297	-0.428983
41232	5.019913	-2.447748	-1.833011	0.621107	-0.266868	-0.607934	-0.416442
41233	7.929169	0.025927	-1.597310	0.623986	-0.261059	-0.617261	-0.401843
41234	9.751193	-0.052329	-3.550197	0.627088	-0.253148	-0.627471	-0.385949
41235	12.610670	4.099192	-3.817716	0.630104	-0.242493	-0.638257	-0.369856
41236	11.257432	5.987709	-4.608909	0.634596	-0.232299	-0.647430	-0.352363
41237	10.416055	-0.503164	-2.775861	0.635885	-0.223946	-0.659247	-0.333004
41238	14.477060	-6.024569	-3.687815	0.639358	-0.207337	-0.674509	-0.305401
41239	19.457297	-7.671641	-4.649263	0.646339	-0.182802	-0.688782	-0.272780
41240	17.028719	-3.622579	-3.263964	0.664552	-0.153909	-0.689707	-0.242872
41241	11.202393	0.199020	-2.780359	0.675626	-0.130008	-0.693047	-0.215203
41242	12.967804	1.492332	-2.189873	0.682853	-0.105293	-0.698068	-0.187953
41243	13.052287	2.064066	-1.445570	0.694330	-0.077512	-0.697021	-0.161433
41244	10.190817	0.764857	0.775558	0.703708	-0.051239	-0.695576	-0.135437
41245	7.560667	-2.722234	0.249479	0.712030	-0.023709	-0.693514	-0.107186
41246	6.674099	-1.314880	2.229610	0.718205	0.003556	-0.691260	-0.079551
41247	9.879623	-0.079635	-0.275221	0.722777	0.031881	-0.688377	-0.052105
41248	10.053872	4.161766	-0.344382	0.731631	0.057759	-0.678781	-0.025230
41249	10.014780	8.073414	2.370379	0.737857	0.076282	-0.670631	-0.001494
41250	7.902131	8.893264	2.300684	0.744618	0.090528	-0.661052	0.018969
41251	6.826723	8.636505	2.420363	0.747885	0.100264	-0.655321	0.034194
41252	10.263983	5.783906	1.894490	0.749638	0.109699	-0.651015	0.046787
41253	12.981802	4.874937	3.027410	0.752432	0.117723	-0.645546	0.057073
41254	11.313460	7.082204	2.848978	0.756271	0.123223	-0.639173	0.065787
41255	7.805637	10.011397	4.090169	0.759836	0.124521	-0.634236	0.069917
41256	10.668038	10.143864	3.849775	0.760277	0.123819	-0.633824	0.070106
41257	12.705210	8.064212	3.487404	0.762246	0.117629	-0.633040	0.066366
41258	11.483565	6.629089	3.500508	0.764034	0.107990	-0.633192	0.060486
41259	10.334526	6.637709	2.400233	0.765190	0.094114	-0.634789	0.051669
41260	10.022974	5.829966	0.908664	0.765543	0.077008	-0.637519	0.039781
41261	9.672520	4.503208	0.444352	0.765188	0.057864	-0.640692	0.025563
41262	9.450638	3.734813	0.225404	0.763767	0.037083	-0.644355	0.009601
41263	8.996911	4.472495	0.659046	0.761998	0.013791	-0.647378	-0.008401
41264	8.988944	5.103964	0.858787	0.758795	-0.014035	-0.650500	-0.029722
41265	9.489323	4.925606	0.826250	0.754295	-0.045967	-0.652639	-0.054657
41266	9.515406	4.301283	-0.074524	0.748321	-0.081030	-0.653158	-0.082666
41267	8.842120	3.559866	-1.187200	0.741255	-0.118713	-0.650757	-0.113858
41268	7.684793	2.529731	-2.152121	0.732253	-0.158141	-0.645719	-0.147794
41269	6.514936	0.752397	-2.945348	0.720586	-0.198461	-0.638472	-0.183637
41270	6.412546	-1.219042	-4.697846	0.704837	-0.238099	-0.631268	-0.219122
41271	7.212117	-3.649814	-6.220845	0.687522	-0.274599	-0.622751	-0.253162
41272	8.229913	-6.691717	-5.304783	0.670203	-0.306528	-0.613577	-0.283536
41273	7.694612	-6.931906	-6.605330	0.652049	-0.337308	-0.602782	-0.312584
41274	6.397794	-5.945702	-5.876161	0.633680	-0.367331	-0.588327	-0.342621
41275	3.915706	-2.629019	-4.392754	0.613740	-0.395460	-0.572132	-0.373631
41276	2.257393	0.354550	-4.269490	0.590171	-0.421731	-0.558670	-0.402156
41277	1.982941	1.917247	-4.172529	0.564520	-0.446929	-0.545370	-0.429119
41278	4.700183	1.350735	-2.949149	0.537650	-0.471100	-0.531823	-0.454051
41279	7.954821	1.041594	-2.318999	0.510957	-0.493427	-0.516568	-0.478132
41280	9.436878	0.923212	-1.635908	0.484094	-0.514348	-0.499065	-0.502029
41281	10.241418	-0.067745	-1.590823	0.458324	-0.532302	-0.481213	-0.524431
41282	9.249158	-0.863846	-5.084274	0.435453	-0.545885	-0.467224	-0.542302
41283	11.036519	-3.547755	-2.139287	0.413800	-0.558121	-0.453633	-0.558111
41284	13.327801	-4.100656	-1.661261	0.397372	-0.567827	-0.440708	-0.570477
41285	15.971283	-2.316407	-1.909575	0.384068	-0.575675	-0.427022	-0.582015
41286	15.241453	-2.127506	-2.540320	0.371846	-0.581866	-0.414022	-0.593084
41287	13.932221	-3.774387	-2.602932	0.361307	-0.587283	-0.406616	-0.599349
41288	16.501327	-3.635165	-1.487653	0.354623	-0.590219	-0.402340	-0.603330
41289	17.411397	-3.950160	-0.587720	0.352719	-0.589558	-0.399442	-0.607006
41290	16.263871	-2.049583	-0.566422	0.353466	-0.586633	-0.398614	-0.609943
41291	13.687156	-0.138733	0.639192	0.355479	-0.582470	-0.399088	-0.612447
41292	12.471031	1.169875	-0.172212	0.356305	-0.579764	-0.400069	-0.613894
41293	11.238498	1.469269	0.134589	0.357176	-0.576731	-0.400498	-0.615962
41294	10.159842	1.029990	0.109434	0.357639	-0.574248	-0.401872	-0.617117
41295	9.708429	0.078182	0.177640	0.359288	-0.571055	-0.404234	-0.617579
41296	9.213187	-0.449160	0.361218	0.362190	-0.567559	-0.407540	-0.616933
41297	9.021901	-0.500395	0.331824	0.366000	-0.563726	-0.411105	-0.615833
41298	8.688099	-0.363822	0.442170	0.370509	-0.559682	-0.415327	-0.613989
41299	8.160887	-0.791437	-0.011160	0.376010	-0.555237	-0.420655	-0.611046
41300	8.457624	-1.529918	0.564039	0.383848	-0.549669	-0.428225	-0.605927
41301	10.041429	-1.829858	0.591101	0.393999	-0.542884	-0.438233	-0.598326
41302	11.521979	-2.779039	-0.293928	0.406284	-0.534177	-0.451763	-0.587792
41303	12.337656	-2.956427	-1.449826	0.421211	-0.521695	-0.469980	-0.574051
41304	12.596522	-3.954298	-3.058457	0.437981	-0.505404	-0.491266	-0.558030
41305	12.234741	-4.161581	-4.308713	0.457152	-0.485532	-0.512723	-0.540727
41306	11.467728	-2.414698	-5.563787	0.478240	-0.463246	-0.536057	-0.518972
41307	12.834869	-1.591805	-6.987016	0.501929	-0.436868	-0.560424	-0.493091
41308	12.593658	-1.183780	-7.387015	0.531605	-0.402315	-0.583917	-0.463227
41309	10.745082	-0.806078	-6.872978	0.563499	-0.363438	-0.604137	-0.430583
41310	7.532928	0.837259	-6.769413	0.593158	-0.323337	-0.622393	-0.395277
41311	4.898608	2.494978	-6.547861	0.617701	-0.284605	-0.639167	-0.359041
41312	2.956739	2.996309	-7.475838	0.637521	-0.247046	-0.654719	-0.322303
41313	1.867339	2.094057	-7.289450	0.656267	-0.208236	-0.666835	-0.285100
41314	1.546633	2.573830	-5.923477	0.672176	-0.168552	-0.677584	-0.246271
41315	1.845342	1.744215	-5.690426	0.683960	-0.127454	-0.688080	-0.206155
41316	3.111243	1.762204	-4.891707	0.692920	-0.085551	-0.696266	-0.166603
41317	4.407081	2.994629	-3.767936	0.699492	-0.046378	-0.701290	-0.129431
41318	5.797822	4.636614	-3.467251	0.704214	-0.012498	-0.703340	-0.096127
41319	6.233006	7.309359	-1.683390	0.709672	0.017399	-0.701113	-0.067103
41320	7.436500	8.261040	-0.746435	0.713483	0.042563	-0.698041	-0.043236
41321	10.216890	7.335117	0.924269	0.716816	0.063043	-0.693973	-0.024543
41322	12.058375	5.194492	1.464087	0.720457	0.079638	-0.688849	-0.009354
41323	12.425420	5.369774	0.660091	0.723419	0.091858	-0.684267	0.002232
41324	11.537119	6.030392	0.658408	0.727030	0.100288	-0.679150	0.011169
41325	12.420332	5.988258	1.750524	0.728956	0.107118	-0.675871	0.018624
41326	14.495665	6.050965	1.292918	0.729931	0.112210	-0.673806	0.024382
41327	14.504200	6.381102	0.727850	0.731043	0.114231	-0.672120	0.027971
41328	13.749962	6.651109	0.552677	0.731526	0.112365	-0.671893	0.028339
41329	14.114942	6.153863	0.029266	0.730936	0.108270	-0.673307	0.025829
41330	14.749797	5.086681	-0.400994	0.730077	0.102525	-0.675288	0.021506
41331	14.077881	3.838588	-0.341663	0.729853	0.094648	-0.676822	0.016375
41332	13.420662	2.721651	-0.504077	0.729048	0.086099	-0.678937	0.011000
41333	13.097329	2.286571	-0.345148	0.728529	0.076996	-0.680656	0.004877
41334	12.830935	2.571436	0.685683	0.728348	0.067460	-0.681876	-0.002072
41335	12.537759	2.999351	0.801002	0.728048	0.057565	-0.683036	-0.009732
41336	11.965373	3.540766	0.369173	0.727660	0.046317	-0.684116	-0.018748
41337	10.932242	3.442885	0.338320	0.727563	0.033501	-0.684606	-0.029064
41338	9.930457	2.940032	0.726088	0.727148	0.018174	-0.684981	-0.041561
41339	9.571700	1.728603	2.265990	0.727211	0.000041	-0.684051	-0.056904
41340	8.913111	0.120328	2.005778	0.726566	-0.017532	-0.683038	-0.072488
41341	7.571648	0.135248	1.431227	0.725938	-0.035575	-0.680988	-0.089465
41342	5.996785	-0.402193	1.207668	0.724538	-0.052798	-0.678868	-0.106754
41343	5.450530	-1.260822	0.960953	0.722057	-0.069316	-0.677091	-0.124001
41344	5.863068	-1.996931	1.116463	0.718964	-0.084358	-0.675520	-0.140169
41345	6.665817	-1.715654	0.851176	0.715171	-0.098937	-0.674118	-0.155907
41346	6.927446	-1.726126	0.739922	0.711784	-0.114176	-0.671170	-0.172798
41347	6.274625	-2.727514	1.046915	0.708048	-0.127400	-0.668337	-0.189111
41348	6.618021	-3.308357	0.506517	0.703689	-0.137227	-0.666706	-0.203700
41349	7.295525	-4.786711	0.500155	0.699455	-0.145081	-0.665254	-0.217143
41350	7.660174	-6.281737	0.629115	0.694866	-0.151085	-0.665118	-0.227932
41351	8.122017	-7.353505	0.864380	0.690821	-0.154114	-0.666026	-0.235425
41352	7.874906	-7.068005	1.078335	0.688222	-0.153507	-0.667175	-0.240133
41353	7.698998	-6.319220	0.901266	0.686592	-0.150072	-0.668852	-0.242298
41354	7.615250	-5.409389	0.726781	0.686041	-0.143958	-0.670995	-0.241640
41355	7.863948	-4.804738	0.830653	0.686294	-0.135798	-0.673552	-0.238509
41356	9.043048	-3.150830	0.906725	0.686638	-0.125749	-0.677136	-0.232814
41357	11.298229	-2.059632	0.380136	0.687226	-0.116232	-0.680450	-0.226273
41358	12.928964	-1.098941	0.797680	0.690135	-0.105678	-0.682057	-0.217588
41359	12.313728	-0.769177	0.954600	0.694950	-0.094203	-0.682263	-0.206609
41360	9.937994	-0.774937	-0.574711	0.700889	-0.080533	-0.681674	-0.193880
41361	7.889757	0.449312	-1.376146	0.707545	-0.065179	-0.680023	-0.180832
41362	8.133286	2.426373	-0.824334	0.713655	-0.048330	-0.678649	-0.166720
41363	9.237515	5.021677	1.000274	0.720626	-0.032369	-0.675403	-0.153233
41364	10.178066	7.634734	1.288892	0.727389	-0.019085	-0.671267	-0.141215
41365	9.167058	9.078786	-0.486667	0.733357	-0.008283	-0.666984	-0.131340
41366	6.812246	8.672770	-0.239103	0.738179	-0.001762	-0.662763	-0.125830
41367	6.817844	8.113258	-0.305343	0.739432	0.001729	-0.661769	-0.123691
41368	9.223342	7.032264	0.028472	0.739359	0.002627	-0.661679	-0.124591
41369	11.035108	6.412365	0.312898	0.739895	0.003055	-0.660732	-0.126408
41370	11.630076	5.231100	0.165102	0.741290	0.000590	-0.658402	-0.130369
41371	10.301057	4.329569	0.524563	0.744312	-0.002499	-0.654047	-0.134962
41372	9.324758	4.208641	0.288082	0.746545	-0.006126	-0.650367	-0.140198
41373	9.579256	5.137939	0.855946	0.748873	-0.009390	-0.646432	-0.145693
41374	9.425931	4.956521	1.425033	0.750831	-0.012513	-0.642784	-0.151412
41375	9.505747	4.069120	1.461786	0.752966	-0.015342	-0.638921	-0.156804
41376	8.867084	2.811251	0.723142	0.755232	-0.017190	-0.635087	-0.161228
41377	8.530122	2.308861	0.445897	0.757839	-0.018105	-0.630928	-0.165173
41378	8.401096	2.731525	1.241840	0.760834	-0.017891	-0.626650	-0.167695
41379	8.548139	3.957938	1.202503	0.764354	-0.018245	-0.621866	-0.169450
41380	7.154348	3.764331	1.932332	0.769599	-0.019496	-0.615009	-0.170593
41381	6.892636	2.221535	1.800527	0.774115	-0.020173	-0.609338	-0.170433
41382	7.504275	0.910301	2.014472	0.779065	-0.020004	-0.603299	-0.169375
41383	8.038416	1.017819	2.377177	0.784089	-0.018444	-0.597508	-0.166879
41384	7.698268	1.926051	2.556328	0.789226	-0.016813	-0.591482	-0.164282
41385	7.292430	2.854692	2.553084	0.794117	-0.015624	-0.585413	-0.162559
41386	6.691285	2.956990	2.149630	0.798927	-0.014826	-0.579090	-0.161711
41387	7.289632	2.597320	2.157981	0.802901	-0.014592	-0.573719	-0.161196
41388	8.670262	3.026511	2.747378	0.807451	-0.014061	-0.567418	-0.160815
41389	8.978254	3.268899	3.409980	0.811881	-0.014207	-0.560930	-0.161259
41390	8.646169	3.609080	4.394088	0.816495	-0.015521	-0.553646	-0.163007
41391	7.736495	2.053962	4.929602	0.820960	-0.020187	-0.545677	-0.166894
41392	7.785228	-0.728409	4.188617	0.824599	-0.027607	-0.537949	-0.172875
41393	8.570370	-1.307250	4.417865	0.827796	-0.032493	-0.531065	-0.177956
41394	8.845662	-0.412636	3.079769	0.830384	-0.034545	-0.525431	-0.182187
41395	8.040847	1.029882	4.411404	0.833136	-0.036078	-0.519705	-0.185711
41396	6.570950	0.350953	3.722772	0.834862	-0.039436	-0.515425	-0.189175
41397	6.550882	-0.984601	3.777859	0.835321	-0.042136	-0.513485	-0.191821
41398	9.015438	-0.844726	3.480946	0.834649	-0.043728	-0.513934	-0.193187
41399	10.607997	-1.670481	3.718241	0.835255	-0.043573	-0.513314	-0.192249
41400	10.657726	-1.625705	4.077932	0.836191	-0.041460	-0.513107	-0.189174
41401	10.469022	1.210434	5.516526	0.837867	-0.038320	-0.511887	-0.185695
41402	9.918603	2.160798	5.435628	0.839385	-0.037133	-0.510147	-0.183858
41403	10.418970	2.764999	6.395145	0.840538	-0.036922	-0.508514	-0.183156
41404	12.153970	1.687326	4.588066	0.841158	-0.037312	-0.507542	-0.182923
41405	13.792061	1.253255	5.520285	0.841851	-0.037263	-0.506529	-0.182557
41406	14.425823	1.862759	6.108019	0.842946	-0.037268	-0.504712	-0.182534
41407	12.706958	1.997477	7.429822	0.844312	-0.037946	-0.502072	-0.183361
41408	12.411318	1.223956	7.039573	0.844640	-0.038706	-0.500936	-0.184791
41409	13.504287	0.928493	6.858105	0.843945	-0.039943	-0.501327	-0.186636
41410	14.190188	2.004566	6.905705	0.842134	-0.040409	-0.503863	-0.187882
41411	13.890009	1.959393	6.066169	0.839972	-0.041347	-0.507009	-0.188891
41412	13.672335	1.090509	6.029476	0.837359	-0.042549	-0.510837	-0.189908
41413	13.804781	0.893168	6.188897	0.834440	-0.043071	-0.515546	-0.189912
41414	13.492103	0.250079	6.107265	0.831446	-0.043599	-0.520665	-0.188958
41415	13.395504	0.198355	5.677354	0.827945	-0.043343	-0.526987	-0.186852
41416	13.256426	0.458865	4.999976	0.823745	-0.041976	-0.534656	-0.183916
41417	14.144278	1.614257	4.514537	0.818482	-0.040725	-0.543723	-0.181092
41418	14.503415	2.092281	4.034126	0.814355	-0.039447	-0.550839	-0.178454
41419	13.721838	1.923825	4.040014	0.810879	-0.038108	-0.556950	-0.175587
41420	13.146185	1.533846	3.703865	0.807353	-0.036517	-0.563165	-0.172315
41421	12.794660	1.082922	4.055376	0.804141	-0.033465	-0.569317	-0.167678
41422	11.737730	1.083614	4.028492	0.800170	-0.030034	-0.576792	-0.161671
41423	11.279736	0.647812	2.538704	0.794737	-0.028535	-0.585883	-0.155949
41424	11.635592	0.861554	2.084741	0.788171	-0.027834	-0.596114	-0.150535
41425	12.532041	0.968255	2.561750	0.782293	-0.027526	-0.605059	-0.145476
41426	12.185476	1.602420	2.106871	0.776617	-0.027101	-0.613451	-0.140744
41427	11.390784	1.658869	2.449471	0.771955	-0.027580	-0.620050	-0.137341
41428	9.589036	1.456543	1.859139	0.767256	-0.028443	-0.626341	-0.134928
41429	8.282903	1.382485	1.253863	0.762671	-0.030072	-0.632092	-0.133743
41430	7.000765	1.066844	0.598035	0.758487	-0.032441	-0.637062	-0.133404
41431	6.387284	-0.075161	1.020895	0.755118	-0.035931	-0.640791	-0.133763
41432	5.521625	-0.850037	1.181310	0.751684	-0.038844	-0.644750	-0.133263
41433	3.742682	-0.516496	-0.414225	0.750088	-0.039564	-0.647140	-0.130434
41434	1.745415	-0.225532	0.544637	0.748358	-0.038388	-0.649934	-0.126775
41435	1.440817	0.003007	1.294165	0.745780	-0.038403	-0.653429	-0.123964
41436	2.186008	-0.050585	0.922795	0.741410	-0.040854	-0.658551	-0.122280
41437	3.015367	-1.051353	1.676943	0.738234	-0.043937	-0.662150	-0.120987
41438	3.209389	-1.004502	1.995036	0.735036	-0.046320	-0.665839	-0.119311
41439	3.655353	-0.769915	1.048416	0.731641	-0.047115	-0.669928	-0.116950
41440	3.902025	-0.914941	1.673880	0.729166	-0.045646	-0.673333	-0.113390
41441	3.914580	-0.867847	1.412482	0.725692	-0.042984	-0.678081	-0.108306
41442	5.765845	-0.248039	0.258738	0.721332	-0.041471	-0.683548	-0.103548
41443	7.473892	0.378076	-0.611342	0.717177	-0.041053	-0.688426	-0.100209
41444	9.936381	1.136585	0.026309	0.714021	-0.039911	-0.692233	-0.096920
41445	12.709941	1.940326	0.485899	0.712091	-0.038560	-0.694810	-0.093159
41446	13.252642	2.576693	0.803861	0.712947	-0.036862	-0.694606	-0.088713
41447	11.535871	2.551813	1.138780	0.714636	-0.035913	-0.693398	-0.084883
41448	10.071639	1.408503	0.305213	0.714433	-0.036342	-0.693855	-0.082643
41449	10.048050	0.407311	-0.764387	0.714289	-0.034484	-0.694441	-0.079703
41450	10.227556	0.833635	-0.256564	0.715526	-0.031413	-0.693607	-0.077105
41451	10.518112	0.571690	0.389156	0.716523	-0.026635	-0.693186	-0.073333
41452	10.597705	1.388047	-0.511296	0.718174	-0.019233	-0.692343	-0.067216
41453	9.716748	2.110397	-0.702713	0.720242	-0.012011	-0.690895	-0.061413
41454	9.071912	1.869016	-0.303662	0.720933	-0.004236	-0.690805	-0.055004
41455	8.885239	1.154338	-1.258275	0.721257	0.005048	-0.691058	-0.046920
41456	8.586636	0.760957	-1.404322	0.721455	0.014117	-0.691255	-0.038346
41457	8.910870	0.047784	-1.226206	0.719537	0.023957	-0.693463	-0.028316
41458	8.992744	0.523277	-1.809637	0.717383	0.034391	-0.695626	-0.016856
41459	8.822941	0.592667	-2.444544	0.715375	0.044392	-0.697314	-0.004641
41460	8.460760	0.857185	-2.784071	0.712652	0.054805	-0.699317	0.008896
41461	8.419236	0.580132	-2.527029	0.707420	0.065838	-0.703340	0.023116
41462	9.588848	0.001199	-1.949295	0.702960	0.077915	-0.705879	0.038883
41463	8.411343	-0.422522	-1.640031	0.699489	0.090938	-0.706556	0.056785
41464	8.336722	-0.310606	-1.465995	0.694708	0.104127	-0.707677	0.075703
41465	8.115904	0.342187	-1.667879	0.689650	0.115826	-0.708532	0.094604
41466	9.205240	0.804876	-0.848975	0.683634	0.126126	-0.709850	0.113354
41467	11.090911	0.532150	0.023731	0.677253	0.135144	-0.711228	0.131223
41468	13.205274	-0.220627	-0.144463	0.669122	0.145913	-0.713057	0.150115
41469	13.957871	-0.144105	2.742716	0.663176	0.153904	-0.713154	0.167099
41470	11.152326	-0.346345	2.456808	0.656665	0.161798	-0.713257	0.184057
41471	10.394166	0.044194	0.803478	0.648678	0.169940	-0.714051	0.201166
41472	10.902620	-2.448838	1.176482	0.643640	0.174471	-0.712029	0.219775
41473	15.163027	-6.699299	1.403048	0.636588	0.175643	-0.711286	0.240783
41474	17.396982	-5.309651	-0.525215	0.629987	0.175904	-0.708495	0.264969
41475	15.135632	1.318501	-3.884262	0.624719	0.173662	-0.704249	0.289139
41476	11.963184	2.522858	-3.539863	0.618051	0.172119	-0.700045	0.313568
41477	12.301657	-2.399438	-3.474218	0.607911	0.170938	-0.698195	0.337265
41478	10.157812	-4.384916	-3.132026	0.599746	0.169188	-0.691371	0.365632
41479	8.804429	-4.853544	-0.484206	0.589514	0.166958	-0.685288	0.393674
41480	9.119146	-2.756049	-1.365491	0.578111	0.163264	-0.679665	0.420937
41481	9.688623	-1.145289	-0.875103	0.566463	0.157678	-0.673389	0.448112
41482	9.331820	-1.293865	-0.936825	0.552645	0.152418	-0.667108	0.475731
41483	9.917551	-3.018650	-2.071731	0.536481	0.147857	-0.660240	0.504390
41484	9.067520	-5.204067	-1.552350	0.519821	0.141288	-0.651612	0.534065
41485	7.639132	-4.450729	0.336753	0.502120	0.134098	-0.641664	0.564057
41486	6.860527	-3.704660	-0.706068	0.483091	0.127263	-0.631566	0.592917
41487	5.779628	-1.121874	-0.840186	0.467703	0.118095	-0.617889	0.620903
41488	3.611496	-0.275459	0.872956	0.453512	0.112939	-0.603046	0.646458
41489	3.827768	1.101921	0.483869	0.440469	0.110784	-0.589190	0.668258
41490	3.212631	-0.130441	0.769142	0.427344	0.108403	-0.577964	0.686720
41491	1.514868	-2.615986	1.630104	0.412127	0.104302	-0.570189	0.702963
41492	2.294970	-7.608455	0.352604	0.394183	0.100842	-0.565861	0.717114
41493	4.959116	-9.207030	2.846435	0.380523	0.093381	-0.560444	0.729647
41494	7.332459	-9.388659	2.830440	0.367157	0.090392	-0.554376	0.741412
41495	7.730794	-7.204049	2.039086	0.355485	0.087869	-0.548565	0.751656
41496	4.626651	-7.219045	3.066045	0.342265	0.086427	-0.539463	0.764437
41497	1.813468	-2.608597	4.817752	0.329705	0.080108	-0.530695	0.776685
41498	3.377963	-3.723975	7.163045	0.315000	0.072852	-0.528374	0.785040
41499	4.751091	-2.844665	9.355576	0.303644	0.059788	-0.531676	0.788382
41500	6.507856	-5.924882	8.541420	0.293764	0.049076	-0.538846	0.787997
41501	4.812247	-14.390554	6.909374	0.284156	0.041920	-0.543437	0.788780
41502	2.425870	-15.989701	3.881062	0.275146	0.039055	-0.537587	0.796097
41503	3.007483	-12.349502	4.441614	0.264907	0.041066	-0.530722	0.804035
41504	3.672760	-8.577170	5.509883	0.257026	0.042802	-0.522708	0.811715
41505	6.187014	-6.005192	6.712632	0.251991	0.043821	-0.519526	0.815275
41506	6.779999	-3.863242	7.684365	0.251409	0.042493	-0.516816	0.817245
41507	3.715490	-6.118784	7.129002	0.252275	0.040121	-0.516163	0.817510
41508	1.516540	-8.081632	6.684833	0.253471	0.038838	-0.516998	0.816674
41509	3.533355	-10.145265	5.687075	0.253433	0.042374	-0.518185	0.815758
41510	4.915010	-9.414784	5.255745	0.254798	0.044897	-0.518439	0.815036
41511	5.062831	-9.726236	6.843056	0.255005	0.050075	-0.520346	0.813453
41512	5.185644	-9.986797	6.212888	0.255668	0.056105	-0.522320	0.811583
41513	3.827782	-8.470758	6.129653	0.257800	0.063147	-0.522942	0.809990
41514	3.048643	-6.700867	5.384638	0.260961	0.070911	-0.524664	0.807216
41515	3.098288	-6.552340	4.162660	0.266064	0.077671	-0.528830	0.802195
41516	3.394554	-7.395587	4.206073	0.272150	0.086119	-0.534897	0.795238
41517	4.664894	-7.411525	3.022329	0.279281	0.095914	-0.543309	0.785886
41518	5.852287	-7.414419	3.520937	0.287394	0.105734	-0.554005	0.774147
41519	6.261630	-6.558621	2.759638	0.297185	0.114565	-0.566555	0.759981
41520	5.277027	-6.726796	2.399893	0.307443	0.124284	-0.579977	0.744082
41521	6.410552	-6.399784	0.888136	0.316806	0.135669	-0.595351	0.725799
41522	7.076215	-6.112509	-0.726641	0.327532	0.145399	-0.612459	0.704610
41523	7.207956	-4.850706	-1.714491	0.339967	0.153932	-0.631904	0.679283
41524	8.158216	-3.468709	-2.219734	0.354083	0.161301	-0.653912	0.648850
41525	9.145570	-2.110073	-2.120942	0.369972	0.167325	-0.676420	0.614475
41526	9.262425	-2.379921	-3.574921	0.385943	0.173088	-0.699475	0.576041
41527	8.919601	-3.002239	-3.599115	0.404198	0.177571	-0.719214	0.536492
41528	7.613261	-3.587539	-4.364391	0.421445	0.183902	-0.735867	0.497055
41529	8.096831	-4.365079	-4.031636	0.438629	0.190217	-0.749917	0.457216
41530	7.330078	-5.336298	-3.454119	0.456166	0.196592	-0.760422	0.418356
41531	6.539968	-3.356162	-4.139191	0.472155	0.204615	-0.768529	0.380217
41532	6.852708	-3.091345	-3.544991	0.486349	0.210639	-0.776273	0.341316
41533	8.567242	-4.432994	-3.806091	0.497353	0.212613	-0.784365	0.303656
41534	10.068036	-4.345764	-3.142180	0.510548	0.208673	-0.789701	0.268642
41535	8.384536	-4.962441	-2.468842	0.524574	0.202008	-0.792645	0.236069
41536	8.589813	-5.249728	-3.552462	0.534879	0.194302	-0.796930	0.202619
41537	7.739544	-6.143540	-4.405842	0.546897	0.185706	-0.797765	0.173168
41538	7.288044	-5.354474	-3.460510	0.558132	0.176598	-0.797427	0.146326
41539	8.448677	-2.978963	-3.128557	0.566897	0.169054	-0.796809	0.123061
41540	8.799455	-2.305112	-3.516882	0.576927	0.160141	-0.794495	0.101428
41541	8.456728	-2.118388	-4.347736	0.584423	0.151752	-0.792882	0.082216
41542	9.614994	-1.994340	-4.302589	0.591109	0.143497	-0.791024	0.065418
41543	10.670411	-0.377867	-3.417277	0.597301	0.136411	-0.788581	0.052571
41544	10.567971	0.049523	-3.963983	0.604702	0.129156	-0.784771	0.042305
41545	9.336583	-1.614910	-2.363034	0.612350	0.118471	-0.781060	0.030619
41546	9.608378	-3.164192	-3.689666	0.614602	0.110036	-0.780785	0.023042
41547	11.814090	-3.494417	-5.701765	0.616220	0.101465	-0.780814	0.017519
41548	12.846914	-3.430413	-7.262942	0.616913	0.095384	-0.781054	0.016557
41549	13.322782	-1.296038	-5.774037	0.618390	0.089461	-0.780612	0.015351
41550	12.145718	-0.282752	-4.622659	0.618664	0.085807	-0.780831	0.013927
41551	11.849998	0.816513	-3.519115	0.619765	0.080886	-0.780548	0.009660
41552	10.101219	1.241393	-3.268802	0.624718	0.074332	-0.777290	0.004841
41553	7.713504	-1.103369	-4.344548	0.629033	0.065695	-0.774597	-0.001331
41554	6.724576	-1.798635	-2.667684	0.634293	0.057713	-0.770913	-0.005954
41555	5.872667	-2.301052	-2.310215	0.637377	0.051895	-0.768761	-0.008054
41556	7.588999	-0.882731	-1.554596	0.639633	0.045452	-0.767266	-0.010376
41557	9.722809	0.220134	-1.994218	0.641605	0.037065	-0.765998	-0.014697
41558	11.561462	2.034911	-1.764563	0.644460	0.029350	-0.763845	-0.018753
41559	12.574127	2.770960	-1.355976	0.647379	0.020179	-0.761514	-0.024276
41560	11.346825	1.450366	-1.430286	0.651105	0.010561	-0.758331	-0.029732
41561	9.310523	-0.121917	-1.882614	0.652449	0.000854	-0.757035	-0.034759
41562	8.799186	-0.982042	-3.200836	0.651127	-0.006602	-0.757992	-0.037932
41563	9.820141	-0.689830	-2.987738	0.649619	-0.011262	-0.759137	-0.039731
41564	11.182277	0.259220	-1.908152	0.648355	-0.014618	-0.760092	-0.041025
41565	11.452804	0.936435	-1.478661	0.647968	-0.017901	-0.760301	-0.041939
41566	9.930727	1.448389	-0.763071	0.648175	-0.021342	-0.759986	-0.042833
41567	8.909793	1.728801	-0.431486	0.647933	-0.024548	-0.760052	-0.043604
41568	8.612131	2.191144	-0.440691	0.647548	-0.028495	-0.760169	-0.044855
41569	8.834401	2.346663	-0.391234	0.647322	-0.033155	-0.760056	-0.046796
41570	9.376082	3.149932	0.029343	0.647494	-0.038993	-0.759434	-0.049905
41571	9.677181	3.185939	0.002155	0.648108	-0.045764	-0.758246	-0.054078
41572	9.502694	2.987068	0.218810	0.649062	-0.053866	-0.756480	-0.059627
41573	9.164319	2.046546	0.231253	0.650251	-0.062194	-0.754302	-0.065834
41574	8.743376	1.618103	-0.075778	0.650663	-0.070680	-0.752535	-0.073033
41575	9.448678	1.598153	-0.073266	0.650378	-0.079486	-0.751094	-0.080919
41576	10.361634	2.552670	0.336908	0.650879	-0.087967	-0.748850	-0.088551
41577	10.745350	3.427547	0.588962	0.651218	-0.097712	-0.746215	-0.097621
41578	9.961774	2.889889	0.789118	0.651670	-0.108348	-0.742941	-0.107820
41579	8.903859	2.003903	0.734842	0.650166	-0.120464	-0.740638	-0.119280
41580	9.047347	1.438959	0.537640	0.647116	-0.133459	-0.739084	-0.131091
41581	9.254923	1.229665	0.240025	0.643592	-0.146899	-0.737436	-0.142825
41582	9.414604	1.365714	0.115027	0.639803	-0.160486	-0.735545	-0.154501
41583	9.436592	1.723382	0.419865	0.636130	-0.173434	-0.733362	-0.165645
41584	9.525324	2.001298	0.698680	0.631769	-0.186972	-0.731063	-0.177359
41585	9.643919	1.960214	0.171324	0.626637	-0.201092	-0.728747	-0.189249
41586	9.728488	1.717847	-0.308108	0.620167	-0.216251	-0.726656	-0.201495
41587	9.629621	0.994812	-1.213189	0.612220	-0.231564	-0.725269	-0.213423
41588	9.763650	0.777901	-2.394223	0.604148	-0.246181	-0.723681	-0.225135
41589	9.667936	0.815032	-1.833202	0.597161	-0.258726	-0.721867	-0.235303
41590	9.561467	1.550131	-0.547585	0.593349	-0.270503	-0.717096	-0.246045
41591	8.944001	1.831134	-0.974126	0.588299	-0.283866	-0.712270	-0.256894
41592	9.384515	0.921063	-1.789241	0.583182	-0.296956	-0.707421	-0.266967
41593	8.978806	0.301482	-0.721549	0.579011	-0.308652	-0.702201	-0.276396
41594	9.172876	0.200778	-0.819416	0.573798	-0.320042	-0.697917	-0.285026
41595	9.622790	0.287801	-0.705128	0.568942	-0.330686	-0.693529	-0.293205
41596	9.846074	0.423649	-0.278766	0.564630	-0.340322	-0.689205	-0.300617
41597	9.805332	0.440982	0.024070	0.560987	-0.349166	-0.684504	-0.307946
41598	9.459633	0.510110	0.007594	0.557224	-0.357430	-0.680173	-0.314818
41599	9.606165	0.765381	-0.024431	0.553450	-0.364862	-0.676085	-0.321680
41600	9.737447	0.487876	0.023689	0.549676	-0.371372	-0.672044	-0.329084
41601	10.175868	0.106837	-0.168826	0.545489	-0.376944	-0.668593	-0.336658
41602	10.687820	-0.240490	-0.511286	0.541644	-0.381071	-0.665287	-0.344674
41603	11.008408	-0.988557	-0.419013	0.538967	-0.382903	-0.662599	-0.351942
41604	10.816837	-0.525450	-0.310417	0.537701	-0.382509	-0.660790	-0.357661
41605	10.038380	-0.150749	-0.687019	0.536968	-0.381875	-0.658917	-0.362857
41606	9.622327	0.026253	-1.404557	0.536686	-0.381559	-0.656907	-0.367224
41607	10.179728	0.717341	-1.975177	0.536544	-0.381645	-0.654802	-0.371082
41608	11.371819	1.271880	-2.597078	0.537506	-0.381338	-0.651992	-0.374933
41609	11.501888	1.425921	-2.271895	0.539732	-0.380104	-0.648252	-0.379448
41610	11.441757	1.166332	-1.656362	0.540782	-0.380403	-0.644157	-0.384591
41611	11.207381	1.124060	-3.414124	0.541720	-0.380970	-0.640631	-0.388578
41612	10.447621	1.654304	-3.226519	0.542696	-0.382795	-0.635835	-0.393272
41613	9.651577	0.897364	-2.349210	0.542183	-0.387133	-0.630176	-0.398803
41614	10.143014	0.623216	-3.786046	0.540274	-0.393110	-0.624693	-0.404137
41615	9.700910	0.448337	-3.008398	0.539215	-0.398927	-0.617681	-0.410578
41616	10.007737	0.522372	-2.204902	0.536072	-0.406587	-0.610997	-0.417128
41617	10.576373	-0.031026	-2.340178	0.532967	-0.414066	-0.604012	-0.423869
41618	10.158212	-0.657941	-2.655363	0.529657	-0.421135	-0.597746	-0.429893
41619	9.592079	-0.880676	-2.428035	0.526335	-0.427663	-0.592270	-0.435077
41620	9.353848	-0.924834	-2.285402	0.523125	-0.433754	-0.587178	-0.439796
41621	9.111444	-0.914880	-2.291464	0.520285	-0.439266	-0.582437	-0.443978
41622	8.878411	-0.847143	-1.732723	0.517914	-0.444259	-0.577453	-0.448272
41623	8.609321	-0.429332	-1.612851	0.515108	-0.449338	-0.573072	-0.452048
41624	8.733524	-0.307864	-1.510054	0.511508	-0.455029	-0.568848	-0.455763
41625	9.089171	-0.097059	-1.187497	0.507022	-0.461552	-0.564392	-0.459738
41626	9.227381	-0.256561	-1.366645	0.502589	-0.467966	-0.559834	-0.463679
41627	9.074710	-0.233198	-1.182401	0.497684	-0.474805	-0.554859	-0.467977
41628	9.176631	-0.509926	-1.570496	0.491809	-0.482334	-0.549744	-0.472503
41629	9.232894	-0.354390	-1.292735	0.486383	-0.489257	-0.543739	-0.477920
41630	8.945633	-0.497392	-1.181162	0.480508	-0.496141	-0.537836	-0.483413
41631	8.780363	-0.513584	-1.199431	0.474339	-0.502886	-0.532021	-0.488939
41632	8.711322	-0.671008	-0.899300	0.467224	-0.510374	-0.526034	-0.494478
41633	9.316565	-0.668461	-1.283364	0.459559	-0.518395	-0.520178	-0.499486
41634	9.719341	-0.490246	-1.171994	0.452176	-0.525997	-0.513721	-0.504932
41635	9.514041	-0.717348	-0.922154	0.444678	-0.533463	-0.506722	-0.510796
41636	9.482303	-1.131730	-0.978687	0.436589	-0.540989	-0.499872	-0.516575
41637	9.171167	-1.412008	-1.055315	0.428723	-0.547744	-0.493872	-0.521789
41638	8.957958	-1.498302	-1.472223	0.421006	-0.554228	-0.489595	-0.525245
41639	9.300031	-1.364881	-1.212533	0.413190	-0.560997	-0.484950	-0.528564
41640	10.029848	-1.460167	-0.785176	0.405781	-0.567694	-0.479548	-0.532070
41641	10.416224	-1.811009	-0.844562	0.399138	-0.573714	-0.474185	-0.535435
41642	10.306269	-2.279611	-0.557288	0.393891	-0.578183	-0.469496	-0.538635
41643	10.189706	-2.427325	-1.028297	0.389215	-0.581768	-0.465940	-0.541257
41644	10.159994	-2.199657	-1.643757	0.385391	-0.584106	-0.462692	-0.544252
41645	9.497420	-1.804581	-1.367708	0.382039	-0.585679	-0.459123	-0.547935
41646	9.449758	-1.100916	-1.118883	0.378595	-0.587831	-0.456111	-0.550530
41647	9.637153	-0.620937	-0.936654	0.375281	-0.590223	-0.451791	-0.553792
41648	9.608324	-0.830968	-0.807939	0.371512	-0.593273	-0.446834	-0.557086
41649	9.602209	-1.714522	-1.106746	0.367570	-0.596476	-0.441916	-0.560196
41650	9.362189	-2.389205	-1.480169	0.364154	-0.599267	-0.437448	-0.562948
41651	9.015803	-2.547535	-1.575619	0.361722	-0.601311	-0.433838	-0.565126
41652	8.728576	-1.523197	-0.979851	0.360532	-0.602247	-0.431020	-0.567042
41653	8.638126	-0.547027	-1.360730	0.359273	-0.603558	-0.429207	-0.567823
41654	9.063029	0.449856	-1.347725	0.357931	-0.605311	-0.427670	-0.567963
41655	9.759210	0.543589	-1.501571	0.358893	-0.606108	-0.428097	-0.566182
41656	12.609660	2.912624	0.413175	0.361428	-0.607558	-0.428741	-0.562516
41657	15.917503	2.888557	-0.397410	0.360679	-0.613599	-0.421269	-0.562085
41658	11.675581	-0.213495	-4.639626	0.364125	-0.614563	-0.409180	-0.567712
41659	6.378020	-0.502427	-0.555281	0.368198	-0.612949	-0.398825	-0.574162
41660	6.760943	0.316386	1.227599	0.369092	-0.615706	-0.396232	-0.572431
41661	10.019903	2.139666	-0.776855	0.369071	-0.618911	-0.392682	-0.571434
41662	10.464273	1.901135	-1.029386	0.368173	-0.622062	-0.386519	-0.572792
41663	11.327432	1.860051	-0.551338	0.366780	-0.625202	-0.382012	-0.573289
41664	11.776808	2.678170	-1.143249	0.365133	-0.627067	-0.378088	-0.574904
41665	10.692591	3.067699	-0.903192	0.362585	-0.627937	-0.372719	-0.579057
41666	9.542443	3.414813	0.034700	0.358194	-0.629345	-0.366990	-0.583902
41667	9.695193	2.931577	-0.114374	0.350539	-0.632995	-0.361895	-0.587768
41668	10.321184	2.315496	-0.723690	0.341643	-0.636491	-0.357718	-0.591775
41669	10.384231	2.258566	-0.809954	0.331968	-0.639534	-0.353682	-0.596408
41670	9.972755	1.989883	-0.779503	0.322149	-0.642385	-0.349347	-0.601264
41671	9.274827	2.112058	-0.965921	0.312920	-0.644380	-0.344679	-0.606673
41672	8.751125	2.391088	-0.432268	0.304070	-0.645871	-0.339621	-0.612413
41673	8.465950	1.644549	-0.149232	0.294331	-0.648296	-0.334188	-0.617576
41674	8.678274	1.980567	0.088879	0.285055	-0.651257	-0.329253	-0.621450
41675	8.666757	1.396763	-0.638412	0.275217	-0.654962	-0.322673	-0.625430
41676	8.862613	1.645403	-0.798995	0.265590	-0.658925	-0.315656	-0.629001
41677	8.929079	1.632363	-1.126996	0.255614	-0.663593	-0.308040	-0.631995
41678	9.250956	1.802683	-1.040172	0.245694	-0.668716	-0.300422	-0.634192
41679	9.811828	1.171670	-1.291401	0.235942	-0.674038	-0.292711	-0.635865
41680	10.389029	0.988497	-1.682524	0.227173	-0.678612	-0.285500	-0.637470
41681	10.469825	0.828146	-1.878722	0.219208	-0.681783	-0.278455	-0.639986
41682	10.261578	0.594002	-1.497417	0.211879	-0.684128	-0.271882	-0.642772
41683	10.280818	0.420844	-1.030961	0.205577	-0.685924	-0.266237	-0.645263
41684	10.125943	0.564451	-1.153152	0.200048	-0.687123	-0.261028	-0.647848
41685	9.719622	1.440063	-0.897856	0.195015	-0.688160	-0.256601	-0.650047
41686	9.461985	0.871172	-1.148125	0.189357	-0.689651	-0.251847	-0.651995
41687	9.442616	0.656654	-1.359948	0.184079	-0.690887	-0.247457	-0.653877
41688	9.472272	0.520447	-1.361850	0.178933	-0.691808	-0.243208	-0.655923
41689	9.477350	0.514512	-0.951616	0.174423	-0.692443	-0.239092	-0.657977
41690	9.336738	0.631038	-1.108841	0.170520	-0.693019	-0.234943	-0.659886
41691	9.058481	0.573568	-1.291056	0.166862	-0.693586	-0.230703	-0.661719
41692	8.953728	0.413587	-1.530265	0.163700	-0.694222	-0.227166	-0.663064
41693	9.030633	0.459015	-1.744501	0.161475	-0.694689	-0.224333	-0.664084
41694	9.325373	0.578244	-1.805319	0.160228	-0.694863	-0.221890	-0.665024
41695	9.375240	0.638212	-1.674741	0.159890	-0.694692	-0.219835	-0.665966
41696	9.513105	0.851487	-1.566060	0.160101	-0.694789	-0.218058	-0.666398
41697	9.323926	0.980428	-1.670532	0.160947	-0.694739	-0.216360	-0.666800
41698	9.140698	1.106348	-1.799133	0.161895	-0.695083	-0.214699	-0.666748
41699	9.367460	1.288227	-1.661949	0.163333	-0.695429	-0.213402	-0.666453
41700	9.346085	1.704193	-1.199971	0.164713	-0.695478	-0.211678	-0.666612
41701	9.000017	1.917737	-1.223341	0.165626	-0.695965	-0.209392	-0.666600
41702	8.734307	2.091749	-1.783639	0.165795	-0.697263	-0.206461	-0.666115
41703	8.906527	2.116447	-1.983081	0.164991	-0.699362	-0.202976	-0.665185
41704	9.322035	1.832281	-2.131730	0.163307	-0.702213	-0.199031	-0.663788
41705	9.676447	1.594301	-2.414641	0.161084	-0.705465	-0.194912	-0.662103
41706	9.885801	1.475037	-2.148760	0.158184	-0.708476	-0.190418	-0.660894
41707	9.910287	1.010499	-1.779804	0.153973	-0.711601	-0.185413	-0.659953
41708	10.239541	0.713711	-1.962489	0.150291	-0.714745	-0.182153	-0.658310
41709	10.502116	0.642640	-2.444395	0.146374	-0.718190	-0.179765	-0.656096
41710	10.772551	0.400588	-2.407937	0.142889	-0.723113	-0.179596	-0.651487
41711	12.025114	0.422001	-1.482609	0.138750	-0.729457	-0.180125	-0.645133
41712	13.229952	-0.537976	-1.050848	0.135871	-0.732746	-0.180765	-0.641830
41713	12.944641	-0.826591	-1.034646	0.133528	-0.733797	-0.181399	-0.640942
41714	12.440072	-0.920817	-1.130425	0.131790	-0.733665	-0.182867	-0.641035
41715	11.292917	0.147510	-0.707559	0.131237	-0.732944	-0.185954	-0.641086
41716	10.056552	1.734948	-0.215517	0.129900	-0.733077	-0.188143	-0.640567
41717	9.180100	2.179125	-0.200898	0.126808	-0.734510	-0.187780	-0.639651
41718	9.217488	1.803400	-0.069735	0.122917	-0.736269	-0.185855	-0.638950
41719	8.903677	1.054336	0.815599	0.118294	-0.736952	-0.182523	-0.639995
41720	8.619372	0.175327	0.660754	0.113547	-0.738163	-0.179275	-0.640377
41721	8.561690	-0.440059	0.351582	0.109127	-0.739151	-0.175853	-0.640955
41722	8.543238	-0.725360	0.466804	0.105006	-0.740255	-0.172360	-0.641318
41723	9.000695	-0.526547	0.057756	0.101327	-0.741569	-0.169339	-0.641196
41724	9.353990	-0.097844	-0.116537	0.097715	-0.742394	-0.166241	-0.641612
41725	9.316220	0.158177	-0.045337	0.094184	-0.742966	-0.163131	-0.642276
41726	9.232148	-0.004837	-0.283069	0.090907	-0.743654	-0.160402	-0.642639
41727	9.286129	-0.359930	-0.396902	0.088019	-0.744290	-0.158104	-0.642875
41728	9.731085	-0.837337	-0.584563	0.085808	-0.744943	-0.156405	-0.642834
41729	10.162564	-1.012560	-0.565423	0.084649	-0.745225	-0.155525	-0.642874
41730	10.318312	-0.890954	-0.704010	0.084650	-0.745460	-0.155770	-0.642541
41731	10.172326	-0.416122	-0.722535	0.085490	-0.745660	-0.156735	-0.641963
41732	10.137912	-0.122574	-0.834752	0.086471	-0.746179	-0.157702	-0.640991
41733	10.176908	-0.042297	-0.813630	0.087524	-0.746631	-0.158453	-0.640136
41734	9.783956	-0.012808	-1.038469	0.089058	-0.746875	-0.159430	-0.639396
41735	9.196860	0.079644	-1.234884	0.090607	-0.747084	-0.160441	-0.638681
41736	8.937519	0.096510	-1.389630	0.091838	-0.747466	-0.161317	-0.637837
41737	9.227592	0.350266	-1.141153	0.092917	-0.747878	-0.161988	-0.637028
41738	9.350966	0.361738	-1.428417	0.093932	-0.748488	-0.162756	-0.635966
41739	9.295935	0.285273	-1.513369	0.094801	-0.748884	-0.163850	-0.635089
41740	9.379900	0.056281	-1.416146	0.095744	-0.749354	-0.165518	-0.633960
41741	9.782594	-0.113334	-1.570050	0.096995	-0.749701	-0.167577	-0.632818
41742	9.878121	-0.160965	-1.543813	0.098490	-0.749750	-0.169785	-0.631940
41743	9.605704	-0.118908	-1.361347	0.100096	-0.749625	-0.172174	-0.631188
