// Start Time: Unknown
// Update Rate: 60.0Hz
// Filter Profile: human (46.1)
// Option Flags: AHS Disabled ICC Disabled 
// Firmware Version: 4.3.5
PacketCounter	Acc_X	Acc_Y	Acc_Z	Quat_q0	Quat_q1	Quat_q2	Quat_q3
40913	-4.829587	-2.901038	8.027993	0.953943	-0.148654	0.260319	-0.011341
40914	-4.832178	-2.886877	8.090751	0.954038	-0.148245	0.260203	-0.011362
40915	-4.844917	-2.817051	8.078670	0.954139	-0.147833	0.260066	-0.011382
40916	-4.834563	-2.809983	8.100214	0.954221	-0.147478	0.259966	-0.011399
40917	-4.827530	-2.753953	8.157594	0.954275	-0.147196	0.259928	-0.011402
40918	-4.838967	-2.753906	8.094085	0.954295	-0.147007	0.259962	-0.011404
40919	-4.859815	-2.792601	8.080800	0.954321	-0.146845	0.259958	-0.011404
40920	-4.881811	-2.819802	8.034021	0.954357	-0.146689	0.259914	-0.011398
40921	-4.842166	-2.812241	8.015893	0.954432	-0.146451	0.259773	-0.011395
40922	-4.855889	-2.813883	8.061947	0.954539	-0.146174	0.259534	-0.011417
40923	-4.823655	-2.766314	8.097853	0.954655	-0.145870	0.259278	-0.011445
40924	-4.806960	-2.742386	8.164074	0.954736	-0.145652	0.259102	-0.011457
40925	-4.803786	-2.772305	8.141824	0.954787	-0.145512	0.258990	-0.011462
40926	-4.827295	-2.750226	8.131989	0.954812	-0.145423	0.258949	-0.011452
40927	-4.826263	-2.781900	8.107912	0.954820	-0.145359	0.258958	-0.011442
40928	-4.849993	-2.777337	8.085029	0.954842	-0.145278	0.258923	-0.011429
40929	-4.836757	-2.778190	8.090076	0.954862	-0.145197	0.258894	-0.011413
40930	-4.819038	-2.781521	8.081545	0.954894	-0.145102	0.258829	-0.011417
40931	-4.809400	-2.779357	8.100885	0.954929	-0.144986	0.258764	-0.011411
40932	-4.831149	-2.769227	8.124739	0.954960	-0.144898	0.258701	-0.011410
40933	-4.818476	-2.775041	8.084107	0.954988	-0.144811	0.258645	-0.011396
40934	-4.798584	-2.790117	8.109608	0.955022	-0.144732	0.258564	-0.011386
40935	-4.823676	-2.794136	8.135131	0.955059	-0.144617	0.258496	-0.011350
40936	-4.816769	-2.763418	8.132729	0.955091	-0.144516	0.258432	-0.011343
40937	-4.812604	-2.763526	8.119779	0.955124	-0.144382	0.258388	-0.011315
40938	-4.802254	-2.777900	8.126997	0.955161	-0.144289	0.258304	-0.011292
40939	-4.826621	-2.739201	8.129144	0.955195	-0.144178	0.258240	-0.011280
40940	-4.814367	-2.765380	8.170204	0.955226	-0.144082	0.258181	-0.011268
40941	-4.830583	-2.732458	8.144447	0.955248	-0.144027	0.258130	-0.011264
40942	-4.825521	-2.750592	8.119028	0.955272	-0.143980	0.258067	-0.011266
40943	-4.809232	-2.721196	8.134540	0.955290	-0.143932	0.258025	-0.011274
40944	-4.822404	-2.734334	8.117901	0.955300	-0.143914	0.258001	-0.011266
40945	-4.816773	-2.748137	8.137903	0.955304	-0.143918	0.257981	-0.011265
40946	-4.819783	-2.778532	8.127415	0.955316	-0.143884	0.257955	-0.011289
40947	-4.813197	-2.749400	8.124221	0.955332	-0.143847	0.257917	-0.011298
40948	-4.815604	-2.757555	8.172120	0.955346	-0.143820	0.257879	-0.011315
40949	-4.814240	-2.731247	8.136637	0.955358	-0.143814	0.257839	-0.011339
40950	-4.796713	-2.736194	8.127468	0.955367	-0.143802	0.257810	-0.011345
40951	-4.820099	-2.733138	8.104291	0.955373	-0.143818	0.257780	-0.011357
40952	-4.797812	-2.719288	8.139428	0.955384	-0.143840	0.257724	-0.011389
40953	-4.800584	-2.750782	8.128719	0.955379	-0.143890	0.257712	-0.011435
40954	-4.806213	-2.753987	8.096063	0.955381	-0.143920	0.257686	-0.011475
40955	-4.780772	-2.785569	8.140630	0.955383	-0.143953	0.257661	-0.011495
40956	-4.805148	-2.766387	8.129214	0.955376	-0.143991	0.257663	-0.011529
40957	-4.815948	-2.750089	8.122358	0.955372	-0.144044	0.257646	-0.011554
40958	-4.813169	-2.736693	8.120062	0.955361	-0.144108	0.257652	-0.011576
40959	-4.792646	-2.788158	8.119846	0.955352	-0.144169	0.257648	-0.011621
40960	-4.801245	-2.741802	8.122901	0.955320	-0.144282	0.257701	-0.011669
40961	-4.780419	-2.810538	8.110097	0.955303	-0.144354	0.257725	-0.011700
40962	-4.759616	-2.819284	8.086202	0.955286	-0.144403	0.257759	-0.011717
40963	-4.798833	-2.758526	8.140029	0.955279	-0.144424	0.257773	-0.011724
40964	-4.811937	-2.789214	8.110540	0.955276	-0.144425	0.257781	-0.011737
40965	-4.805960	-2.760630	8.106824	0.955278	-0.144426	0.257775	-0.011741
40966	-4.841085	-2.766309	8.112917	0.955291	-0.144411	0.257733	-0.011767
40967	-4.823747	-2.754309	8.116297	0.955318	-0.144393	0.257641	-0.011768
40968	-4.824756	-2.720138	8.141090	0.955342	-0.144373	0.257565	-0.011801
40969	-4.826546	-2.751076	8.131117	0.955365	-0.144410	0.257457	-0.011843
40970	-4.785574	-2.764734	8.099643	0.955392	-0.144420	0.257349	-0.011884
40971	-4.780040	-2.826300	8.098086	0.955431	-0.144385	0.257221	-0.011897
40972	-4.800611	-2.758027	8.110879	0.955472	-0.144336	0.257096	-0.011909
40973	-4.760776	-2.795901	8.115728	0.955520	-0.144277	0.256950	-0.011920
40974	-4.774248	-2.758110	8.136833	0.955572	-0.144194	0.256802	-0.011952
40975	-4.773131	-2.756665	8.137977	0.955599	-0.144148	0.256728	-0.011954
40976	-4.772913	-2.755733	8.138421	0.955612	-0.144121	0.256692	-0.011969
40977	-4.775909	-2.785817	8.128062	0.955622	-0.144086	0.256677	-0.011953
40978	-4.758250	-2.806540	8.106764	0.955631	-0.144008	0.256686	-0.011950
40979	-4.732602	-2.792852	8.128487	0.955661	-0.143877	0.256649	-0.011926
40980	-4.756009	-2.764759	8.164251	0.955692	-0.143716	0.256628	-0.011872
40981	-4.786796	-2.705219	8.191757	0.955710	-0.143548	0.256656	-0.011817
40982	-4.790090	-2.766753	8.156907	0.955699	-0.143462	0.256747	-0.011755
40983	-4.806219	-2.761307	8.151697	0.955703	-0.143317	0.256817	-0.011735
40984	-4.827417	-2.758365	8.114390	0.955699	-0.143218	0.256887	-0.011692
40985	-4.819574	-2.755314	8.132946	0.955730	-0.143040	0.256872	-0.011659
40986	-4.792845	-2.698062	8.131593	0.955763	-0.142892	0.256832	-0.011656
40987	-4.797260	-2.692498	8.146191	0.955795	-0.142762	0.256787	-0.011653
40988	-4.774400	-2.693149	8.169895	0.955816	-0.142688	0.256749	-0.011667
40989	-4.782007	-2.742323	8.115419	0.955824	-0.142661	0.256732	-0.011658
40990	-4.793842	-2.746153	8.189916	0.955795	-0.142769	0.256783	-0.011667
40991	-4.772515	-2.713185	8.142087	0.955770	-0.142849	0.256830	-0.011678
40992	-4.776767	-2.664946	8.176405	0.955711	-0.143049	0.256936	-0.011692
40993	-4.732557	-2.707871	8.195336	0.955617	-0.143309	0.257143	-0.011639
40994	-4.717037	-2.844825	8.144627	0.955477	-0.143678	0.257462	-0.011576
40995	-4.676541	-3.030114	8.125711	0.955336	-0.144010	0.257804	-0.011434
40996	-4.658493	-3.140448	8.164205	0.955199	-0.144174	0.258234	-0.011168
40997	-4.678085	-3.198343	8.151846	0.955084	-0.144101	0.258717	-0.010754
40998	-4.723201	-3.106354	8.152297	0.954970	-0.143678	0.259394	-0.010140
40999	-4.688945	-2.959361	8.216360	0.954882	-0.142933	0.260160	-0.009359
41000	-4.569134	-2.965821	8.291440	0.954725	-0.142205	0.261176	-0.008046
41001	-4.546042	-3.222947	8.369119	0.954411	-0.141788	0.262612	-0.005569
41002	-4.389589	-2.825813	8.903203	0.953802	-0.141481	0.265029	-0.002287
41003	-4.421827	-3.490262	8.851548	0.952710	-0.141285	0.269033	0.002071
41004	-4.348201	-3.059875	9.363563	0.950950	-0.141023	0.275229	0.007406
41005	-4.200324	-3.264373	9.792370	0.948100	-0.141074	0.284625	0.013875
41006	-4.084982	-3.701175	10.101938	0.943692	-0.141782	0.298077	0.022224
41007	-3.940476	-3.924950	10.403443	0.937114	-0.143327	0.316491	0.033289
41008	-4.095030	-4.588464	9.981392	0.927846	-0.145568	0.340080	0.047519
41009	-4.621829	-5.506924	9.600668	0.915609	-0.148298	0.367784	0.066356
41010	-8.585251	-5.494531	8.957843	0.901928	-0.153108	0.394015	0.088520
41011	-9.404286	-5.658487	8.376586	0.889371	-0.158180	0.414614	0.109968
41012	-7.270102	-4.166133	7.299138	0.878177	-0.159070	0.432221	0.129180
41013	-4.310812	-2.131884	8.475222	0.868088	-0.156721	0.448023	0.145390
41014	-5.028863	-5.836576	11.744497	0.862898	-0.155894	0.456054	0.152048
41015	3.143165	-4.696865	10.583940	0.863525	-0.156806	0.455915	0.147911
41016	4.068439	-0.364741	12.091099	0.865277	-0.159065	0.454621	0.138976
41017	2.060733	-0.973694	13.396954	0.869273	-0.162558	0.449498	0.126058
41018	1.080854	-1.639973	12.418113	0.876374	-0.161699	0.440509	0.108513
41019	-0.138476	-0.340188	11.783398	0.885480	-0.156237	0.428767	0.087606
41020	-2.013277	-0.216510	11.393336	0.895517	-0.149275	0.414138	0.065236
41021	-3.363255	-0.949400	10.948112	0.906065	-0.141571	0.396531	0.042038
41022	-4.557771	-2.006692	10.257324	0.916546	-0.133017	0.376721	0.018190
41023	-5.454570	-2.458865	9.958855	0.926284	-0.123515	0.355954	-0.006259
41024	-6.159405	-3.113888	9.616629	0.934726	-0.113746	0.335253	-0.030910
41025	-7.694235	-4.007065	9.664206	0.941786	-0.104212	0.314755	-0.055759
41026	-9.340971	-5.216251	9.590207	0.947767	-0.095629	0.293331	-0.080925
41027	-9.954540	-5.586011	9.143834	0.952926	-0.087708	0.270349	-0.105595
41028	-9.182061	-5.288954	8.236067	0.957315	-0.080580	0.246567	-0.127513
41029	-9.419603	-5.982296	6.043795	0.960926	-0.074852	0.223443	-0.145233
41030	-9.710567	-5.282720	3.992083	0.963346	-0.070532	0.203587	-0.159817
41031	-11.574010	-4.187017	2.468680	0.964144	-0.069851	0.188665	-0.173070
41032	-14.129752	-4.176840	0.973656	0.963572	-0.071464	0.177832	-0.186544
41033	-14.845706	-2.975185	-0.478993	0.962593	-0.071775	0.168776	-0.199443
41034	-14.881559	6.996063	-1.307979	0.961271	-0.080125	0.165352	-0.205421
41035	-16.640628	1.266299	-7.537446	0.959420	-0.099253	0.172907	-0.199411
41036	-0.196144	-7.584785	10.085580	0.959341	-0.111294	0.182367	-0.184445
41037	7.627257	-10.116140	5.692181	0.959351	-0.119302	0.195674	-0.164692
41038	-12.018850	-19.442434	3.094778	0.954877	-0.124259	0.219060	-0.157421
41039	-11.113144	-9.554850	9.939527	0.950155	-0.120910	0.239411	-0.158962
41040	-7.482836	4.598646	13.495365	0.946849	-0.118430	0.254181	-0.157618
41041	-7.975011	-0.839147	11.138711	0.943336	-0.121400	0.267592	-0.154189
41042	-10.331269	-7.095600	8.683930	0.941960	-0.121461	0.272925	-0.153201
41043	-6.018621	-4.323173	8.108200	0.941263	-0.121308	0.275370	-0.153232
41044	-5.857890	-4.640148	7.958621	0.940660	-0.121491	0.277170	-0.153546
41045	-5.577443	-4.062374	8.005594	0.940386	-0.121431	0.277983	-0.153800
41046	-5.336800	-2.972278	8.406794	0.940070	-0.121535	0.278884	-0.154016
41047	-5.156693	-2.751924	8.716143	0.939473	-0.122580	0.280356	-0.154161
41048	-4.968334	-2.548656	8.558669	0.938504	-0.124930	0.282473	-0.154309
41049	-4.952301	-3.187860	7.952361	0.937314	-0.127949	0.284932	-0.154547
41050	-4.844273	-3.080832	7.927264	0.936112	-0.130932	0.287429	-0.154709
41051	-4.543398	-3.543830	7.811381	0.934780	-0.134005	0.290176	-0.155007
41052	-4.977511	-2.651432	8.249339	0.933108	-0.136827	0.293776	-0.155833
41053	-5.300970	-1.952624	8.470561	0.930858	-0.138950	0.298557	-0.158304
41054	-5.197120	-2.237700	8.458873	0.927865	-0.139068	0.304359	-0.164595
41055	-5.548721	-1.134252	8.663203	0.923652	-0.134849	0.311190	-0.178445
41056	-5.823220	-0.273874	9.339266	0.917051	-0.126147	0.320147	-0.201522
41057	-5.431649	-0.034096	9.797391	0.907341	-0.113853	0.331214	-0.232522
41058	-5.421841	-1.350729	9.632023	0.894888	-0.101027	0.343417	-0.266521
41059	-6.506334	-1.875964	9.239068	0.879752	-0.092136	0.357269	-0.299843
41060	-6.930282	-2.797167	8.350877	0.862128	-0.085834	0.371916	-0.333237
41061	-7.710827	-1.741444	8.180323	0.842652	-0.079609	0.385401	-0.367513
41062	-8.494480	-0.848194	8.554210	0.822619	-0.078083	0.396407	-0.400078
41063	-6.745120	1.889539	11.504811	0.805234	-0.082379	0.401796	-0.428219
41064	-1.765887	19.182990	22.973097	0.806155	-0.087639	0.395469	-0.431322
41065	-19.996777	16.581378	30.258736	0.837228	-0.092501	0.363048	-0.398358
41066	-3.001069	0.507572	14.615672	0.879074	-0.091004	0.296505	-0.361983
41067	0.445890	-3.740988	7.496855	0.907475	-0.081504	0.240807	-0.334451
41068	1.283377	-1.787607	7.416035	0.923552	-0.075908	0.195554	-0.321011
41069	-3.398731	-0.062788	-0.580052	0.931300	-0.091862	0.174444	-0.306286
41070	-15.409792	-1.062258	5.276866	0.940917	-0.097022	0.160987	-0.281683
41071	-19.064164	2.779984	4.254797	0.953485	-0.112371	0.144437	-0.239536
41072	-14.946344	-0.832961	-3.553137	0.966969	-0.138758	0.126165	-0.172626
41073	-4.361656	-21.550395	-3.121340	0.976091	-0.159465	0.111817	-0.096506
41074	0.494912	-25.967545	-6.536404	0.977454	-0.172356	0.115047	-0.040514
41075	-7.874889	-23.272154	-2.385921	0.974331	-0.181834	0.132150	-0.012347
41076	-5.865485	-11.089369	4.696435	0.969369	-0.190986	0.154400	-0.003092
41077	-5.137839	-3.866840	8.049140	0.962614	-0.204186	0.177968	-0.003222
41078	-12.206665	-9.310709	7.591489	0.956108	-0.216321	0.197529	-0.006668
41079	-8.151148	-9.651872	7.148501	0.951448	-0.222883	0.212032	-0.010564
41080	-11.019066	-7.578723	9.151976	0.948899	-0.223586	0.222282	-0.013780
41081	-7.920378	-3.881740	9.618217	0.948511	-0.222025	0.225453	-0.014217
41082	-6.122254	-3.065028	9.355531	0.948343	-0.221472	0.226664	-0.014793
41083	-6.028817	-0.998304	10.645240	0.947874	-0.223392	0.226715	-0.015203
41084	-5.370629	-2.439829	9.217057	0.947111	-0.227835	0.225437	-0.015840
41085	-3.711479	-1.014588	9.315541	0.946054	-0.233682	0.223932	-0.015139
41086	-1.760782	-0.610618	8.389888	0.944381	-0.240911	0.223583	-0.010866
41087	3.046546	-2.811953	5.289281	0.942030	-0.246640	0.227475	-0.001844
41088	-0.291395	-11.575094	1.768021	0.938892	-0.247259	0.239356	0.007307
41089	-7.992396	-12.388718	4.256599	0.937404	-0.239057	0.253062	0.009240
41090	-9.978984	-0.357066	10.946696	0.936836	-0.234429	0.259344	0.011082
41091	-4.744561	-6.556640	6.328432	0.936595	-0.230464	0.263690	0.011987
41092	-5.213406	-3.414488	8.187190	0.936741	-0.225943	0.266994	0.013389
41093	-4.502037	-5.153683	6.426494	0.937158	-0.221417	0.269210	0.015315
41094	-5.262224	-4.823746	6.642125	0.938230	-0.214260	0.271078	0.018265
41095	-5.689188	-3.789241	7.578806	0.939805	-0.206531	0.271440	0.020771
41096	-5.665770	-3.661835	7.914479	0.941217	-0.199737	0.271482	0.022629
41097	-4.699343	-4.673149	7.641311	0.942290	-0.193881	0.271812	0.024874
41098	-3.899104	-5.245201	7.640774	0.943176	-0.188810	0.271971	0.028299
41099	-5.252702	-4.291069	7.552256	0.943945	-0.184789	0.271516	0.033151
41100	-6.898602	-3.151454	6.787648	0.945253	-0.181280	0.268912	0.036333
41101	-5.563271	-3.297776	7.631715	0.947162	-0.176690	0.265002	0.037941
41102	-4.502097	-4.471973	8.120145	0.949211	-0.171094	0.261112	0.039320
41103	-4.881915	-3.294194	8.342279	0.951010	-0.164776	0.258327	0.041181
41104	-4.618076	-2.484180	8.764154	0.952291	-0.158712	0.256964	0.043841
41105	-5.129607	-1.236354	8.939336	0.952739	-0.153837	0.257773	0.046636
41106	-4.810074	-1.170347	9.257652	0.952584	-0.149604	0.260524	0.048272
41107	-4.896997	-1.579508	9.002158	0.952059	-0.144085	0.265811	0.046560
41108	-4.483314	-0.249709	9.372002	0.951548	-0.135263	0.273204	0.040256
41109	-5.190456	1.411450	8.870462	0.951137	-0.124997	0.280886	0.028599
41110	-5.400028	2.688884	8.818669	0.950852	-0.113731	0.287827	0.010043
41111	-5.603590	2.813904	8.379324	0.950292	-0.101402	0.293908	-0.016757
41112	-4.864380	2.884320	7.763991	0.949006	-0.087773	0.298283	-0.052066
41113	-4.635216	2.351226	8.486125	0.946524	-0.075769	0.299987	-0.091429
41114	-4.209382	-2.286734	8.257844	0.943212	-0.064937	0.299276	-0.128716
41115	-5.336772	-6.323592	7.070553	0.939642	-0.059326	0.297778	-0.157737
41116	-4.820222	-10.758039	6.665679	0.937343	-0.058237	0.295822	-0.174600
41117	-4.862121	-11.764042	6.395021	0.937541	-0.060356	0.293133	-0.177333
41118	-4.734401	-6.857815	7.708708	0.939470	-0.062312	0.290219	-0.171135
41119	-5.703753	-0.275035	7.325653	0.941637	-0.062812	0.286563	-0.165091
41120	-5.401229	0.935897	8.618831	0.943319	-0.062459	0.282224	-0.163088
41121	-4.992767	-0.439306	8.817347	0.944100	-0.062046	0.278853	-0.164517
41122	-5.203858	-2.048564	7.783694	0.944723	-0.061679	0.275400	-0.166880
41123	-4.907928	-2.647804	8.110776	0.945524	-0.061278	0.271345	-0.169121
41124	-4.569849	-1.149252	9.630477	0.945929	-0.061544	0.268438	-0.171383
41125	-4.387241	-2.260366	9.555031	0.945810	-0.063390	0.267661	-0.172577
41126	-4.755732	-2.144326	9.041619	0.945457	-0.066237	0.268210	-0.172588
41127	-4.984598	-2.071343	8.606618	0.944842	-0.069602	0.269607	-0.172458
41128	-4.937067	-2.276979	8.415622	0.944073	-0.073564	0.271346	-0.172297
41129	-4.964237	-4.616994	7.847840	0.943279	-0.077149	0.273717	-0.171326
41130	-5.185696	-5.196031	7.892558	0.942942	-0.078836	0.276248	-0.168320
41131	-7.047855	-2.740047	7.967643	0.943106	-0.081751	0.279105	-0.161148
41132	-8.369843	0.890412	8.122523	0.944126	-0.090986	0.280453	-0.147292
41133	-14.904538	3.224602	3.224397	0.945971	-0.105267	0.279821	-0.125528
41134	-20.497931	4.036266	1.919396	0.948380	-0.122581	0.275017	-0.099570
41135	-14.078228	-3.468541	-3.213692	0.949669	-0.144615	0.268037	-0.073285
41136	-12.311974	-13.213382	-3.233208	0.948811	-0.160586	0.267731	-0.047842
41137	-5.838524	-4.981686	7.664073	0.948338	-0.168333	0.267235	-0.030092
41138	-0.319573	-5.910709	10.600845	0.947067	-0.176235	0.267840	-0.016351
41139	7.269074	-5.968539	14.222521	0.946302	-0.181978	0.267145	-0.005508
41140	17.964676	-5.439505	19.545661	0.947100	-0.183112	0.263573	0.000166
41141	11.469676	-5.615539	15.224456	0.947582	-0.183528	0.261537	0.002074
41142	-11.467393	-4.844143	5.352014	0.948222	-0.181095	0.260894	0.003760
41143	-4.344762	-4.086690	8.681086	0.949117	-0.179377	0.258795	0.005053
41144	-4.917030	-2.909594	8.614615	0.949885	-0.177883	0.256977	0.006248
41145	-4.825443	-3.379467	8.013838	0.950450	-0.176465	0.255839	0.007129
41146	-4.712555	-3.728217	7.592179	0.951066	-0.174468	0.254900	0.007796
41147	-5.086116	-3.349028	8.071798	0.951665	-0.172415	0.254045	0.008212
41148	-4.887191	-3.529220	7.886313	0.952145	-0.170701	0.253404	0.008260
41149	-4.798324	-3.844688	7.824610	0.952595	-0.168877	0.252936	0.008156
41150	-5.018558	-3.626767	8.089363	0.953053	-0.166974	0.252473	0.008223
41151	-5.153451	-2.972838	8.202417	0.953459	-0.165865	0.251653	0.008677
41152	-5.117651	-3.185608	8.534203	0.953656	-0.165540	0.251105	0.009141
41153	-5.650956	-2.859772	9.131472	0.953604	-0.166568	0.250595	0.009858
41154	-5.260153	-1.414068	9.283773	0.953501	-0.168783	0.249461	0.010804
41155	-4.955817	0.103734	9.459498	0.953715	-0.170540	0.247279	0.014033
41156	-5.001302	0.662183	9.939077	0.954483	-0.171760	0.242849	0.022028
41157	-5.123666	1.926572	9.391336	0.955486	-0.171882	0.236878	0.037301
41158	-5.790321	4.304040	9.705293	0.956170	-0.171749	0.228357	0.063982
41159	-5.733341	1.416199	7.649079	0.955113	-0.172719	0.219342	0.099080
41160	-6.261015	-2.176212	6.758355	0.952118	-0.174197	0.211152	0.136167
41161	-4.809677	-1.507744	6.285253	0.947105	-0.176037	0.204753	0.173434
41162	-5.113751	-0.324880	6.964750	0.939977	-0.179047	0.200312	0.210384
41163	-4.872883	-0.371140	5.973863	0.931110	-0.184714	0.196136	0.245857
41164	-3.440258	-3.720483	6.171290	0.921574	-0.195535	0.192354	0.274713
41165	-3.243986	-21.374298	7.510254	0.915651	-0.209723	0.189423	0.285864
41166	-5.994592	-9.805784	6.056836	0.914097	-0.212498	0.190390	0.288138
41167	-5.204364	-4.115381	7.812684	0.912415	-0.213814	0.191531	0.291717
41168	-5.534186	-3.992569	7.674235	0.911277	-0.213864	0.193272	0.294078
41169	-5.727338	-3.061952	7.917534	0.911243	-0.212060	0.193452	0.295371
41170	-4.101742	-4.987708	7.933510	0.911603	-0.208331	0.193618	0.296802
41171	-5.156334	-5.325603	7.225037	0.912222	-0.201853	0.194836	0.298571
41172	-4.891400	-4.386472	7.891289	0.913595	-0.191359	0.196227	0.300369
41173	-4.867731	-2.576055	8.231555	0.914111	-0.180072	0.198084	0.304529
41174	-4.708353	-2.228357	8.056487	0.914231	-0.168770	0.199992	0.309357
41175	-5.091586	-0.728127	8.020398	0.914473	-0.156934	0.201238	0.314028
41176	-4.235776	0.230565	9.004017	0.915174	-0.145651	0.202403	0.316663
41177	-4.219357	0.285569	8.975125	0.916065	-0.136303	0.203907	0.317282
41178	-4.219185	-1.944916	8.471866	0.916631	-0.127431	0.205658	0.318203
41179	-4.239804	-1.704046	8.330399	0.916719	-0.117491	0.207758	0.320405
41180	-3.955664	-1.090968	8.502210	0.916430	-0.106429	0.209832	0.323728
41181	-4.095254	0.053686	8.643154	0.915725	-0.095439	0.211826	0.327824
41182	-4.792147	0.323312	8.725664	0.914744	-0.084403	0.213476	0.332488
41183	-4.447924	1.118731	9.789703	0.913583	-0.074369	0.215385	0.336816
41184	-4.858055	0.844896	9.724534	0.912205	-0.066175	0.218208	0.340422
41185	-5.306073	2.079460	9.229247	0.910882	-0.060444	0.220998	0.343222
41186	-4.735312	3.133398	9.602998	0.909841	-0.058801	0.223198	0.344839
41187	-4.113143	2.996545	10.577832	0.909155	-0.061234	0.226347	0.344171
41188	-3.931313	2.527121	10.859361	0.908630	-0.068057	0.232261	0.340315
41189	-4.378892	0.251404	9.487069	0.907606	-0.077486	0.240124	0.335542
41190	-4.263973	0.057789	9.292615	0.905782	-0.087558	0.249053	0.331458
41191	-4.522848	0.835739	9.111728	0.903266	-0.098454	0.259436	0.327278
41192	-4.972773	-0.171241	8.192900	0.900526	-0.109185	0.270373	0.322536
41193	-5.694956	-0.238547	7.121448	0.898121	-0.118515	0.280326	0.317413
41194	-6.155245	-0.962855	6.195368	0.896156	-0.126387	0.287920	0.313103
41195	-6.071218	-0.462427	7.022492	0.894849	-0.132584	0.294041	0.308557
41196	-6.005973	0.610952	7.934437	0.894360	-0.136574	0.300918	0.301523
41197	-5.619965	-0.296914	7.897250	0.894667	-0.137904	0.309405	0.291241
41198	-6.621941	-0.600709	6.503438	0.895644	-0.136925	0.317796	0.279424
41199	-6.598853	-1.074130	6.523523	0.897309	-0.133714	0.324944	0.267149
41200	-6.572940	-2.047705	6.498528	0.899524	-0.128784	0.330722	0.254745
41201	-7.191729	-1.941207	5.440951	0.902219	-0.122407	0.334201	0.243570
41202	-7.443235	-1.263715	5.071668	0.905620	-0.115476	0.333888	0.234597
41203	-7.213202	-1.129126	5.230026	0.909530	-0.109692	0.329263	0.228712
41204	-6.246804	-0.947175	7.490563	0.913160	-0.106537	0.321948	0.226138
41205	-4.641807	-0.609766	10.434082	0.915496	-0.105419	0.315961	0.225660
41206	-3.875785	-0.682194	12.414022	0.915402	-0.106243	0.315874	0.225777
41207	-2.988052	-1.491324	14.254793	0.911794	-0.108776	0.324926	0.226326
41208	-2.976094	-2.688631	14.807234	0.903464	-0.111849	0.344993	0.228523
41209	-2.961752	-2.742812	14.802489	0.889831	-0.112583	0.376201	0.232375
41210	-6.147289	-2.603993	12.802729	0.871019	-0.110494	0.416134	0.236536
41211	-7.725313	-2.359427	10.325450	0.849626	-0.106102	0.458587	0.237857
41212	-5.613084	-2.814854	7.030490	0.826355	-0.100334	0.500286	0.238295
41213	-6.920990	-3.320702	4.018581	0.801724	-0.094362	0.539237	0.239913
41214	-8.206432	-1.482462	2.570386	0.776259	-0.090226	0.574090	0.244339
41215	-14.302403	-1.275474	2.015346	0.753295	-0.090268	0.600770	0.251941
41216	-11.659969	0.244416	-0.688849	0.738743	-0.087216	0.616405	0.258257
41217	-16.651850	-9.401603	14.020359	0.742916	-0.084344	0.614396	0.251950
41218	3.697414	-7.616809	11.096055	0.760747	-0.080457	0.601148	0.231109
41219	1.319203	-0.932097	14.088658	0.780219	-0.077543	0.585723	0.205364
41220	2.426532	-0.447355	14.064859	0.802723	-0.077271	0.564748	0.175286
41221	4.824134	0.505331	13.055267	0.826061	-0.073845	0.540321	0.142209
41222	4.211526	0.999466	13.076721	0.848500	-0.064553	0.513846	0.108822
41223	-1.359551	2.858732	15.272878	0.870577	-0.054121	0.482832	0.077715
41224	-4.821173	1.091435	13.535178	0.894100	-0.047888	0.442378	0.050919
41225	-4.969082	-4.486233	10.292477	0.916294	-0.040805	0.397329	0.029496
41226	-10.346455	-8.071828	10.637327	0.934184	-0.030525	0.355342	0.010030
41227	-17.076323	-7.203560	10.576308	0.947347	-0.023946	0.319027	-0.013470
41228	-18.481189	-8.276963	8.449114	0.956570	-0.023422	0.287526	-0.041880
41229	-14.454614	-6.467260	6.523756	0.962485	-0.023962	0.260669	-0.071408
41230	-11.478423	-1.320220	8.072913	0.965703	-0.028376	0.239157	-0.097035
41231	-11.172973	0.742335	8.139955	0.967518	-0.040156	0.221001	-0.115994
41232	-16.726065	1.629540	7.853953	0.969437	-0.059335	0.201060	-0.127459
41233	-15.860692	1.213069	3.207420	0.972855	-0.082657	0.173171	-0.129355
41234	-16.159958	0.588732	-7.279600	0.975609	-0.107779	0.149465	-0.119297
41235	-24.309152	-5.230368	-15.285659	0.976390	-0.127507	0.134529	-0.110937
41236	-9.611650	-8.529559	-21.112420	0.970928	-0.147033	0.142284	-0.124242
41237	3.396852	-18.774042	14.114534	0.963285	-0.149092	0.176038	-0.137344
41238	-20.892841	-2.358976	15.678603	0.955314	-0.148263	0.206724	-0.150529
41239	-12.153348	2.615814	15.679331	0.950032	-0.148843	0.224618	-0.157581
41240	-4.578340	1.665867	9.749187	0.944980	-0.154776	0.239684	-0.160027
41241	-6.043005	-2.368547	9.454977	0.939596	-0.162352	0.254891	-0.160720
41242	-8.563995	-8.740136	8.781611	0.936987	-0.163876	0.264013	-0.159681
41243	-4.637737	-6.632055	7.199324	0.935693	-0.161361	0.271253	-0.157680
41244	-5.157925	-6.823155	6.828397	0.935365	-0.155330	0.277023	-0.155639
41245	-5.967989	-4.079261	8.506421	0.935794	-0.146916	0.280780	-0.154494
41246	-6.379268	-2.792478	8.603992	0.935986	-0.141109	0.283379	-0.153996
41247	-5.689103	-3.319427	7.978094	0.935703	-0.138242	0.286181	-0.153131
41248	-5.068901	-3.700928	7.961203	0.935216	-0.137128	0.289311	-0.151219
41249	-4.550931	-4.126869	8.010894	0.935090	-0.137701	0.291797	-0.146631
41250	-4.273254	-4.452887	6.792891	0.936133	-0.139958	0.291582	-0.138011
41251	-6.905018	-2.759327	5.387139	0.938230	-0.139952	0.288109	-0.130885
41252	-5.095187	-3.137738	8.049380	0.939686	-0.137675	0.285173	-0.129278
41253	-4.987829	-3.731158	7.692395	0.940779	-0.134984	0.283249	-0.128388
41254	-4.899293	-3.259657	8.093250	0.941694	-0.132402	0.281808	-0.127543
41255	-4.740985	-4.237043	7.797770	0.942616	-0.129443	0.280512	-0.126621
41256	-3.917579	-6.291286	7.736376	0.943828	-0.124661	0.279443	-0.124741
41257	-4.132262	-5.768741	7.422517	0.945441	-0.118918	0.278633	-0.119851
41258	-4.811742	-3.271015	7.871206	0.947533	-0.112782	0.277211	-0.112318
41259	-5.359657	-1.604234	8.205648	0.949474	-0.106819	0.275692	-0.105275
41260	-5.479608	-0.985178	8.116051	0.951066	-0.101344	0.274225	-0.100018
41261	-5.559762	-0.247794	8.352675	0.952330	-0.096016	0.272820	-0.097044
41262	-5.008356	-0.244935	8.469587	0.953309	-0.091249	0.271342	-0.096174
41263	-4.947785	-1.479859	7.853774	0.954175	-0.087107	0.269575	-0.096391
41264	-4.860893	-1.666383	7.882880	0.955256	-0.081961	0.266908	-0.097615
41265	-5.345867	0.201021	8.096699	0.956222	-0.078296	0.263938	-0.099223
41266	-4.924134	-0.505141	8.806421	0.956852	-0.076714	0.261240	-0.101499
41267	-4.757264	-1.339065	9.060854	0.957022	-0.074982	0.259710	-0.105060
41268	-4.176789	-1.840569	9.569862	0.956657	-0.071337	0.259818	-0.110514
41269	-3.997363	-1.067274	9.987087	0.955609	-0.064794	0.261968	-0.118266
41270	-4.110719	-0.810695	10.001641	0.953597	-0.057423	0.266818	-0.127138
41271	-4.214776	-0.771234	9.899486	0.950583	-0.049174	0.273945	-0.137577
41272	-4.668747	0.621463	10.237527	0.946609	-0.040371	0.282407	-0.150160
41273	-4.888105	1.511473	10.335712	0.940941	-0.031429	0.292973	-0.166761
41274	-5.371259	2.038555	8.873502	0.933374	-0.019565	0.304244	-0.189382
41275	-4.526090	1.676386	8.847933	0.923579	-0.002848	0.314209	-0.219697
41276	-3.770419	0.552059	9.020988	0.911341	0.018351	0.322129	-0.255644
41277	-4.212933	-1.167777	8.570534	0.897206	0.040009	0.328149	-0.292813
41278	-4.498164	-3.175615	7.882157	0.882208	0.060800	0.331649	-0.328666
41279	-4.693753	-3.102334	7.763575	0.866842	0.079714	0.333173	-0.362253
41280	-5.015978	-1.989516	7.801972	0.850195	0.097778	0.334054	-0.394989
41281	-5.135515	-1.553684	7.966190	0.831132	0.117293	0.334702	-0.428295
41282	-5.485603	-0.728443	7.187533	0.810403	0.137290	0.334319	-0.461116
41283	-6.241049	-0.469534	7.587174	0.789679	0.153319	0.335554	-0.490207
41284	-5.993427	-5.045065	7.492197	0.770076	0.169055	0.336398	-0.515014
41285	-6.402360	-4.286709	6.958271	0.752926	0.183717	0.336339	-0.535002
41286	-7.013529	-3.449922	6.488082	0.740410	0.193416	0.337165	-0.548364
41287	-6.982367	-5.155458	6.509054	0.732639	0.198696	0.340041	-0.555096
41288	-6.802922	-5.087056	6.498749	0.728973	0.201561	0.343316	-0.556871
41289	-7.068996	-4.318121	6.115442	0.728438	0.203441	0.345831	-0.555329
41290	-7.044489	-3.508519	6.347554	0.729994	0.205460	0.347081	-0.551752
41291	-6.917011	-2.526160	6.877701	0.732772	0.208753	0.347472	-0.546563
41292	-7.189697	-1.108168	6.961084	0.735763	0.213040	0.347753	-0.540680
41293	-7.195575	-0.111970	6.846105	0.737919	0.217900	0.348290	-0.535435
41294	-7.421677	1.510369	6.751286	0.738695	0.222698	0.349151	-0.531817
41295	-7.547890	1.355964	6.452221	0.738307	0.226551	0.350703	-0.529703
41296	-7.583526	0.812881	6.254937	0.737446	0.229051	0.352878	-0.528381
41297	-7.644731	-0.235966	5.802900	0.737079	0.230079	0.355165	-0.526913
41298	-7.497748	-1.297913	5.803447	0.737766	0.230112	0.356725	-0.524878
41299	-7.546091	-2.467468	5.820770	0.740033	0.229674	0.357360	-0.521436
41300	-7.535151	-2.304819	5.769672	0.744458	0.228584	0.356985	-0.515843
41301	-7.324352	-2.353371	6.459672	0.751383	0.226097	0.356541	-0.507131
41302	-7.089644	-2.989453	6.445177	0.760373	0.222664	0.356248	-0.495319
41303	-7.140551	-1.943586	6.744503	0.771318	0.217499	0.356192	-0.480510
41304	-7.046488	-0.445569	6.451554	0.784707	0.207851	0.356910	-0.462222
41305	-6.853128	-0.688773	6.918933	0.800824	0.191666	0.358609	-0.439709
41306	-6.251613	0.201206	7.486912	0.819367	0.168960	0.360827	-0.412183
41307	-5.272174	-2.146222	9.206831	0.839194	0.140881	0.364161	-0.378541
41308	-4.444600	-1.769671	10.052459	0.858649	0.111016	0.367424	-0.339702
41309	-3.998049	-2.754290	10.793676	0.876440	0.079018	0.371425	-0.296061
41310	-4.483096	-1.408987	9.845638	0.891777	0.044642	0.375123	-0.249045
41311	-4.851006	-0.048422	9.407937	0.904258	0.006922	0.377232	-0.199915
41312	-4.362133	-0.184313	8.974585	0.913693	-0.031179	0.376276	-0.150362
41313	-6.068082	1.387302	8.000655	0.919728	-0.066015	0.372839	-0.103601
41314	-6.900033	2.412556	6.821667	0.922586	-0.097423	0.368069	-0.062196
41315	-7.769910	4.046835	6.776334	0.923039	-0.121154	0.363877	-0.030249
41316	-9.177979	5.268298	5.130418	0.922609	-0.137022	0.360400	-0.011421
41317	-9.577923	3.846841	4.275511	0.922673	-0.146420	0.356658	-0.005622
41318	-8.085119	-1.259152	5.459572	0.923553	-0.153223	0.351454	-0.007292
41319	-6.040739	-6.354744	5.067400	0.925413	-0.159070	0.343833	-0.009266
41320	-5.424559	-7.548348	5.995468	0.928618	-0.163429	0.333014	-0.007834
41321	-5.737081	-3.516364	7.415019	0.932379	-0.167081	0.320534	-0.003459
41322	-6.577437	-0.684025	7.903833	0.936157	-0.170364	0.307550	0.000101
41323	-6.574098	-2.652383	6.915038	0.940054	-0.172971	0.293902	0.000710
41324	-3.581286	-5.920298	9.121795	0.944054	-0.172139	0.281302	-0.000151
41325	-3.162689	-4.594211	11.336730	0.946262	-0.170318	0.274918	-0.000073
41326	-4.048605	-3.032742	10.379678	0.946382	-0.169368	0.275092	0.000497
41327	-4.800865	-3.745850	8.161061	0.945615	-0.168415	0.278291	0.001403
41328	-5.547304	-3.787027	6.714093	0.945179	-0.166456	0.280931	0.002588
41329	-6.100831	-2.831903	6.542942	0.945474	-0.163530	0.281649	0.003340
41330	-5.991994	-3.034628	6.383263	0.946564	-0.160040	0.279989	0.003293
41331	-5.606581	-3.451915	6.830285	0.948400	-0.155866	0.276105	0.003111
41332	-5.365539	-3.134045	7.246688	0.950687	-0.151187	0.270793	0.002754
41333	-4.847329	-1.543473	8.666101	0.953007	-0.146744	0.265024	0.002362
41334	-4.582715	-2.128928	9.340894	0.954343	-0.144466	0.261448	0.002075
41335	-4.949463	-2.885745	8.053296	0.955137	-0.142973	0.259361	0.002079
41336	-5.671374	-1.672454	7.572982	0.956066	-0.141963	0.256477	0.001866
41337	-5.440671	-0.190565	8.183030	0.957004	-0.143130	0.252303	0.000557
41338	-4.093990	-2.767856	8.936101	0.957512	-0.145392	0.249057	-0.001411
41339	-3.370127	-5.473907	8.857666	0.957935	-0.145472	0.247371	-0.002323
41340	-4.562622	-2.527724	8.371718	0.958242	-0.144517	0.246738	-0.002577
41341	-4.762993	-2.539806	8.183682	0.958446	-0.143610	0.246472	-0.002980
41342	-4.655648	-2.690701	8.193870	0.958639	-0.142630	0.246283	-0.003625
41343	-4.562985	-3.352184	8.092547	0.958943	-0.141146	0.245945	-0.004176
41344	-4.761482	-3.422008	8.084340	0.959369	-0.139097	0.245445	-0.004464
41345	-4.732948	-2.365599	8.294045	0.959835	-0.136593	0.245025	-0.004698
41346	-4.259039	-2.535934	8.466336	0.960278	-0.134191	0.244608	-0.005147
41347	-4.597139	-1.807415	8.454258	0.960613	-0.132198	0.244360	-0.005963
41348	-4.329849	-2.306764	8.463654	0.960973	-0.130156	0.244010	-0.007056
41349	-4.690100	-1.850243	8.484804	0.961353	-0.128440	0.243394	-0.007906
41350	-4.612659	-2.334531	8.621236	0.961596	-0.127658	0.242839	-0.008138
41351	-4.655797	-2.155039	8.555013	0.961650	-0.127452	0.242723	-0.008365
41352	-4.622156	-2.683775	8.271663	0.961701	-0.127334	0.242579	-0.008490
41353	-4.580510	-2.448282	8.354397	0.961793	-0.127181	0.242296	-0.008525
41354	-4.491456	-2.808650	8.251480	0.961878	-0.127049	0.242025	-0.008501
41355	-4.540904	-2.299428	8.538479	0.961936	-0.126954	0.241849	-0.008425
41356	-4.397499	-1.319341	9.011595	0.961706	-0.128236	0.242085	-0.008431
41357	-4.237038	-0.421601	9.685444	0.960874	-0.132309	0.243182	-0.008819
41358	-4.271163	-1.500929	9.488164	0.959112	-0.139348	0.246158	-0.009615
41359	-5.053432	-3.920539	8.422708	0.956982	-0.146020	0.250520	-0.010218
41360	-6.396579	-2.592700	8.629679	0.954774	-0.151793	0.255385	-0.011967
41361	-8.482516	-3.421290	7.403923	0.951880	-0.158324	0.261815	-0.017637
41362	-15.613948	0.409453	6.143219	0.949250	-0.165998	0.265540	-0.029293
41363	-24.210336	2.249119	-2.010750	0.946014	-0.181648	0.265142	-0.041972
41364	-23.881702	4.436682	-4.485505	0.943339	-0.197235	0.263618	-0.041418
41365	-24.970435	5.908005	-1.803827	0.941720	-0.212644	0.259708	-0.022286
41366	-22.947908	-0.062102	-2.884253	0.940000	-0.226149	0.255258	0.009964
41367	-21.447483	-8.070109	-2.453826	0.937964	-0.233594	0.251926	0.046810
41368	-13.329253	-7.736406	0.258520	0.935141	-0.234021	0.252914	0.082343
41369	-10.620128	-7.905505	3.010026	0.929532	-0.233344	0.261338	0.114990
41370	-7.216415	-9.159214	4.209032	0.922323	-0.230480	0.275646	0.142192
41371	-4.123261	-6.624832	6.337666	0.913236	-0.226568	0.296163	0.164177
41372	-3.301906	-5.483444	8.553630	0.901967	-0.224700	0.320096	0.183043
41373	-4.389171	-5.450922	10.203195	0.889240	-0.225052	0.343738	0.201119
41374	-5.417482	-5.562389	10.625527	0.876943	-0.223985	0.364315	0.219262
41375	-3.850411	-3.571462	9.806339	0.865647	-0.221133	0.380273	0.239058
41376	-3.769777	-2.623579	8.310471	0.852793	-0.218004	0.395767	0.261891
41377	-2.420772	-4.335520	7.249220	0.838364	-0.214205	0.412835	0.284307
41378	-4.596575	-3.917917	9.829004	0.822582	-0.211367	0.431964	0.303463
41379	-1.972195	-5.205065	10.994197	0.807964	-0.210404	0.448269	0.319343
41380	-1.169154	-5.164254	12.418092	0.794780	-0.209184	0.461612	0.333887
41381	-0.754627	-7.190095	12.467275	0.785527	-0.206824	0.468206	0.347784
41382	1.164753	-7.424710	11.477121	0.781042	-0.201345	0.468874	0.359987
41383	-0.181399	-10.268610	11.303403	0.783184	-0.200512	0.461627	0.365129
41384	-1.861594	-16.230302	3.156834	0.793267	-0.209542	0.450217	0.352313
41385	-14.141617	0.149466	4.869058	0.802486	-0.217042	0.440523	0.338894
41386	-13.510803	-5.354863	8.875167	0.814615	-0.228569	0.421581	0.326234
41387	-9.061544	-2.769237	6.423704	0.827384	-0.241067	0.398016	0.314492
41388	-7.966040	-2.702241	7.403342	0.837945	-0.255106	0.374633	0.304006
41389	-6.186143	-6.023328	7.567724	0.846779	-0.266492	0.354041	0.294283
41390	-4.843471	-8.332706	7.725214	0.853831	-0.272529	0.337990	0.287164
41391	-3.862819	-10.806087	9.073008	0.858371	-0.274054	0.327337	0.284506
41392	-3.449052	-9.365511	10.356886	0.858872	-0.273295	0.324158	0.287352
41393	-4.860706	-4.873772	10.541161	0.855200	-0.273427	0.328720	0.292941
41394	-6.723314	-0.527857	9.187378	0.848999	-0.275877	0.338994	0.296945
41395	-7.863620	0.962048	6.619619	0.842221	-0.280508	0.351587	0.297265
41396	-8.476625	-0.002416	3.994150	0.836385	-0.286117	0.362635	0.295115
41397	-8.815447	-1.577415	2.503848	0.832932	-0.290693	0.369594	0.291756
41398	-8.493150	-3.144138	2.791173	0.831726	-0.293574	0.372226	0.288952
41399	-7.732973	-4.533254	4.333362	0.831379	-0.295224	0.372529	0.287878
41400	-6.786441	-5.288500	6.011672	0.830329	-0.296076	0.373093	0.289299
41401	-6.900274	-3.890298	6.944538	0.827597	-0.297074	0.375837	0.292535
41402	-7.557184	-2.082157	6.258286	0.823552	-0.298868	0.380786	0.295707
41403	-8.352720	-1.213437	4.941534	0.819545	-0.301266	0.386107	0.297498
41404	-8.724393	-0.930672	4.146066	0.816777	-0.303531	0.390038	0.297682
41405	-8.510029	-1.763160	4.322373	0.815216	-0.305493	0.392396	0.296854
41406	-7.935845	-2.340056	5.475032	0.814052	-0.307525	0.394271	0.295462
41407	-7.589936	-2.929270	6.633923	0.811873	-0.310248	0.397975	0.293639
41408	-7.621098	-3.342254	6.059130	0.808310	-0.313551	0.404388	0.291190
41409	-8.022500	-3.209351	4.553369	0.804170	-0.316630	0.411905	0.288774
41410	-8.605783	-2.453351	3.589430	0.800329	-0.319343	0.418719	0.286650
41411	-8.973912	-1.925845	3.162583	0.797575	-0.321604	0.423693	0.284480
41412	-8.891964	-1.979778	3.553012	0.796091	-0.323475	0.426763	0.281915
41413	-8.592644	-2.418021	4.323346	0.795146	-0.325272	0.429111	0.278937
41414	-8.440686	-3.137899	4.428310	0.794285	-0.326866	0.431593	0.275676
41415	-8.511233	-3.096897	3.971636	0.793464	-0.328167	0.434124	0.272502
41416	-8.821688	-2.356253	3.552994	0.792941	-0.329427	0.436024	0.269454
41417	-9.230535	-1.948553	2.996385	0.793313	-0.330651	0.436477	0.266106
41418	-9.107250	-2.304578	2.727529	0.794985	-0.331656	0.434931	0.262371
41419	-8.854540	-2.746216	2.830319	0.797799	-0.332266	0.431522	0.258659
41420	-8.400586	-3.577874	3.274611	0.801394	-0.332181	0.426821	0.255435
41421	-8.044034	-4.195723	3.874117	0.805208	-0.331309	0.421556	0.253309
41422	-7.957878	-4.493792	3.795285	0.808961	-0.329494	0.416135	0.252682
41423	-7.844899	-4.313733	4.024983	0.812834	-0.326666	0.410289	0.253483
41424	-8.414533	-3.446060	3.910892	0.817114	-0.322655	0.403962	0.255016
41425	-8.499783	-3.589119	3.635703	0.822348	-0.317048	0.396620	0.256743
41426	-8.286258	-4.153588	3.144933	0.829032	-0.308980	0.387419	0.259120
41427	-8.149309	-4.841932	1.927886	0.837388	-0.298038	0.375327	0.262840
41428	-7.286575	-4.961085	2.323043	0.847131	-0.283997	0.360091	0.268420
41429	-6.914368	-4.343800	4.935321	0.856907	-0.269320	0.342916	0.274931
41430	-6.252427	-3.209212	7.281644	0.866062	-0.253704	0.326680	0.280804
41431	-6.127800	-0.739545	8.946535	0.873608	-0.239199	0.313356	0.285308
41432	-5.786694	-0.153441	9.118110	0.879589	-0.226742	0.303241	0.288022
41433	-5.617783	-0.266959	8.419658	0.884488	-0.216160	0.295620	0.289075
41434	-5.469646	-0.031751	8.221209	0.888715	-0.207362	0.289236	0.289015
41435	-5.101243	-2.217678	9.270369	0.891555	-0.201192	0.284819	0.289015
41436	-4.829065	-3.128586	9.491684	0.892992	-0.195305	0.283355	0.290054
41437	-4.911689	-2.197991	9.786520	0.892343	-0.191436	0.285568	0.292449
41438	-5.289078	-2.576002	8.720356	0.890346	-0.188571	0.290590	0.295436
41439	-5.950254	-1.585805	7.657111	0.887802	-0.185951	0.297034	0.298329
41440	-6.064717	-2.284372	7.704408	0.885173	-0.182618	0.304163	0.301005
41441	-6.289967	-2.362356	7.207859	0.882487	-0.177975	0.312005	0.303636
41442	-6.626104	-2.749170	7.098763	0.879533	-0.171750	0.320436	0.306992
41443	-6.625070	-3.459312	6.910046	0.875608	-0.165501	0.328634	0.312921
41444	-6.739901	-3.931013	7.825700	0.869362	-0.161016	0.336815	0.323788
41445	-8.195127	-3.713595	8.190790	0.860829	-0.161326	0.342455	0.340105
41446	-8.291529	-5.274027	6.047534	0.850991	-0.161652	0.346224	0.360293
41447	-9.474387	-6.905072	6.113095	0.840411	-0.160118	0.349210	0.382262
41448	-7.689169	-9.181700	4.377599	0.830107	-0.150561	0.354498	0.403219
41449	-15.950895	-19.050776	-1.599518	0.830511	-0.149766	0.362616	0.395387
41450	-10.441761	-16.279038	2.448223	0.842307	-0.160462	0.369332	0.358279
41451	-5.007666	-4.992754	6.600159	0.852892	-0.173842	0.373010	0.321274
41452	-6.422152	-3.892515	7.916091	0.860658	-0.197374	0.368745	0.290411
41453	-5.579114	-2.124702	10.092769	0.866141	-0.224962	0.354149	0.271608
41454	-5.139390	-2.781240	10.585617	0.869041	-0.254345	0.329338	0.267605
41455	-3.404672	-6.158027	8.355602	0.870078	-0.281871	0.296429	0.275033
41456	-0.778153	-7.132458	5.822968	0.868519	-0.304786	0.262623	0.289500
41457	-0.751055	-5.982644	5.016792	0.863080	-0.327219	0.232580	0.306474
41458	-1.994471	-4.148998	6.293362	0.854017	-0.353171	0.206008	0.321692
41459	-3.740298	-2.241848	8.845895	0.842009	-0.382991	0.180927	0.334072
41460	-4.681229	-1.908347	10.553968	0.827380	-0.414320	0.156381	0.345436
41461	-7.399892	-2.484161	11.937493	0.810934	-0.443928	0.130888	0.358027
41462	-5.083368	-0.724402	12.662929	0.796757	-0.459075	0.111806	0.376733
41463	1.493346	7.402588	11.848271	0.780502	-0.467349	0.101411	0.402638
41464	3.943621	7.579893	16.499546	0.768731	-0.453734	0.114993	0.435838
41465	-11.908662	9.379402	12.602254	0.763472	-0.426740	0.140299	0.464025
41466	-30.578623	16.328691	18.217180	0.768595	-0.403549	0.153931	0.471928
41467	-8.279257	3.787283	10.395748	0.775670	-0.397253	0.149029	0.467243
41468	-5.280228	-5.580060	7.236462	0.782569	-0.393610	0.144152	0.460302
41469	-2.771530	-11.281974	6.199224	0.786608	-0.389242	0.137119	0.459279
41470	-1.708765	-14.792634	3.107496	0.788588	-0.378060	0.134343	0.465995
41471	-5.605559	-6.883075	5.060503	0.790292	-0.360013	0.136906	0.476535
41472	-5.936794	1.774758	11.696036	0.792278	-0.342498	0.139365	0.485354
41473	-6.343383	2.806658	14.286556	0.792131	-0.340205	0.138960	0.487319
41474	-6.555812	-3.085835	8.547910	0.791347	-0.343377	0.137270	0.486845
41475	-5.825701	-4.306878	6.868939	0.790926	-0.346735	0.133790	0.486119
41476	-5.392161	-4.195879	7.084790	0.790902	-0.348999	0.130318	0.485481
41477	-5.293970	-4.219837	6.698833	0.791140	-0.350288	0.127018	0.485039
41478	-4.852789	-4.372925	6.601470	0.791552	-0.350808	0.124534	0.484635
41479	-3.476525	-5.843402	5.466251	0.791676	-0.349744	0.124737	0.485148
41480	-4.822257	-4.907200	6.266219	0.791516	-0.346355	0.126434	0.487397
41481	-3.937691	-5.502368	5.712135	0.791277	-0.341751	0.129823	0.490136
41482	-6.150369	-4.064049	9.885386	0.790093	-0.338593	0.133507	0.493239
41483	-5.490028	-3.921851	9.297513	0.787715	-0.337573	0.133437	0.497738
41484	-6.074763	-1.165581	10.812766	0.783173	-0.340079	0.128572	0.504435
41485	-7.083121	-0.101299	11.319173	0.775694	-0.347810	0.118295	0.513159
41486	-5.789634	1.668288	12.039098	0.762879	-0.362404	0.098541	0.526278
41487	-2.528020	-4.524194	6.474762	0.741522	-0.378987	0.072485	0.548872
41488	-6.952149	-4.357649	4.633739	0.716045	-0.390533	0.043300	0.576964
41489	-4.940928	-10.281646	-0.463751	0.689334	-0.392619	0.016678	0.608598
41490	-4.929282	-7.659959	0.944549	0.669114	-0.385346	0.001109	0.635448
41491	-4.374017	-7.502679	2.228241	0.659996	-0.375828	-0.002850	0.650500
41492	-5.621393	1.303610	10.896831	0.660175	-0.371697	-0.001502	0.652693
41493	-3.822507	-6.046874	7.840649	0.659884	-0.373252	-0.001359	0.652100
41494	-2.694424	-7.412284	6.168002	0.658825	-0.374593	0.002741	0.652397
41495	-3.562221	-6.253505	6.531155	0.656701	-0.375023	0.009998	0.654219
41496	-3.439714	-7.254000	4.640721	0.653250	-0.373144	0.019685	0.658514
41497	-2.861885	-6.738719	4.520886	0.648589	-0.368276	0.033115	0.665289
41498	-7.089019	-3.227289	6.040607	0.643929	-0.363268	0.047509	0.671666
41499	-7.038345	-5.598170	7.815048	0.640925	-0.359146	0.058384	0.675885
41500	-6.372959	-6.081961	7.922660	0.638142	-0.351722	0.067243	0.681576
41501	-6.227389	-3.922993	7.015609	0.634619	-0.340710	0.072828	0.689834
41502	-7.298525	0.728764	8.115621	0.632437	-0.328668	0.076341	0.697261
41503	-7.156086	6.805856	10.754120	0.632473	-0.320434	0.076914	0.700989
41504	-5.934853	-0.129273	8.768259	0.633447	-0.317801	0.074413	0.701577
41505	-4.881159	-6.053077	7.117237	0.634364	-0.314777	0.072502	0.702311
41506	-4.622123	-7.797992	6.231514	0.635183	-0.308286	0.072806	0.704416
41507	-4.373376	-8.444251	6.003741	0.635878	-0.296242	0.077523	0.708441
41508	-4.095808	-3.814114	8.116087	0.636190	-0.281568	0.086115	0.713138
41509	-4.646015	0.910207	9.406864	0.635912	-0.269147	0.095243	0.717011
41510	-5.125580	1.941425	9.635387	0.635456	-0.261528	0.101585	0.719360
41511	-5.449634	0.987424	8.890700	0.634876	-0.256768	0.105657	0.720999
41512	-5.386902	-0.590891	8.676915	0.634128	-0.253907	0.108109	0.722305
41513	-5.166186	-1.315677	8.232864	0.633385	-0.251235	0.110120	0.723587
41514	-5.044179	-0.113081	8.668647	0.633120	-0.249011	0.111476	0.724380
41515	-4.763205	0.191692	8.853288	0.633369	-0.248168	0.111292	0.724479
41516	-4.760356	-0.896928	8.662927	0.633810	-0.248459	0.110313	0.724144
41517	-4.770203	-0.903667	8.465399	0.634293	-0.249464	0.108679	0.723622
41518	-4.700676	-1.858589	8.478496	0.634727	-0.250847	0.106949	0.723021
41519	-4.559307	-2.412830	8.432786	0.634895	-0.252090	0.105859	0.722601
41520	-4.817602	-1.588925	8.631415	0.634906	-0.253357	0.105228	0.722241
41521	-5.009624	-1.157346	8.761063	0.634923	-0.255094	0.104589	0.721707
41522	-5.226838	-0.304258	8.567028	0.635179	-0.257943	0.103173	0.720672
41523	-5.048345	-0.920014	8.608592	0.635664	-0.261788	0.100691	0.719208
41524	-4.810952	-1.719680	8.438554	0.636129	-0.266261	0.097858	0.717544
41525	-4.589406	-3.079483	8.377228	0.636209	-0.270610	0.095718	0.716133
41526	-4.552476	-3.460700	8.368702	0.635883	-0.274385	0.095062	0.715072
41527	-4.786929	-3.094946	8.329108	0.635110	-0.278078	0.096075	0.714197
41528	-5.093222	-1.959167	8.289149	0.634137	-0.281972	0.097772	0.713304
41529	-5.073945	-1.569173	8.613381	0.632760	-0.287242	0.099026	0.712250
41530	-4.748269	-0.607320	8.539477	0.631465	-0.293956	0.099905	0.710535
41531	-5.771437	2.667520	8.911790	0.632155	-0.302773	0.099530	0.706260
41532	-5.683879	5.948956	11.186979	0.635098	-0.317381	0.099017	0.697220
41533	-5.932822	4.288790	9.991359	0.641086	-0.336138	0.101721	0.682402
41534	-4.289941	-1.818060	9.263770	0.655520	-0.347710	0.113714	0.660652
41535	-5.202439	-0.800948	8.296292	0.683713	-0.351165	0.135109	0.625272
41536	-5.642595	2.317458	9.053592	0.718543	-0.350445	0.160921	0.578782
41537	-4.221373	-1.583560	8.679816	0.755916	-0.345186	0.188493	0.523362
41538	-2.964981	-4.472290	8.783558	0.790163	-0.336095	0.214920	0.465287
41539	-2.900412	-6.755233	7.869559	0.817875	-0.325670	0.238459	0.410069
41540	-3.587702	-8.360796	6.058885	0.838531	-0.315561	0.256700	0.362480
41541	-4.038483	-9.847135	4.432924	0.853830	-0.305925	0.267733	0.325122
41542	-4.191314	-11.311358	3.648675	0.864407	-0.298045	0.271052	0.300832
41543	-4.876512	-10.412756	3.307714	0.871459	-0.291360	0.267436	0.290081
41544	-5.148399	-9.444802	3.497720	0.875917	-0.285354	0.257466	0.291639
41545	-5.630268	-5.432545	6.259212	0.880251	-0.276610	0.245106	0.297605
41546	-5.946924	-1.770412	7.723807	0.885071	-0.266824	0.232392	0.302405
41547	-5.746065	0.740260	9.565273	0.889987	-0.258036	0.221357	0.303878
41548	-4.233034	-1.913578	10.348786	0.893650	-0.252674	0.213267	0.303420
41549	-4.156547	-3.225687	10.139813	0.895550	-0.250098	0.209046	0.302888
41550	-4.327984	-3.696900	9.305235	0.896203	-0.249098	0.207777	0.302654
41551	-5.041988	-3.623478	8.071027	0.896166	-0.248732	0.207892	0.302986
41552	-5.452536	-3.745832	7.391050	0.896098	-0.248176	0.207735	0.303748
41553	-5.620402	-3.184482	7.156708	0.896437	-0.246697	0.206715	0.304648
41554	-5.047097	-3.214958	7.458005	0.897227	-0.244189	0.205373	0.305251
41555	-4.458314	-3.114018	8.127608	0.898126	-0.241130	0.203798	0.306091
41556	-4.216560	-3.218945	8.969775	0.898407	-0.239310	0.203409	0.306953
41557	-4.268271	-3.458937	8.721844	0.898043	-0.238263	0.204818	0.307894
41558	-4.446401	-3.754703	8.592444	0.897043	-0.237701	0.207607	0.309372
41559	-4.440911	-3.777348	8.847678	0.895654	-0.236525	0.212233	0.311154
41560	-4.448062	-4.046694	8.984561	0.893695	-0.234665	0.219057	0.313459
41561	-4.386578	-4.053399	9.643443	0.890760	-0.232933	0.228789	0.316140
41562	-4.389631	-4.638776	9.587401	0.886326	-0.231456	0.242059	0.319783
41563	-4.480005	-4.287125	9.584493	0.880151	-0.229922	0.258958	0.324670
41564	-4.483574	-4.024309	9.378793	0.871676	-0.228636	0.280521	0.330476
41565	-4.829287	-3.450100	8.877285	0.860625	-0.226998	0.306351	0.337558
41566	-5.338242	-3.236877	8.352227	0.847023	-0.225128	0.335283	0.345623
41567	-6.975393	-3.200972	8.228881	0.831241	-0.223261	0.365590	0.354312
41568	-8.708279	-4.387095	8.230552	0.814538	-0.221120	0.394491	0.363334
41569	-7.943591	-4.113126	7.420979	0.797523	-0.216313	0.422450	0.372427
41570	-8.286188	-2.531056	7.270501	0.779797	-0.210550	0.449403	0.381605
41571	-7.981918	-2.202663	6.447118	0.762018	-0.203729	0.474966	0.390167
41572	-7.036421	-2.459153	6.366031	0.745692	-0.196607	0.499039	0.395284
41573	-9.090732	-11.154392	5.260686	0.737244	-0.198969	0.519234	0.383769
41574	-6.435206	-10.616910	5.867258	0.738660	-0.203480	0.535252	0.355644
41575	-1.841784	-4.564587	6.670313	0.745226	-0.204360	0.548978	0.318590
41576	-3.727681	0.471645	9.459371	0.753306	-0.204585	0.558031	0.281559
41577	-7.428716	1.895580	11.536882	0.766749	-0.205132	0.554494	0.250107
41578	-2.425240	2.611115	9.983499	0.785541	-0.202503	0.539399	0.225759
41579	0.821038	1.770798	6.810451	0.803886	-0.194388	0.521783	0.209099
41580	-6.482810	-1.536728	5.026070	0.820648	-0.180123	0.505791	0.195620
41581	-12.414085	-1.826475	4.427832	0.839347	-0.160855	0.486780	0.180739
41582	-11.898309	-3.396958	1.748866	0.857749	-0.139947	0.467498	0.161639
41583	-11.064363	-2.533921	1.376505	0.873761	-0.121510	0.450716	0.136499
41584	-11.347485	-1.369995	0.652072	0.886580	-0.108698	0.437269	0.104675
41585	-14.362629	0.945859	0.519273	0.895812	-0.097767	0.428119	0.068388
41586	-15.613652	3.488415	0.191474	0.901652	-0.085198	0.422820	0.031424
41587	-17.291703	2.510099	-1.035849	0.904082	-0.071075	0.421374	-0.005184
41588	-18.597984	0.734635	-2.016851	0.903218	-0.052760	0.423756	-0.042948
41589	-16.914811	0.939604	-2.123092	0.899117	-0.032543	0.428699	-0.082143
41590	-14.281944	2.364039	-0.135549	0.891832	-0.014185	0.435555	-0.121352
41591	-6.948802	1.713336	3.279979	0.882825	-0.001040	0.441985	-0.158960
41592	-4.096429	-0.499589	5.299793	0.872776	0.008161	0.447614	-0.194515
41593	-6.546605	-2.421822	4.377873	0.862161	0.015625	0.451613	-0.229087
41594	-7.183661	-3.033590	4.084321	0.851620	0.021862	0.453353	-0.262177
41595	-6.996145	-4.587279	4.147621	0.841798	0.025727	0.452603	-0.293027
41596	-7.741966	-4.815807	4.527285	0.833373	0.026452	0.449190	-0.320963
41597	-7.783049	-6.289172	4.127440	0.827187	0.025223	0.442672	-0.345206
41598	-7.273702	-6.255772	4.066113	0.823774	0.021055	0.433433	-0.364814
41599	-6.747709	-7.946450	4.253391	0.823657	0.012592	0.423227	-0.377240
41600	-5.417769	-8.934474	4.910415	0.827569	0.003121	0.410284	-0.383129
41601	-5.767063	-6.691633	6.539705	0.834259	-0.004953	0.394571	-0.385100
41602	-5.606770	-4.287087	8.044098	0.842027	-0.010400	0.377377	-0.385317
41603	-5.382184	-2.347257	8.819835	0.849021	-0.014038	0.360819	-0.385715
41604	-5.307200	-0.789862	9.231917	0.853790	-0.017379	0.347218	-0.387531
41605	-5.236188	-1.712382	8.957114	0.856532	-0.020615	0.336649	-0.390634
41606	-5.150058	-2.435735	8.679006	0.858141	-0.023707	0.328281	-0.394036
41607	-4.725693	-3.304044	8.717959	0.859212	-0.026432	0.321769	-0.396889
41608	-4.567212	-2.930806	9.003780	0.859919	-0.028458	0.317114	-0.398958
41609	-4.503803	-3.175938	8.929829	0.859899	-0.030363	0.315455	-0.400175
41610	-4.677580	-3.581743	8.398799	0.859724	-0.031574	0.314904	-0.400890
41611	-4.857675	-3.707096	7.918169	0.859597	-0.032172	0.314733	-0.401249
41612	-4.976424	-3.548371	7.823126	0.859717	-0.032162	0.314173	-0.401433
41613	-5.035031	-3.250369	7.910133	0.859863	-0.031872	0.313609	-0.401583
41614	-5.134821	-3.082645	7.737412	0.859974	-0.031432	0.313093	-0.401782
41615	-5.116310	-3.076966	7.758839	0.860068	-0.031116	0.312582	-0.402004
41616	-4.968991	-3.118267	7.979864	0.860185	-0.030749	0.312121	-0.402141
41617	-4.966005	-2.877073	8.100378	0.860265	-0.030376	0.311907	-0.402163
41618	-5.014376	-2.793241	8.080187	0.860313	-0.030070	0.311763	-0.402195
41619	-4.999779	-2.834642	8.023817	0.860252	-0.029919	0.311858	-0.402264
41620	-5.043711	-2.886032	7.931270	0.860162	-0.029854	0.312017	-0.402338
41621	-5.028974	-3.059566	7.839928	0.860093	-0.029827	0.312111	-0.402415
41622	-5.121719	-2.905984	7.734856	0.860116	-0.029807	0.311909	-0.402523
41623	-5.109708	-2.811722	7.828752	0.860215	-0.029941	0.311406	-0.402690
41624	-5.059027	-2.855496	7.885266	0.860257	-0.030237	0.310941	-0.402938
41625	-4.999119	-3.114092	7.852106	0.860343	-0.030523	0.310332	-0.403203
41626	-4.936364	-3.053406	7.958050	0.860504	-0.030764	0.309580	-0.403420
41627	-4.943182	-2.880229	8.053892	0.860562	-0.031023	0.309188	-0.403576
41628	-4.939548	-2.862832	8.091171	0.860509	-0.031348	0.309217	-0.403642
41629	-4.978239	-3.070049	7.929973	0.860418	-0.031651	0.309417	-0.403658
41630	-4.951128	-3.218398	7.820824	0.860382	-0.031835	0.309493	-0.403662
41631	-4.974855	-3.129173	7.838512	0.860425	-0.031962	0.309341	-0.403677
41632	-5.001864	-2.973171	7.880063	0.860512	-0.032083	0.309077	-0.403686
41633	-4.959512	-3.003868	7.926856	0.860616	-0.032226	0.308754	-0.403699
41634	-4.937757	-3.187205	7.883694	0.860747	-0.032345	0.308341	-0.403725
41635	-4.921809	-3.165844	7.914394	0.860913	-0.032381	0.307816	-0.403770
41636	-4.930688	-3.084196	7.970231	0.861068	-0.032388	0.307319	-0.403816
41637	-4.991129	-2.946072	7.942979	0.861219	-0.032391	0.306830	-0.403867
41638	-4.957018	-3.064819	7.878259	0.861415	-0.032451	0.306213	-0.403912
41639	-4.990537	-3.049320	7.903641	0.861682	-0.032506	0.305345	-0.403995
41640	-4.949854	-2.976355	8.007920	0.861974	-0.032576	0.304380	-0.404094
41641	-4.858468	-2.978710	8.074231	0.862260	-0.032637	0.303420	-0.404202
41642	-4.819847	-3.073782	8.049495	0.862527	-0.032630	0.302546	-0.404287
41643	-4.873304	-3.080597	7.959541	0.862814	-0.032509	0.301569	-0.404415
41644	-4.859055	-3.112113	7.961749	0.863161	-0.032261	0.300399	-0.404564
41645	-4.819623	-2.954745	8.048277	0.863554	-0.031929	0.299078	-0.404731
41646	-4.784762	-2.964599	8.128138	0.863939	-0.031510	0.297793	-0.404891
41647	-4.804702	-2.939377	8.149319	0.864304	-0.031046	0.296661	-0.404978
41648	-4.802040	-2.951725	8.120161	0.864659	-0.030488	0.295579	-0.405053
41649	-4.722485	-2.970628	8.084854	0.865056	-0.029785	0.294451	-0.405079
41650	-4.731710	-2.963608	8.145731	0.865517	-0.028915	0.293197	-0.405068
41651	-4.681373	-2.839925	8.235074	0.865983	-0.027990	0.291892	-0.405078
41652	-4.719750	-2.961872	8.160480	0.866445	-0.026977	0.290620	-0.405075
41653	-4.734874	-2.882201	8.242951	0.866924	-0.025744	0.289354	-0.405035
41654	-4.732242	-2.760630	8.313523	0.867410	-0.024276	0.288137	-0.404953
41655	-4.708869	-2.512430	8.533708	0.867764	-0.022779	0.287388	-0.404815
41656	-4.877860	-3.084576	8.326736	0.868001	-0.021052	0.287087	-0.404614
41657	-4.957612	-3.758708	7.776114	0.868452	-0.018440	0.286397	-0.404263
41658	-5.123191	-3.422199	8.169529	0.869005	-0.014973	0.285560	-0.403808
41659	-5.184276	-4.009547	8.145016	0.869628	-0.010151	0.284992	-0.403019
41660	-4.593285	-6.999113	7.998391	0.871252	-0.001937	0.283582	-0.400622
41661	-5.075785	-9.071128	7.813089	0.874482	0.012354	0.279910	-0.395953
41662	-5.742163	-8.771486	7.736882	0.879151	0.033324	0.272895	-0.389245
41663	-6.444778	-7.322866	6.597826	0.884088	0.060474	0.263465	-0.381206
41664	-9.502540	-2.688184	4.405178	0.885755	0.086096	0.258187	-0.375985
41665	-10.609099	-8.023086	2.706347	0.879841	0.095148	0.265884	-0.382272
41666	-10.823847	-11.829274	3.632666	0.868740	0.103079	0.277056	-0.397372
41667	-9.145307	-7.480648	5.561640	0.855504	0.115226	0.284755	-0.416833
41668	-9.069320	-5.433476	5.723911	0.839218	0.126616	0.292111	-0.440855
41669	-7.515383	-5.136361	5.179650	0.819935	0.136999	0.298700	-0.468739
41670	-5.549387	-3.619757	4.930704	0.797719	0.148747	0.305084	-0.498440
41671	-7.935644	-0.252559	7.510626	0.773826	0.160280	0.311589	-0.527652
41672	-4.987198	0.155270	7.968954	0.753341	0.167617	0.314211	-0.552859
41673	-5.384496	-0.394575	7.708447	0.735507	0.173844	0.314793	-0.574207
41674	-5.440811	-2.576611	6.524314	0.718776	0.179210	0.314054	-0.593814
41675	-5.242134	-3.618136	6.240694	0.701687	0.184236	0.312480	-0.613228
41676	-6.304641	-2.443838	7.947730	0.685211	0.187002	0.310080	-0.631955
41677	-5.575781	-3.873560	7.054793	0.669815	0.188938	0.306590	-0.649348
41678	-5.703690	-4.245861	6.923919	0.654188	0.190383	0.302631	-0.666488
41679	-5.607789	-3.810566	7.159162	0.637903	0.190737	0.299071	-0.683561
41680	-5.791866	-3.593690	7.390756	0.621576	0.190554	0.296023	-0.699788
41681	-5.760133	-3.878433	7.625223	0.605594	0.190335	0.292885	-0.715015
41682	-6.011534	-4.646433	7.479067	0.589012	0.190087	0.290167	-0.729887
41683	-5.629351	-5.209125	7.419494	0.570408	0.189709	0.288882	-0.745113
41684	-5.256335	-5.622258	7.589282	0.549202	0.189184	0.289805	-0.760658
41685	-4.762761	-4.399419	8.527169	0.526675	0.187572	0.292295	-0.775883
41686	-3.991959	-3.114246	9.302708	0.505300	0.185110	0.295747	-0.789265
41687	-4.122736	-2.286939	10.333330	0.486408	0.181316	0.299429	-0.800546
41688	-3.952221	-1.861422	10.840371	0.470562	0.175642	0.302396	-0.810110
41689	-3.130958	-1.263235	10.588899	0.458256	0.168786	0.304103	-0.817945
41690	-2.433459	-0.993356	10.205838	0.449789	0.162367	0.304947	-0.823611
41691	-2.791923	-1.445211	10.075569	0.444727	0.157541	0.305133	-0.827220
41692	-3.804008	-1.544974	10.388136	0.441836	0.154068	0.304936	-0.829493
41693	-4.567843	-1.034500	10.606211	0.439154	0.150179	0.306544	-0.831036
41694	-4.720131	-1.100731	10.044075	0.434961	0.145393	0.311800	-0.832136
41695	-5.567030	-1.983644	9.076172	0.428311	0.140954	0.321089	-0.832817
41696	-8.317535	-3.692148	8.596841	0.419190	0.136819	0.332494	-0.833672
41697	-12.227792	-5.505967	8.469716	0.408726	0.130716	0.341042	-0.836389
41698	-14.292099	-4.776831	8.569572	0.397726	0.119874	0.344005	-0.842083
41699	-12.776324	-2.960019	7.775760	0.387245	0.103303	0.340439	-0.850571
41700	-9.306673	-0.204564	6.677193	0.378050	0.084873	0.333426	-0.859478
41701	-7.928989	1.531633	5.851958	0.370754	0.067884	0.326937	-0.866629
41702	-8.822532	1.549477	5.224074	0.366449	0.052741	0.322480	-0.871172
41703	-10.252604	0.888342	4.073873	0.365669	0.038477	0.319558	-0.873320
41704	-11.565511	0.336925	2.414926	0.367047	0.023987	0.317614	-0.873969
41705	-10.767723	-1.248571	0.288213	0.368689	0.010677	0.315517	-0.874302
41706	-6.309667	-0.773577	-6.897673	0.375143	0.013424	0.307632	-0.874328
41707	-6.741445	5.702665	-4.816450	0.386893	0.030862	0.304106	-0.869989
41708	-6.872424	-9.371533	12.781580	0.399619	0.050777	0.301616	-0.864150
41709	-6.190486	-6.767252	7.492509	0.409119	0.066884	0.295049	-0.860868
41710	-5.255817	-3.246713	8.332416	0.412836	0.082127	0.293284	-0.858374
41711	-3.642952	-4.788519	8.628676	0.409886	0.099233	0.297427	-0.856553
41712	-9.019604	-0.125385	11.798635	0.407176	0.116758	0.305481	-0.852794
41713	-13.723475	-6.059655	10.692584	0.407565	0.129223	0.308943	-0.849557
41714	-9.273231	-5.522217	8.482090	0.407338	0.137252	0.309914	-0.848051
41715	-7.109790	-2.064666	9.383919	0.407298	0.141871	0.310093	-0.847245
41716	-5.641018	-4.001884	7.732908	0.407126	0.145258	0.310580	-0.846574
41717	-4.998293	-4.544359	7.182108	0.407516	0.147923	0.310182	-0.846071
41718	-4.972598	-4.481152	7.073613	0.408548	0.150546	0.308732	-0.845641
41719	-5.150248	-4.196737	7.355467	0.409992	0.153149	0.306441	-0.845308
41720	-5.384680	-3.517437	7.818645	0.411374	0.155165	0.303922	-0.845179
41721	-5.445999	-3.385138	7.934846	0.412516	0.156586	0.301776	-0.845129
41722	-5.384672	-3.383195	7.897973	0.413327	0.157571	0.300067	-0.845158
41723	-5.281835	-3.502883	7.782472	0.413906	0.158276	0.298716	-0.845222
41724	-5.288576	-3.541004	7.709957	0.414334	0.158619	0.297595	-0.845343
41725	-5.109856	-3.707778	7.557846	0.414733	0.158748	0.296548	-0.845491
41726	-5.080482	-3.628612	7.614342	0.415111	0.158866	0.295414	-0.845680
41727	-5.168466	-3.508960	7.724278	0.415466	0.158944	0.294319	-0.845873
41728	-5.103642	-3.527677	7.751363	0.415787	0.158939	0.293273	-0.846079
41729	-5.091036	-3.507190	7.743450	0.416130	0.158936	0.292346	-0.846232
41730	-5.106452	-3.390694	7.855467	0.416412	0.158907	0.291549	-0.846374
41731	-5.073633	-3.461135	7.801782	0.416620	0.158932	0.290973	-0.846465
41732	-5.033275	-3.465011	7.762750	0.416803	0.159046	0.290532	-0.846505
41733	-5.021054	-3.529769	7.678366	0.416964	0.159221	0.290132	-0.846530
41734	-4.986235	-3.566257	7.596965	0.417169	0.159467	0.289591	-0.846568
41735	-4.982339	-3.486148	7.605701	0.417443	0.159742	0.288849	-0.846634
41736	-5.047553	-3.420666	7.676069	0.417736	0.160028	0.288064	-0.846704
41737	-5.063295	-3.364213	7.729475	0.418026	0.160279	0.287306	-0.846771
41738	-5.036504	-3.480293	7.621288	0.418317	0.160504	0.286495	-0.846859
41739	-4.933203	-3.465148	7.622595	0.418654	0.160696	0.285594	-0.846960
41740	-4.932978	-3.463444	7.650811	0.419063	0.160956	0.284562	-0.847056
41741	-4.885302	-3.421456	7.670554	0.419489	0.161287	0.283511	-0.847135
41742	-5.037195	-3.404685	7.723782	0.419969	0.161604	0.282337	-0.847228
41743	-5.038254	-3.240064	7.869686	0.420391	0.161777	0.281301	-0.847331
