// Start Time: Unknown
// Update Rate: 60.0Hz
// Filter Profile: human (46.1)
// Option Flags: AHS Disabled ICC Disabled 
// Firmware Version: 4.3.5
PacketCounter	Acc_X	Acc_Y	Acc_Z	Quat_q0	Quat_q1	Quat_q2	Quat_q3
43442	-1.726567	8.242209	5.071025	-0.469019	-0.349736	0.353605	0.729842
43443	-1.681708	8.250126	5.095046	-0.469259	-0.349598	0.353608	0.729752
43444	-1.696396	8.228115	5.082398	-0.469514	-0.349525	0.353560	0.729647
43445	-1.733128	8.281008	5.060383	-0.469745	-0.349448	0.353477	0.729576
43446	-1.740866	8.269830	5.078349	-0.469932	-0.349336	0.353345	0.729572
43447	-1.673282	8.253364	5.047310	-0.470104	-0.349216	0.353257	0.729561
43448	-1.639527	8.256385	5.061865	-0.470294	-0.349139	0.353171	0.729517
43449	-1.677106	8.219864	5.054089	-0.470449	-0.349104	0.353081	0.729478
43450	-1.751883	8.244966	5.119806	-0.470577	-0.349045	0.352905	0.729509
43451	-1.843339	8.313315	5.100603	-0.470595	-0.348864	0.352731	0.729668
43452	-1.767890	8.231661	5.109132	-0.470550	-0.348571	0.352638	0.729882
43453	-1.679913	8.187329	5.091752	-0.470469	-0.348268	0.352625	0.730085
43454	-1.655581	8.172476	5.102101	-0.470372	-0.348019	0.352703	0.730228
43455	-1.738921	8.256034	5.154740	-0.470227	-0.347825	0.352752	0.730391
43456	-1.776831	8.219383	5.147178	-0.470040	-0.347567	0.352796	0.730612
43457	-1.783057	8.254906	5.123559	-0.469843	-0.347304	0.352912	0.730808
43458	-1.735685	8.157761	5.122957	-0.469723	-0.347013	0.353076	0.730944
43459	-1.781767	8.175075	5.125695	-0.469609	-0.346741	0.353349	0.731014
43460	-1.806513	8.282629	5.114902	-0.469478	-0.346444	0.353652	0.731093
43461	-1.732232	8.226307	5.053204	-0.469397	-0.346054	0.353987	0.731167
43462	-1.680731	8.193521	5.047468	-0.469337	-0.345704	0.354382	0.731181
43463	-1.556644	8.206597	5.037356	-0.469332	-0.345378	0.354784	0.731143
43464	-1.621726	8.322654	5.042377	-0.469345	-0.345138	0.355070	0.731109
43465	-1.604459	8.368422	5.036405	-0.469379	-0.344918	0.355204	0.731126
43466	-1.578358	8.292539	5.048026	-0.469422	-0.344715	0.355222	0.731185
43467	-1.575445	8.209943	5.084094	-0.469507	-0.344565	0.355167	0.731228
43468	-1.604268	8.261076	5.097579	-0.469630	-0.344468	0.355124	0.731215
43469	-1.653148	8.291177	5.095663	-0.469736	-0.344389	0.355113	0.731190
43470	-1.722237	8.259222	5.095428	-0.469782	-0.344268	0.355124	0.731212
43471	-1.666900	8.187591	5.117289	-0.469771	-0.344105	0.355235	0.731242
43472	-1.680752	8.248012	5.070720	-0.469760	-0.343919	0.355393	0.731260
43473	-1.673159	8.157483	5.041416	-0.469722	-0.343679	0.355605	0.731294
43474	-1.595115	8.376324	5.035143	-0.469625	-0.343450	0.355894	0.731324
43475	-1.516030	8.230724	5.064214	-0.469641	-0.343195	0.356144	0.731311
43476	-1.675862	8.336434	5.081149	-0.469651	-0.343016	0.356414	0.731257
43477	-1.670985	8.310814	5.091352	-0.469437	-0.342872	0.356676	0.731334
43478	-1.615944	8.245914	5.086246	-0.469151	-0.342734	0.356845	0.731500
43479	-1.562702	8.312879	5.094552	-0.468912	-0.342619	0.357045	0.731610
43480	-1.569791	8.358346	5.086712	-0.468887	-0.342500	0.357188	0.731612
43481	-1.657482	8.209773	5.064662	-0.468919	-0.342428	0.357368	0.731537
43482	-1.694616	8.176840	5.052593	-0.468759	-0.342402	0.357656	0.731511
43483	-1.630970	8.209315	5.083911	-0.468470	-0.342425	0.358048	0.731493
43484	-1.525269	8.248121	5.091301	-0.468167	-0.342428	0.358415	0.731507
43485	-1.555569	8.373732	5.113603	-0.467971	-0.342502	0.358712	0.731451
43486	-1.583036	8.466867	5.060938	-0.467830	-0.342460	0.358860	0.731488
43487	-1.610509	8.186719	5.027582	-0.467655	-0.342521	0.359021	0.731493
43488	-1.591910	8.220313	5.101871	-0.467368	-0.342577	0.359291	0.731518
43489	-1.707654	8.229031	5.146174	-0.466938	-0.342707	0.359614	0.731573
43490	-1.768362	8.319402	5.079656	-0.466337	-0.342743	0.360076	0.731712
43491	-1.704519	8.219409	5.050519	-0.465632	-0.342781	0.360696	0.731838
43492	-1.693183	8.175877	5.072790	-0.464907	-0.342838	0.361506	0.731872
43493	-1.765685	8.287173	5.115675	-0.464078	-0.342930	0.362421	0.731903
43494	-1.618207	8.270070	5.118055	-0.463236	-0.342993	0.363362	0.731940
43495	-1.770640	8.411933	5.076456	-0.462376	-0.343085	0.364349	0.731950
43496	-1.632040	8.232586	5.066993	-0.461461	-0.343215	0.365353	0.731966
43497	-1.703093	8.246466	5.058065	-0.460510	-0.343457	0.366398	0.731929
43498	-1.701758	8.248957	5.021870	-0.459600	-0.343731	0.367384	0.731878
43499	-1.742921	8.420129	4.934323	-0.458740	-0.344036	0.368312	0.731808
43500	-1.678003	8.429114	4.807506	-0.458032	-0.344317	0.369136	0.731704
43501	-1.705722	8.399967	4.706780	-0.457492	-0.344605	0.369900	0.731521
43502	-1.734065	8.315044	4.698610	-0.457077	-0.344916	0.370647	0.731256
43503	-1.701950	8.473396	4.699131	-0.456776	-0.345151	0.371318	0.730992
43504	-1.582377	8.549479	4.626731	-0.456748	-0.345299	0.371857	0.730666
43505	-1.459958	8.588946	4.549952	-0.457061	-0.345442	0.372238	0.730208
43506	-1.387844	8.550522	4.519531	-0.457680	-0.345608	0.372446	0.729635
43507	-1.296157	8.296430	4.587580	-0.458560	-0.345883	0.372373	0.728989
43508	-1.440775	8.606684	4.740786	-0.459579	-0.346220	0.371967	0.728395
43509	-1.397563	8.416633	4.830933	-0.460760	-0.346433	0.371147	0.727966
43510	-1.520019	8.401898	4.819236	-0.461993	-0.346661	0.370147	0.727585
43511	-1.645051	8.222142	4.835262	-0.463066	-0.346860	0.369122	0.727329
43512	-1.677811	8.302573	4.864567	-0.464016	-0.346938	0.368186	0.727160
43513	-1.707373	8.442559	4.845216	-0.464852	-0.346983	0.367421	0.726991
43514	-1.757331	8.405217	4.857342	-0.465681	-0.346835	0.366682	0.726905
43515	-1.765246	8.410533	4.898833	-0.466354	-0.346546	0.366020	0.726944
43516	-1.647903	8.339954	4.955190	-0.466975	-0.346125	0.365505	0.727006
43517	-1.652253	8.381087	5.003686	-0.467586	-0.345687	0.365075	0.727038
43518	-1.644975	8.356278	5.046963	-0.468186	-0.345167	0.364698	0.727088
43519	-1.604278	8.332617	5.057208	-0.468744	-0.344624	0.364375	0.727148
43520	-1.645932	8.114264	5.009984	-0.469142	-0.344140	0.364265	0.727176
43521	-1.489302	8.095979	4.982021	-0.469321	-0.343782	0.364584	0.727069
43522	-1.403669	8.170978	4.962362	-0.469484	-0.343695	0.365250	0.726671
43523	-1.432354	8.271715	4.978953	-0.469586	-0.343766	0.366171	0.726108
43524	-1.410961	8.120342	4.953814	-0.469594	-0.344025	0.367306	0.725406
43525	-1.433014	8.025541	4.965632	-0.469394	-0.344610	0.368844	0.724477
43526	-1.543575	8.210534	5.184708	-0.468874	-0.345629	0.370866	0.723295
43527	-1.486522	8.324700	5.295972	-0.468113	-0.346837	0.373305	0.721954
43528	-1.533502	8.320629	5.359330	-0.467119	-0.348311	0.376170	0.720399
43529	-1.750179	8.049229	5.398060	-0.465725	-0.349902	0.379569	0.718746
43530	-1.623259	7.492572	5.576221	-0.463687	-0.351951	0.384179	0.716611
43531	-1.485443	7.670702	5.661154	-0.461137	-0.354687	0.390352	0.713565
43532	-1.496930	8.035556	5.534565	-0.458265	-0.358014	0.397822	0.709618
43533	-1.683202	7.684967	5.360207	-0.454977	-0.361668	0.406369	0.705022
43534	-2.297826	6.697154	5.207559	-0.450500	-0.365950	0.416875	0.699532
43535	-2.589385	6.767114	5.065977	-0.444011	-0.370862	0.430579	0.692761
43536	-1.485149	8.418562	4.640420	-0.436424	-0.375848	0.446742	0.684613
43537	-1.260204	9.212376	3.839108	-0.429112	-0.380259	0.463286	0.675745
43538	-1.668273	7.920907	2.975330	-0.421481	-0.384079	0.480192	0.666523
43539	-1.789700	7.888877	2.270376	-0.412349	-0.388012	0.498513	0.656430
43540	-0.948999	8.492394	1.662066	-0.402261	-0.391538	0.517484	0.645828
43541	-0.305012	9.025388	0.965122	-0.392109	-0.394963	0.536671	0.634223
43542	-0.047285	10.116582	0.309746	-0.382550	-0.398141	0.555023	0.622164
43543	-0.365325	10.599650	-0.315315	-0.373372	-0.401083	0.571984	0.610377
43544	-0.513736	10.826095	-0.595400	-0.364346	-0.403653	0.587191	0.599602
43545	-0.027859	10.396153	-1.127463	-0.355538	-0.406040	0.600585	0.589934
43546	0.544676	10.421559	-1.676076	-0.347649	-0.408506	0.612212	0.580913
43547	0.561614	10.336657	-2.118107	-0.341134	-0.411083	0.622130	0.572357
43548	0.161675	10.405647	-2.397452	-0.335528	-0.413629	0.630500	0.564625
43549	0.241479	10.280009	-2.694298	-0.330665	-0.416004	0.637464	0.557889
43550	0.112338	10.147887	-2.824723	-0.326563	-0.418221	0.643095	0.552157
43551	0.021517	9.899979	-2.960204	-0.323066	-0.420335	0.647517	0.547420
43552	-0.379859	9.523645	-3.090717	-0.319850	-0.422479	0.650894	0.543641
43553	-0.488535	9.586626	-3.013231	-0.316541	-0.424774	0.653513	0.540638
43554	-0.317764	9.866512	-2.846191	-0.313447	-0.427172	0.655355	0.538317
43555	-0.234263	10.223940	-2.796460	-0.311046	-0.429525	0.656507	0.536430
43556	-0.584083	10.228618	-2.830194	-0.309510	-0.431601	0.656892	0.535179
43557	-0.821223	10.027644	-2.832899	-0.308418	-0.433438	0.656521	0.534780
43558	-1.214173	9.938338	-2.753166	-0.307490	-0.435095	0.655565	0.535143
43559	-1.082146	9.432937	-2.849448	-0.306499	-0.436465	0.654398	0.536023
43560	-0.905280	9.305193	-2.926839	-0.305693	-0.437443	0.653334	0.536982
43561	-0.674047	9.293712	-2.986416	-0.305509	-0.438046	0.652400	0.537730
43562	-0.544253	9.846501	-2.916962	-0.306214	-0.438384	0.651393	0.538275
43563	-0.835430	9.896525	-2.818862	-0.308011	-0.438289	0.649868	0.539169
43564	-1.287405	9.007211	-2.758397	-0.310077	-0.437909	0.648117	0.540400
43565	-1.137620	8.917345	-2.617109	-0.311699	-0.437550	0.646634	0.541533
43566	-1.014417	9.631389	-2.491840	-0.313421	-0.436988	0.645147	0.542766
43567	-1.120634	9.178055	-2.407669	-0.315390	-0.436085	0.643481	0.544326
43568	-1.415629	9.059788	-2.383709	-0.316898	-0.435144	0.642023	0.545922
43569	-0.743069	9.209651	-2.253471	-0.318276	-0.434081	0.640709	0.547509
43570	0.038383	9.322664	-2.301229	-0.320340	-0.433356	0.639382	0.548429
43571	-0.159719	9.224518	-2.358628	-0.323356	-0.433130	0.637811	0.548668
43572	-0.615471	9.044302	-2.255462	-0.326536	-0.433501	0.636107	0.548469
43573	-0.616818	9.357471	-2.127391	-0.329482	-0.434331	0.634242	0.548211
43574	-0.565163	8.988006	-2.066938	-0.332328	-0.435454	0.632108	0.548067
43575	-0.725357	8.977229	-2.152305	-0.334800	-0.437030	0.629955	0.547786
43576	-0.618950	8.773777	-2.297044	-0.336904	-0.438714	0.628025	0.547367
43577	-0.231154	8.810204	-2.431031	-0.339105	-0.440249	0.626630	0.546374
43578	-0.548823	8.465208	-2.566737	-0.341343	-0.441437	0.625757	0.545020
43579	-0.687421	8.393370	-2.650415	-0.342945	-0.442568	0.625479	0.543414
43580	-0.791210	8.316490	-2.562311	-0.343809	-0.443584	0.625535	0.541973
43581	-0.543920	8.279002	-2.403380	-0.343976	-0.444445	0.626064	0.540549
43582	-0.021099	9.015526	-2.222724	-0.344583	-0.444708	0.626870	0.539009
43583	0.162514	8.888165	-2.253298	-0.345947	-0.444266	0.627570	0.537683
43584	-0.285075	8.398610	-2.323435	-0.347380	-0.444268	0.628114	0.536121
43585	-0.836201	8.475101	-2.231759	-0.347941	-0.444590	0.628730	0.534767
43586	-0.663059	8.176446	-2.136555	-0.347739	-0.445047	0.629407	0.533721
43587	-0.468364	8.708191	-2.062954	-0.347463	-0.445221	0.630114	0.532920
43588	-0.168323	8.440222	-1.588185	-0.347680	-0.444435	0.630599	0.532861
43589	-0.087207	6.892908	-1.438076	-0.348138	-0.443210	0.631126	0.532959
43590	-0.206267	6.429112	-1.882926	-0.347982	-0.442624	0.632081	0.532415
43591	-0.496673	7.752738	-2.054242	-0.347233	-0.442671	0.633059	0.531703
43592	-0.793380	8.305321	-2.027009	-0.346154	-0.442741	0.633787	0.531481
43593	-0.654805	8.665876	-1.825280	-0.344666	-0.442522	0.634640	0.531612
43594	0.045651	8.909864	-1.681463	-0.343502	-0.441762	0.635427	0.532057
43595	0.291049	8.733071	-1.520296	-0.343031	-0.440941	0.635801	0.532595
43596	-0.093563	8.919015	-1.388270	-0.342904	-0.440264	0.635745	0.533304
43597	-0.234339	9.147085	-1.323212	-0.342714	-0.439392	0.635435	0.534513
43598	-0.284903	10.257654	-1.184694	-0.342422	-0.438366	0.635165	0.535862
43599	-0.056322	11.426563	-0.934283	-0.342435	-0.436814	0.634520	0.537882
43600	0.265084	11.671814	-0.789730	-0.342813	-0.435114	0.633552	0.540154
43601	0.343799	11.966925	-0.680806	-0.343362	-0.433900	0.632560	0.541942
43602	-0.058363	13.399625	-0.302331	-0.343967	-0.433213	0.631458	0.543391
43603	-0.600750	13.973206	-0.035010	-0.344351	-0.432634	0.630062	0.545227
43604	-0.426085	14.273200	0.188541	-0.344063	-0.432071	0.628968	0.547114
43605	0.316252	14.264201	0.349548	-0.343697	-0.431624	0.628449	0.548293
43606	0.153998	14.295043	0.640300	-0.343370	-0.431659	0.628253	0.548695
43607	-0.362512	14.421588	0.785388	-0.342655	-0.432320	0.628589	0.548237
43608	-0.504713	14.507252	0.859915	-0.341132	-0.433465	0.629455	0.547287
43609	-0.140649	14.263662	0.757099	-0.339115	-0.435125	0.630995	0.545447
43610	0.041795	13.788751	0.645837	-0.336801	-0.437309	0.633121	0.542664
43611	0.154742	13.138444	0.437775	-0.334255	-0.440025	0.635820	0.538874
43612	-0.063356	12.499553	0.221427	-0.331277	-0.443330	0.638947	0.534285
43613	-0.111247	12.197090	-0.072057	-0.327584	-0.447216	0.642514	0.529020
43614	-0.076293	11.935531	-0.518305	-0.323338	-0.451743	0.646394	0.523025
43615	-0.145230	11.424167	-0.951618	-0.318675	-0.456968	0.650373	0.516374
43616	-0.068831	10.793057	-1.523825	-0.313944	-0.462768	0.654252	0.509155
43617	0.006518	10.158501	-2.085650	-0.309635	-0.468914	0.657848	0.501479
43618	-0.147188	9.514319	-2.410583	-0.306061	-0.475051	0.661010	0.493679
43619	-0.669291	8.900284	-2.679894	-0.303188	-0.480754	0.663671	0.486307
43620	-0.989323	8.483723	-2.874062	-0.300656	-0.485733	0.665889	0.479855
43621	-0.908325	8.237691	-3.008771	-0.298378	-0.489915	0.667720	0.474451
43622	-0.739895	8.022391	-3.147917	-0.296456	-0.493530	0.669050	0.470014
43623	-0.541482	7.766037	-3.283944	-0.295167	-0.496492	0.669778	0.466657
43624	-0.662284	7.370927	-3.409627	-0.294547	-0.498891	0.669998	0.464169
43625	-0.811194	6.906500	-3.459569	-0.294254	-0.500924	0.669780	0.462476
43626	-0.803029	6.505900	-3.467816	-0.293920	-0.502776	0.669329	0.461331
43627	-0.764296	6.452443	-3.582113	-0.293496	-0.504575	0.668836	0.460350
43628	-0.873356	6.687822	-3.580570	-0.292925	-0.506405	0.668255	0.459548
43629	-0.789392	6.692676	-3.627719	-0.292337	-0.508128	0.667518	0.459091
43630	-0.760415	6.635307	-3.706034	-0.291749	-0.509779	0.666735	0.458772
43631	-0.718578	6.809972	-3.774446	-0.291143	-0.511355	0.666018	0.458445
43632	-0.637275	7.051014	-3.763234	-0.290760	-0.512812	0.665280	0.458133
43633	-0.630166	7.314942	-3.826897	-0.290615	-0.514106	0.664471	0.457948
43634	-0.642664	7.711258	-3.797654	-0.290877	-0.515169	0.663547	0.457927
43635	-0.627046	7.943195	-3.673920	-0.291650	-0.515897	0.662331	0.458376
43636	-0.596058	7.877767	-3.605087	-0.293059	-0.516240	0.660810	0.459286
43637	-0.594594	7.722128	-3.657337	-0.294934	-0.516263	0.659150	0.460442
43638	-0.615125	7.777129	-3.764074	-0.297024	-0.516110	0.657505	0.461621
43639	-0.627824	7.829865	-3.808891	-0.299165	-0.515832	0.655935	0.462783
43640	-0.588173	7.798708	-3.778092	-0.301247	-0.515516	0.654404	0.463949
43641	-0.336171	7.381261	-3.763703	-0.303312	-0.515210	0.652875	0.465097
43642	-0.299926	7.095869	-4.129580	-0.305047	-0.515350	0.651655	0.465517
43643	-0.455884	7.608370	-4.580867	-0.306075	-0.516151	0.650923	0.464980
43644	-0.608473	8.832313	-4.951323	-0.306429	-0.517486	0.650686	0.463592
43645	-0.730403	9.614389	-4.960931	-0.306652	-0.518836	0.650487	0.462212
43646	-0.806343	9.419140	-4.964113	-0.306958	-0.520029	0.650200	0.461071
43647	-0.972723	9.013564	-5.262168	-0.307048	-0.521312	0.650027	0.459804
43648	-1.226410	9.048478	-5.554755	-0.306610	-0.522782	0.650162	0.458234
43649	-1.300981	8.735635	-6.014068	-0.305523	-0.524357	0.650734	0.456344
43650	-1.401646	8.715518	-6.351820	-0.303724	-0.525990	0.651985	0.453874
43651	-1.191774	8.931804	-6.435852	-0.301432	-0.527573	0.653793	0.450955
43652	-1.130653	9.062733	-6.601220	-0.299070	-0.528983	0.655883	0.447830
43653	-1.027022	9.121744	-6.948440	-0.296558	-0.530264	0.658136	0.444669
43654	-0.871923	9.377037	-7.157929	-0.293945	-0.531357	0.660498	0.441587
43655	-0.608639	9.435741	-7.182796	-0.291695	-0.532030	0.662853	0.438731
43656	-0.732991	9.231199	-6.910053	-0.289835	-0.532385	0.664874	0.436468
43657	-0.724914	8.853762	-6.679693	-0.288238	-0.532434	0.666421	0.435105
43658	-0.669268	8.518899	-6.702291	-0.286712	-0.532318	0.667565	0.434501
43659	-0.677796	8.279691	-6.656386	-0.285343	-0.532165	0.668226	0.434572
43660	-0.630291	8.007827	-6.613787	-0.284058	-0.532051	0.668547	0.435061
43661	-0.841150	8.301807	-6.435240	-0.283015	-0.531892	0.668583	0.435879
43662	-1.344848	8.751360	-6.221910	-0.282250	-0.531600	0.668116	0.437443
43663	-1.805704	9.001361	-6.045439	-0.281794	-0.531013	0.666935	0.440244
43664	-2.090788	8.524992	-5.851606	-0.281569	-0.530071	0.665146	0.444213
43665	-2.167924	7.769260	-5.648400	-0.281514	-0.528854	0.663085	0.448756
43666	-2.460270	7.311225	-5.442722	-0.281660	-0.527454	0.661091	0.453230
43667	-2.959088	7.247506	-5.163630	-0.281841	-0.525759	0.659439	0.457476
43668	-3.188790	7.473595	-4.820788	-0.282101	-0.523596	0.657967	0.461894
43669	-3.207732	7.728385	-4.546176	-0.282657	-0.520898	0.656484	0.466690
43670	-3.169968	7.397990	-4.290083	-0.283758	-0.517630	0.654860	0.471910
43671	-3.174704	6.786460	-4.004208	-0.285367	-0.513815	0.653304	0.477236
43672	-3.187327	6.307138	-3.741298	-0.287247	-0.509588	0.651964	0.482444
43673	-2.676788	6.080837	-3.476898	-0.289381	-0.505001	0.650828	0.487500
43674	-2.026177	6.386780	-3.303612	-0.292220	-0.500163	0.649906	0.492003
43675	-1.670945	6.855741	-3.108904	-0.296220	-0.494832	0.648871	0.496348
43676	-1.172112	6.578249	-2.839249	-0.301383	-0.488959	0.647591	0.500713
43677	-0.823054	5.997264	-2.561573	-0.307062	-0.483072	0.646144	0.504830
43678	-0.071840	5.812156	-2.416312	-0.312564	-0.477610	0.644843	0.508301
43679	0.836110	6.323966	-2.305889	-0.318212	-0.472611	0.643785	0.510804
43680	1.511899	7.289353	-2.033234	-0.324545	-0.467675	0.642657	0.512780
43681	1.742371	7.375972	-1.714479	-0.331465	-0.462742	0.641042	0.514845
43682	1.870479	7.299777	-1.428765	-0.338149	-0.458136	0.639197	0.516909
43683	2.440012	8.165152	-1.318904	-0.344095	-0.454002	0.637160	0.519142
43684	3.229238	9.502403	-1.287055	-0.349885	-0.450374	0.634787	0.521334
43685	3.105056	10.515982	-0.996626	-0.355959	-0.446958	0.631642	0.523975
43686	2.805638	10.520807	-0.534006	-0.361543	-0.443784	0.627742	0.527525
43687	3.053640	10.089911	-0.219304	-0.365970	-0.441242	0.623225	0.531941
43688	3.509425	9.748004	-0.165383	-0.369197	-0.439942	0.618248	0.536576
43689	3.659902	10.385518	-0.040380	-0.371710	-0.440083	0.612750	0.541014
43690	3.551293	11.562503	0.356165	-0.374286	-0.441379	0.606387	0.545333
43691	3.013466	11.610682	0.726571	-0.377139	-0.443657	0.598614	0.550087
43692	1.791907	11.038698	1.082881	-0.379260	-0.447489	0.589646	0.555187
43693	1.070742	11.334673	1.333568	-0.379832	-0.452411	0.580228	0.560703
43694	1.484047	11.607559	1.575625	-0.379665	-0.457957	0.570591	0.566177
43695	1.295114	11.635069	1.716342	-0.379562	-0.464355	0.560717	0.570880
43696	0.089392	12.608620	2.068899	-0.379385	-0.471439	0.550965	0.574674
43697	-0.841914	13.296318	2.301198	-0.378744	-0.478835	0.541429	0.578035
43698	-1.502155	13.310077	2.771484	-0.377425	-0.486187	0.532303	0.581228
43699	-1.533768	13.004048	2.993048	-0.375840	-0.493363	0.523889	0.583848
43700	-1.932308	12.780407	3.362258	-0.373978	-0.500656	0.516482	0.585432
43701	-2.524615	12.510653	3.482973	-0.371748	-0.508176	0.510202	0.585879
43702	-3.362358	12.747540	3.579304	-0.368572	-0.515944	0.505044	0.585566
43703	-3.487504	12.257620	3.443514	-0.364705	-0.523531	0.500874	0.584834
43704	-3.861030	11.627612	3.017028	-0.360151	-0.531136	0.497945	0.583299
43705	-4.062869	11.869840	2.614510	-0.354956	-0.538576	0.496266	0.581087
43706	-4.236766	11.792201	2.434825	-0.349629	-0.545592	0.495010	0.578838
43707	-4.094111	10.477406	2.082169	-0.344028	-0.552557	0.494028	0.576422
43708	-4.823275	9.324975	1.527187	-0.337756	-0.559971	0.493829	0.573138
43709	-5.393718	9.376225	0.978783	-0.330313	-0.567643	0.494648	0.569208
43710	-5.412515	9.782254	0.340081	-0.322731	-0.575104	0.495990	0.564884
43711	-6.293630	9.681168	-0.318007	-0.315720	-0.581986	0.497380	0.560559
43712	-7.491296	8.866042	-0.808737	-0.309063	-0.587593	0.499120	0.556860
43713	-8.060479	8.023502	-1.158070	-0.302189	-0.591558	0.501619	0.554183
43714	-6.967641	7.950497	-1.294589	-0.295368	-0.594159	0.504832	0.552157
43715	-6.321178	7.766547	-1.551015	-0.289942	-0.596063	0.508152	0.549931
43716	-6.668908	7.091183	-1.666781	-0.285863	-0.597251	0.511605	0.547571
43717	-7.195570	6.199059	-2.061135	-0.282304	-0.597812	0.515427	0.545215
43718	-7.135074	6.075937	-2.388259	-0.278568	-0.597674	0.519914	0.543023
43719	-6.764851	6.171651	-2.733281	-0.274915	-0.596705	0.524919	0.541133
43720	-6.030520	6.571309	-3.003006	-0.271707	-0.594779	0.530585	0.539345
43721	-5.566665	6.743303	-3.151224	-0.269612	-0.591758	0.536641	0.537725
43722	-5.155800	6.468793	-3.220158	-0.268464	-0.587685	0.542978	0.536404
43723	-5.044887	5.697243	-3.339556	-0.267951	-0.582862	0.549464	0.535317
43724	-4.748136	5.404006	-3.417650	-0.267424	-0.577356	0.556575	0.534199
43725	-4.258134	5.166546	-3.797626	-0.266797	-0.571481	0.564253	0.532773
43726	-3.930273	5.607604	-4.027139	-0.265842	-0.565446	0.572514	0.530874
43727	-3.349953	5.356648	-4.212250	-0.264677	-0.559275	0.580938	0.528837
43728	-2.840488	5.308635	-4.577378	-0.263190	-0.553426	0.589891	0.525813
43729	-2.535529	5.712610	-4.748260	-0.261733	-0.547786	0.599246	0.521852
43730	-2.326236	5.815612	-4.995575	-0.260414	-0.542411	0.608774	0.517078
43731	-2.263257	6.036872	-5.247176	-0.259303	-0.537153	0.618547	0.511496
43732	-2.181858	6.752976	-5.575198	-0.258280	-0.531922	0.628573	0.505219
43733	-1.956158	7.531138	-5.908536	-0.257580	-0.526471	0.638580	0.498694
43734	-1.700851	7.675122	-6.266048	-0.257458	-0.520766	0.648302	0.492161
43735	-1.582705	7.790890	-6.390161	-0.257752	-0.514920	0.657766	0.485557
43736	-1.640928	7.359821	-6.572847	-0.258376	-0.509081	0.666866	0.478923
43737	-1.471147	7.123676	-6.543465	-0.258995	-0.503272	0.675743	0.472240
43738	-1.133464	6.832587	-6.560835	-0.259804	-0.497453	0.684529	0.465255
43739	-0.751824	6.718995	-6.520206	-0.261096	-0.491352	0.693301	0.457969
43740	-0.391509	6.477587	-6.617694	-0.263188	-0.484876	0.702048	0.450283
43741	-0.228671	6.506597	-6.637422	-0.266138	-0.477933	0.710639	0.442428
43742	0.170394	6.006398	-6.648478	-0.269849	-0.470469	0.718964	0.434662
43743	0.759249	5.617931	-6.778872	-0.274005	-0.462901	0.727005	0.426740
43744	1.787717	5.942195	-6.986135	-0.278770	-0.455392	0.734859	0.418196
43745	2.325216	6.446702	-7.103498	-0.284971	-0.447640	0.742268	0.409206
43746	2.343983	7.229058	-6.970344	-0.292385	-0.439672	0.748995	0.400257
43747	2.685372	7.610025	-6.726849	-0.300802	-0.431147	0.754616	0.392664
43748	3.093373	7.016644	-6.926672	-0.309591	-0.422641	0.759212	0.386168
43749	3.704320	7.345282	-6.982275	-0.318276	-0.414528	0.763026	0.380338
43750	4.358166	7.597652	-7.034016	-0.327167	-0.406819	0.766053	0.374996
43751	4.480416	8.128714	-6.646755	-0.336247	-0.399559	0.768155	0.370443
43752	4.903972	8.108999	-6.408726	-0.345286	-0.392651	0.769304	0.367116
43753	5.339350	8.331056	-6.179658	-0.354246	-0.386186	0.769573	0.364865
43754	5.640405	8.117525	-5.897341	-0.363288	-0.380172	0.768803	0.363913
43755	5.888024	7.757638	-5.602628	-0.372381	-0.374815	0.767037	0.364006
43756	5.754523	7.868376	-5.266360	-0.381557	-0.370421	0.764270	0.364820
43757	5.296625	8.288727	-4.670627	-0.390687	-0.366545	0.760577	0.366785
43758	5.017017	8.408512	-4.135750	-0.399505	-0.362907	0.756126	0.370092
43759	4.628324	8.884588	-3.767705	-0.407572	-0.359592	0.751070	0.374796
43760	4.774093	8.826668	-3.463733	-0.414865	-0.356086	0.745530	0.381150
43761	5.304246	8.039062	-3.204848	-0.421555	-0.352930	0.739697	0.388046
43762	5.416465	8.039224	-2.839627	-0.427867	-0.350892	0.733509	0.394675
43763	4.610164	8.566925	-2.376081	-0.433679	-0.349807	0.726888	0.401486
43764	4.125878	8.497459	-2.177200	-0.438536	-0.349199	0.719926	0.409210
43765	4.231307	8.217465	-1.989762	-0.442365	-0.349216	0.712906	0.417284
43766	4.425370	7.765893	-1.806049	-0.445407	-0.350092	0.705915	0.425125
43767	4.219809	8.009982	-1.593942	-0.447690	-0.352114	0.699038	0.432359
43768	4.536431	8.890063	-1.289521	-0.449592	-0.354687	0.692077	0.439424
43769	4.147210	9.260261	-1.045483	-0.451547	-0.357423	0.684723	0.446664
43770	3.833382	9.615078	-0.815793	-0.452972	-0.360190	0.677318	0.454224
43771	3.900060	9.738024	-0.588997	-0.453697	-0.362926	0.669968	0.462154
43772	4.216095	9.740357	-0.490317	-0.453859	-0.365908	0.662554	0.470261
43773	4.322258	10.505283	-0.429741	-0.453679	-0.369172	0.655219	0.478095
43774	4.372131	11.437226	-0.260180	-0.453386	-0.372433	0.647755	0.485951
43775	4.313477	11.682518	0.179479	-0.452854	-0.375561	0.640072	0.494150
43776	4.465226	11.560779	0.736983	-0.452117	-0.378866	0.632105	0.502488
43777	4.218735	11.151135	1.231773	-0.450861	-0.383038	0.623542	0.511079
43778	3.534190	10.654693	1.740519	-0.448734	-0.388272	0.614809	0.519512
43779	3.155379	10.094263	2.072740	-0.445445	-0.394263	0.606504	0.527529
43780	3.130712	10.202193	2.239355	-0.441525	-0.400831	0.598845	0.534580
43781	2.914134	10.407584	2.200683	-0.437701	-0.407839	0.591243	0.540849
43782	1.584034	10.026395	2.150964	-0.433601	-0.415675	0.583707	0.546343
43783	0.379152	9.767663	2.379732	-0.428242	-0.423801	0.576932	0.551499
43784	0.544139	10.089134	2.600318	-0.421958	-0.431749	0.571376	0.555944
43785	0.625673	10.707838	2.546138	-0.415688	-0.439722	0.566207	0.559694
43786	-0.394209	10.891017	2.473585	-0.409466	-0.447908	0.560979	0.563044
43787	-1.375481	11.001767	2.444014	-0.402823	-0.455874	0.556231	0.566144
43788	-1.518367	11.305569	2.539867	-0.395996	-0.463026	0.552578	0.568728
43789	-1.397988	11.148979	2.913079	-0.389752	-0.469152	0.549576	0.570926
43790	-1.491655	10.181721	2.873591	-0.383919	-0.475024	0.547113	0.572386
43791	-2.302431	9.706009	2.732724	-0.378033	-0.481344	0.544928	0.573108
43792	-2.953149	8.992290	2.098485	-0.371229	-0.488121	0.543529	0.573151
43793	-3.035539	9.660758	1.691481	-0.363678	-0.495704	0.542607	0.572358
43794	-3.468004	10.086221	1.288508	-0.356345	-0.503513	0.541668	0.571041
43795	-4.517556	9.643629	1.064563	-0.349341	-0.511384	0.540559	0.569423
43796	-5.329194	9.218101	0.723973	-0.342652	-0.519084	0.539206	0.567801
43797	-5.866006	9.258251	0.317260	-0.336289	-0.526305	0.538192	0.565917
43798	-5.565149	9.575924	0.023234	-0.330547	-0.533042	0.537410	0.563733
43799	-5.601704	9.478747	-0.481644	-0.325929	-0.539453	0.536472	0.561212
43800	-5.890810	8.801420	-1.012287	-0.322231	-0.545425	0.535526	0.558472
43801	-6.046219	7.983785	-1.616784	-0.318948	-0.550789	0.535129	0.555464
43802	-5.963176	8.289566	-1.990818	-0.315595	-0.555720	0.535460	0.552139
43803	-5.108902	9.264898	-2.152387	-0.312793	-0.560113	0.535915	0.548843
43804	-5.001873	9.288223	-2.447344	-0.311538	-0.564058	0.535623	0.545794
43805	-5.647260	8.227707	-2.839826	-0.310988	-0.567384	0.535021	0.543244
43806	-5.789504	7.421489	-3.256293	-0.310016	-0.570104	0.534963	0.541004
43807	-5.505578	7.307571	-3.598533	-0.308095	-0.572261	0.535866	0.538927
43808	-4.495809	7.950288	-3.723140	-0.305790	-0.573978	0.537492	0.536790
43809	-4.061486	8.115401	-3.896920	-0.304008	-0.575401	0.539174	0.534588
43810	-4.228933	7.737344	-3.879716	-0.302504	-0.576639	0.540698	0.532564
43811	-4.261948	7.203606	-3.899149	-0.300706	-0.577734	0.542217	0.530847
43812	-4.294502	6.864538	-4.060437	-0.298401	-0.578545	0.544098	0.529339
43813	-4.135078	6.765604	-4.201653	-0.295637	-0.578877	0.546750	0.527792
43814	-3.739381	7.041463	-4.300385	-0.292687	-0.578595	0.550266	0.526089
43815	-3.288238	7.286775	-4.336457	-0.289972	-0.577674	0.554359	0.524304
43816	-2.939473	7.492670	-4.277164	-0.287700	-0.576227	0.558774	0.522458
43817	-2.731496	7.418496	-4.206364	-0.285870	-0.574312	0.563300	0.520708
43818	-2.464233	7.142512	-4.242743	-0.284427	-0.571974	0.567990	0.518975
43819	-2.409626	7.110233	-4.305412	-0.283179	-0.569226	0.573091	0.517067
43820	-2.418798	7.592905	-4.458216	-0.281907	-0.566002	0.578735	0.515011
43821	-2.309870	8.038214	-4.591928	-0.280524	-0.562017	0.584790	0.513286
43822	-1.849573	8.226735	-4.753249	-0.279110	-0.557163	0.591323	0.511864
43823	-1.389197	8.253495	-4.929080	-0.277833	-0.551651	0.598246	0.510482
43824	-1.246069	8.085178	-5.116602	-0.276613	-0.545853	0.605330	0.509024
43825	-1.095284	7.812121	-5.308740	-0.274966	-0.540227	0.612496	0.507343
43826	-0.666098	7.921278	-5.455064	-0.272960	-0.534925	0.619667	0.505332
43827	-0.397381	8.351233	-5.469013	-0.271124	-0.530007	0.626636	0.502904
43828	-0.555160	8.528175	-5.542157	-0.269572	-0.525573	0.633038	0.500367
43829	-0.561462	8.783637	-5.447173	-0.268207	-0.521593	0.638802	0.497934
43830	-0.392438	8.631757	-5.296633	-0.267149	-0.518027	0.643890	0.495665
43831	-0.141807	8.566405	-5.127670	-0.266495	-0.514832	0.648425	0.493430
43832	0.145769	8.576839	-5.021702	-0.266437	-0.511849	0.652417	0.491299
43833	0.141408	9.268129	-4.883979	-0.267022	-0.509076	0.655974	0.489119
43834	-0.093119	9.584649	-4.785729	-0.268218	-0.506331	0.658656	0.487709
43835	-0.229042	9.323073	-4.595285	-0.269445	-0.503765	0.660521	0.487169
43836	-0.345000	8.810747	-4.427646	-0.270646	-0.501482	0.661686	0.487276
43837	-0.536875	8.545952	-4.143165	-0.271665	-0.499456	0.662446	0.487757
43838	-0.573313	8.361353	-4.055744	-0.272826	-0.497518	0.662915	0.488453
43839	-0.954976	8.351343	-3.881853	-0.274114	-0.495729	0.663120	0.489271
43840	-1.205558	7.886698	-3.872662	-0.275515	-0.494149	0.662962	0.490296
43841	-2.352820	8.333412	-3.879244	-0.276295	-0.493075	0.662659	0.491346
43842	-2.666855	9.167923	-3.755601	-0.276169	-0.491925	0.662008	0.493443
43843	-2.714626	9.637208	-3.693483	-0.275729	-0.490623	0.660972	0.496365
43844	-2.930318	9.230569	-3.413730	-0.275540	-0.488738	0.659497	0.500276
43845	-3.577918	7.875332	-3.284862	-0.275319	-0.486518	0.658197	0.504258
43846	-4.016932	7.471767	-3.176357	-0.274211	-0.483968	0.657718	0.507928
43847	-3.685082	7.811911	-3.190217	-0.272225	-0.480971	0.658290	0.511091
43848	-3.036345	8.265264	-2.903633	-0.270284	-0.477247	0.659537	0.513997
43849	-3.073908	8.066295	-2.844162	-0.268478	-0.472834	0.661348	0.516688
43850	-2.935295	8.922859	-2.846807	-0.266160	-0.467700	0.663924	0.519250
43851	-2.291386	8.863928	-2.862119	-0.263739	-0.461633	0.666936	0.522047
43852	-2.457647	10.073906	-2.747459	-0.260848	-0.454592	0.670388	0.525247
43853	-1.561646	10.303015	-2.306719	-0.258025	-0.446003	0.673753	0.529680
43854	-1.636721	9.534509	-2.222447	-0.255230	-0.436290	0.677139	0.534781
43855	-2.274157	10.222830	-2.223712	-0.250618	-0.425715	0.681164	0.540345
43856	-1.236823	8.962512	-2.218815	-0.244136	-0.413831	0.685618	0.546872
43857	-0.844492	9.261798	-2.472508	-0.235817	-0.401476	0.691235	0.552632
43858	-0.720156	10.084695	-2.413354	-0.226242	-0.388036	0.697399	0.558460
43859	-0.723718	10.072532	-2.342182	-0.215517	-0.373074	0.703967	0.564622
43860	-0.290914	10.221503	-2.610659	-0.203729	-0.356332	0.711071	0.570877
43861	0.075005	10.840452	-3.240541	-0.191280	-0.338066	0.718730	0.576671
43862	0.276083	10.822173	-3.499238	-0.178258	-0.318551	0.726414	0.582298
43863	0.286002	10.096443	-3.477525	-0.164487	-0.298532	0.733909	0.587537
43864	0.329052	9.671047	-3.342675	-0.149760	-0.278422	0.740991	0.592440
43865	0.518869	9.625872	-3.266345	-0.134588	-0.258421	0.747363	0.597121
43866	0.090595	9.613157	-3.295637	-0.119112	-0.238605	0.752913	0.601667
43867	0.462480	10.015854	-3.444013	-0.103425	-0.218871	0.757671	0.606081
43868	0.402529	10.237549	-3.339362	-0.088040	-0.199323	0.761346	0.610632
43869	-0.060828	9.972570	-3.153739	-0.072581	-0.179824	0.764033	0.615345
43870	-0.346656	9.775565	-2.983645	-0.056630	-0.160254	0.765808	0.620201
43871	-0.618542	9.369172	-2.874765	-0.039739	-0.140561	0.766717	0.625147
43872	0.003929	8.699057	-2.918129	-0.021755	-0.120655	0.766856	0.630001
43873	0.926512	7.882817	-3.068920	-0.003653	-0.100969	0.766739	0.633958
43874	1.395768	7.997749	-3.012971	0.013799	-0.081981	0.766738	0.636554
43875	1.803502	8.665531	-2.825103	0.029962	-0.064273	0.766835	0.637915
43876	1.426453	9.892957	-2.360127	0.044693	-0.048148	0.766558	0.638806
43877	1.061945	10.250345	-1.866253	0.058583	-0.033653	0.765395	0.640005
43878	0.913556	9.743471	-1.513381	0.071767	-0.020872	0.763616	0.641331
43879	0.592268	9.183831	-1.302383	0.084162	-0.009378	0.761915	0.642118
43880	0.357893	9.096723	-1.279017	0.095536	0.001295	0.760750	0.641975
43881	0.217875	9.441759	-1.216259	0.105860	0.011444	0.760175	0.640935
43882	0.435486	9.318468	-1.275602	0.114901	0.021237	0.760017	0.639313
43883	0.227874	9.232970	-1.255081	0.122607	0.030695	0.760374	0.637069
43884	-0.556272	8.842143	-1.256715	0.129724	0.039693	0.760994	0.634417
43885	-1.109240	9.070050	-1.285517	0.137225	0.048734	0.762139	0.630823
43886	-0.738653	9.552212	-1.544547	0.144847	0.058144	0.763252	0.626965
43887	-0.840660	10.049739	-1.639139	0.152340	0.068020	0.764247	0.622970
43888	-0.550461	9.361419	-1.851554	0.159598	0.078339	0.764999	0.619005
43889	-0.452694	9.124289	-1.930906	0.166607	0.088890	0.765608	0.614967
43890	-0.666015	8.898264	-2.102836	0.173349	0.099407	0.766393	0.610500
43891	-0.806679	9.143187	-2.194736	0.180201	0.109799	0.767033	0.605915
43892	-1.097499	10.107413	-2.683744	0.186894	0.120039	0.767673	0.601115
43893	-1.017305	11.141006	-2.428420	0.193836	0.130041	0.767413	0.597155
43894	-0.494909	9.243454	-2.362857	0.200156	0.139625	0.766351	0.594263
43895	-1.002968	9.308035	-2.128656	0.205835	0.148576	0.765185	0.591650
43896	-1.208232	8.087654	-2.134922	0.211496	0.156673	0.763788	0.589364
43897	-1.825465	8.646176	-2.333036	0.217247	0.163904	0.762954	0.586380
43898	-2.264435	9.617924	-2.696574	0.223348	0.170549	0.762215	0.583143
43899	-2.949642	9.787106	-2.817657	0.229903	0.176867	0.761390	0.579783
43900	-3.390395	9.344780	-2.752387	0.236907	0.183446	0.760471	0.576113
43901	-3.500034	8.918352	-2.732296	0.243882	0.190640	0.759451	0.572199
43902	-3.450800	9.289760	-3.025655	0.250069	0.198773	0.758469	0.568049
43903	-3.971009	10.038674	-3.197130	0.255854	0.207637	0.757111	0.564100
43904	-4.048258	10.078810	-3.350579	0.261937	0.216989	0.755138	0.560420
43905	-4.159577	9.993106	-3.107076	0.268727	0.226491	0.752446	0.557057
43906	-3.780770	8.827948	-3.045874	0.276068	0.236158	0.749197	0.553822
43907	-3.862690	7.914297	-2.966665	0.283563	0.246080	0.745743	0.550367
43908	-3.770765	7.231539	-3.136749	0.290905	0.256756	0.742606	0.545882
43909	-3.703534	7.627320	-3.249952	0.298122	0.268200	0.739619	0.540514
43910	-3.874181	8.192708	-3.265303	0.305366	0.280295	0.736594	0.534430
43911	-4.147323	8.480632	-3.153352	0.313277	0.292855	0.732887	0.528176
43912	-4.523687	7.998445	-3.069438	0.322182	0.305967	0.728316	0.521670
43913	-4.851512	7.969109	-3.282468	0.332027	0.320194	0.723029	0.514260
43914	-4.756780	8.901038	-3.393769	0.343046	0.335549	0.716636	0.506122
43915	-4.231387	9.080425	-3.364649	0.354783	0.351859	0.708875	0.497817
43916	-3.617488	8.764794	-3.150579	0.366919	0.368739	0.699708	0.489705
43917	-2.993719	9.210173	-3.144555	0.378858	0.385709	0.689640	0.481760
43918	-2.588868	9.222455	-2.960151	0.390622	0.402086	0.678703	0.474451
43919	-2.600405	8.640825	-2.922079	0.402200	0.418157	0.667302	0.466998
43920	-1.876388	9.094188	-2.891103	0.413313	0.434005	0.655749	0.459135
43921	-1.485333	9.490174	-2.979032	0.423603	0.449772	0.644132	0.450955
43922	-1.368720	10.096640	-2.963505	0.433643	0.465158	0.632237	0.442559
43923	-1.365154	11.682274	-3.487768	0.443262	0.480626	0.620532	0.432963
43924	-0.474629	12.941113	-3.303204	0.453852	0.495435	0.607697	0.423399
43925	0.696659	10.304460	-2.683901	0.464551	0.509512	0.594164	0.414197
43926	0.518903	8.863692	-2.216542	0.474903	0.523215	0.580532	0.404594
43927	0.824572	9.051251	-2.607336	0.484770	0.536952	0.567461	0.393278
43928	1.785615	9.574125	-2.922322	0.494003	0.550288	0.554823	0.381202
43929	2.102037	8.700299	-2.891819	0.501783	0.563597	0.542594	0.369006
43930	1.835753	9.195323	-2.686133	0.508220	0.576631	0.530946	0.356800
43931	1.696619	9.835002	-2.519735	0.514267	0.588931	0.519331	0.344942
43932	1.479396	9.749038	-2.372405	0.520504	0.599846	0.507852	0.333687
43933	0.894841	9.513660	-2.273715	0.527135	0.609454	0.496670	0.322511
43934	0.715961	9.092768	-2.346202	0.533999	0.618224	0.485779	0.310906
43935	0.411904	9.472623	-2.321999	0.540845	0.626446	0.475082	0.298912
43936	0.236162	9.455538	-2.367827	0.547493	0.634395	0.464229	0.286856
43937	-0.285234	9.846462	-2.433659	0.553947	0.642075	0.453320	0.274561
43938	-0.715260	9.718882	-2.459527	0.560546	0.649393	0.442214	0.261772
43939	-0.952862	9.011971	-2.503964	0.566985	0.656664	0.430833	0.248401
43940	-1.436997	8.452631	-2.572158	0.572855	0.664459	0.418849	0.234300
43941	-1.271302	8.752625	-2.738524	0.577922	0.672953	0.406154	0.219499
43942	-0.803116	8.801170	-2.943389	0.582136	0.681752	0.392887	0.204868
43943	-0.761113	9.088833	-3.115894	0.585345	0.690665	0.379519	0.190575
43944	-0.586640	9.201341	-3.219021	0.587879	0.699298	0.366296	0.176660
43945	-0.794537	8.812058	-3.442860	0.589724	0.707673	0.353303	0.163098
43946	-0.894575	8.902067	-3.631082	0.590675	0.716097	0.340533	0.149484
43947	-0.968700	9.013804	-3.715840	0.590999	0.724463	0.327623	0.136149
43948	-1.018018	8.934658	-3.846711	0.590777	0.732816	0.314330	0.123125
43949	-1.227124	9.401541	-4.063678	0.590138	0.741060	0.300605	0.110467
43950	-1.481560	9.304665	-4.053753	0.589735	0.748809	0.286191	0.097935
43951	-1.941166	9.162658	-3.977766	0.589458	0.756189	0.271019	0.085246
43952	-1.884568	8.855310	-3.909574	0.589485	0.763099	0.254880	0.072275
43953	-1.805532	9.832336	-3.809749	0.589524	0.769581	0.237984	0.059743
43954	-1.350878	7.445321	-3.681814	0.589986	0.775269	0.220407	0.047909
43955	-2.024808	9.957102	-3.907159	0.588985	0.781415	0.202882	0.036411
43956	-1.760049	10.054708	-3.728761	0.589083	0.786113	0.185413	0.025104
43957	-1.993140	10.315203	-3.448697	0.589451	0.789936	0.168367	0.014182
43958	-2.118526	9.607375	-3.213605	0.590526	0.792594	0.151866	0.003284
43959	-2.133944	8.801452	-3.261774	0.591400	0.794787	0.136024	-0.007587
43960	-2.203310	8.237150	-3.306937	0.591491	0.797007	0.120745	-0.018418
43961	-2.317351	7.444959	-3.400124	0.590367	0.799660	0.105682	-0.029020
43962	-2.536141	7.726641	-3.576383	0.587701	0.803039	0.090414	-0.039526
43963	-2.815912	8.662403	-3.775032	0.584231	0.806601	0.074617	-0.050005
43964	-3.274376	9.372147	-3.984278	0.580377	0.809986	0.058211	-0.060806
43965	-3.531144	9.480431	-4.166734	0.576685	0.812685	0.041292	-0.072612
43966	-3.510614	9.157734	-4.332765	0.573003	0.814714	0.024086	-0.085606
43967	-3.342340	8.166353	-4.292113	0.569007	0.816267	0.006378	-0.099490
43968	-3.247509	8.030261	-4.174830	0.564588	0.817396	-0.011807	-0.113860
43969	-2.985708	7.751118	-4.159460	0.559938	0.817964	-0.030134	-0.128436
43970	-3.081022	8.164971	-4.204496	0.554870	0.818141	-0.048700	-0.142802
43971	-3.222439	8.574349	-4.367629	0.549977	0.817502	-0.067253	-0.157138
43972	-3.560864	8.834625	-4.471381	0.545180	0.816073	-0.086132	-0.171421
43973	-3.742038	8.789746	-4.511200	0.540557	0.813656	-0.105469	-0.186112
43974	-3.734210	9.017251	-4.541577	0.535841	0.810365	-0.125571	-0.201035
43975	-3.716173	9.268711	-4.731718	0.531348	0.805951	-0.146268	-0.216142
43976	-3.980646	8.660418	-4.818829	0.526785	0.800460	-0.167844	-0.231493
43977	-4.128379	7.815625	-4.754914	0.521331	0.794126	-0.190778	-0.247350
43978	-3.951588	7.591165	-4.664028	0.514782	0.786929	-0.215079	-0.263595
43979	-3.419221	7.828097	-4.598744	0.507013	0.778710	-0.240699	-0.280378
43980	-2.706945	8.081600	-4.795077	0.498638	0.769403	-0.267473	-0.296373
43981	-2.192320	8.421314	-4.928528	0.489455	0.759125	-0.294458	-0.312182
43982	-1.331489	7.947155	-4.780966	0.479892	0.747936	-0.321093	-0.327406
43983	-0.873034	7.976243	-4.532583	0.469911	0.736364	-0.346724	-0.341664
43984	-0.626772	8.771897	-4.335096	0.459877	0.724627	-0.370786	-0.354888
43985	0.058665	8.092035	-3.886910	0.450419	0.712509	-0.392639	-0.367817
43986	0.748828	7.286369	-3.810525	0.441365	0.700851	-0.412718	-0.379037
43987	1.221267	8.210420	-3.904633	0.432868	0.689844	-0.430861	-0.388715
43988	1.429017	9.632671	-4.118559	0.425292	0.679532	-0.447356	-0.396529
43989	0.916515	12.130274	-4.228687	0.419153	0.669710	-0.461812	-0.403150
43990	0.797619	12.251397	-3.626885	0.415140	0.659495	-0.473897	-0.410057
43991	1.403433	10.184552	-3.058487	0.412242	0.649651	-0.483821	-0.417046
43992	1.867611	8.465075	-3.040751	0.409375	0.640889	-0.492185	-0.423589
43993	1.927857	8.676936	-3.407028	0.405719	0.633912	-0.500255	-0.428127
43994	1.635259	9.641350	-3.345513	0.402302	0.627619	-0.507930	-0.431572
43995	1.126261	9.723034	-2.907854	0.398866	0.621758	-0.515690	-0.434036
43996	0.910369	10.445502	-2.376427	0.395642	0.615824	-0.522803	-0.436927
43997	0.812561	10.457644	-2.097800	0.392602	0.609868	-0.528964	-0.440592
43998	0.836626	9.762438	-2.063983	0.390190	0.604017	-0.533941	-0.444772
43999	0.853973	9.276630	-2.328924	0.387748	0.598695	-0.538333	-0.448792
44000	0.940942	9.201326	-2.509300	0.385428	0.594066	-0.542240	-0.452224
44001	1.047886	8.963988	-2.493864	0.382819	0.590318	-0.545964	-0.454860
44002	0.746084	9.026964	-2.337770	0.380765	0.587368	-0.549389	-0.456277
44003	0.232750	9.032155	-2.366452	0.378211	0.585078	-0.552547	-0.457528
44004	0.283960	9.411491	-2.559037	0.375067	0.583375	-0.555591	-0.458603
44005	0.561679	9.339057	-2.770350	0.371685	0.582179	-0.558570	-0.459258
44006	0.555564	9.196959	-2.889917	0.368669	0.581279	-0.561155	-0.459676
44007	0.435890	8.983791	-2.960754	0.365623	0.580943	-0.563610	-0.459530
44008	0.437464	8.812096	-3.192121	0.362732	0.581148	-0.565783	-0.458891
44009	0.335806	8.919085	-3.321448	0.359777	0.581962	-0.567643	-0.457888
44010	0.155027	8.872080	-3.521782	0.356886	0.583249	-0.569133	-0.456663
44011	-0.181298	9.426159	-3.573116	0.353930	0.584785	-0.570403	-0.455413
44012	-0.456998	9.401731	-3.688504	0.351334	0.586087	-0.571517	-0.454351
44013	-0.660133	9.501828	-3.679032	0.349238	0.587113	-0.572490	-0.453416
44014	-0.887333	8.959819	-3.621487	0.347160	0.587809	-0.573357	-0.453014
44015	-0.965659	8.961998	-3.632980	0.345184	0.588343	-0.574298	-0.452639
44016	-1.261622	9.380222	-3.447464	0.343472	0.588773	-0.575018	-0.452468
44017	-1.473497	8.583298	-3.327408	0.342016	0.589124	-0.575458	-0.452554
44018	-1.948851	9.198282	-3.508217	0.340773	0.589521	-0.575810	-0.452528
44019	-1.996462	9.090172	-3.694549	0.339439	0.589732	-0.576329	-0.452595
44020	-1.981729	8.569197	-3.872342	0.338326	0.589774	-0.577236	-0.452218
44021	-2.186421	8.518840	-3.881483	0.337123	0.589678	-0.578751	-0.451304
44022	-2.537265	8.624573	-3.800172	0.335543	0.589396	-0.580544	-0.450546
44023	-2.718714	9.120115	-3.779139	0.333480	0.589155	-0.582415	-0.449977
44024	-2.808869	9.647379	-3.812838	0.331294	0.588641	-0.583950	-0.450277
44025	-2.591498	9.169985	-3.877013	0.329202	0.587892	-0.585177	-0.451194
44026	-2.211884	8.528944	-3.933520	0.327151	0.587000	-0.586361	-0.452310
44027	-1.996515	8.258392	-3.987521	0.325075	0.586224	-0.587658	-0.453129
44028	-1.877540	8.277220	-4.119573	0.322785	0.585722	-0.589350	-0.453217
44029	-1.898353	8.566106	-4.141539	0.320597	0.585382	-0.591195	-0.452807
44030	-1.939010	8.852050	-4.288902	0.318702	0.585207	-0.593023	-0.451979
44031	-2.211562	9.191105	-4.270622	0.316853	0.585191	-0.594603	-0.451225
44032	-2.319037	9.388262	-4.179064	0.315100	0.585386	-0.595676	-0.450782
44033	-2.466061	9.734931	-4.068937	0.313481	0.585679	-0.596007	-0.451094
44034	-2.375062	9.744918	-3.898474	0.312321	0.585860	-0.595491	-0.452344
44035	-2.231852	9.422540	-3.705109	0.311828	0.585873	-0.594273	-0.454264
44036	-2.120335	8.848481	-3.663866	0.312095	0.585659	-0.592705	-0.456401
44037	-2.092133	8.519630	-3.736042	0.312718	0.585393	-0.591167	-0.458305
44038	-2.112374	8.440646	-3.761399	0.313431	0.585334	-0.589794	-0.459661
44039	-2.122518	8.742804	-3.619756	0.313992	0.585486	-0.588553	-0.460675
44040	-1.999277	8.751050	-3.615542	0.314980	0.585705	-0.587326	-0.461286
44041	-2.019985	8.552844	-3.604866	0.316164	0.586043	-0.586117	-0.461585
44042	-2.023539	8.598209	-3.610514	0.317501	0.586659	-0.585041	-0.461250
44043	-2.101314	8.932905	-3.572274	0.319000	0.587501	-0.583965	-0.460506
44044	-2.349594	9.410255	-3.367321	0.320844	0.588403	-0.582779	-0.459576
44045	-2.693808	9.817277	-3.139542	0.323078	0.589079	-0.581308	-0.459006
44046	-2.447406	10.149603	-3.029719	0.325746	0.589335	-0.579587	-0.458969
44047	-1.924842	9.921638	-2.973217	0.329424	0.589071	-0.577593	-0.459197
44048	-1.551757	10.057811	-2.887152	0.333693	0.588632	-0.575491	-0.459317
44049	-2.013611	10.225161	-2.610408	0.338526	0.588070	-0.572859	-0.459789
44050	-2.273041	10.141489	-2.280631	0.343151	0.587242	-0.569658	-0.461392
44051	-1.525066	9.637462	-2.275330	0.347833	0.585814	-0.566219	-0.463929
44052	-1.034852	8.950935	-2.430260	0.352948	0.584011	-0.563127	-0.466097
44053	-1.232365	8.579060	-2.380760	0.357737	0.582344	-0.560418	-0.467794
44054	-1.244540	8.415447	-2.423263	0.361622	0.580854	-0.558023	-0.469520
44055	-0.888415	8.420346	-2.449618	0.364500	0.579846	-0.556122	-0.470794
44056	-0.111582	8.974645	-2.297042	0.367098	0.579064	-0.554555	-0.471586
44057	-0.100765	9.284460	-2.273689	0.369936	0.578609	-0.552701	-0.472103
44058	-0.129875	8.898633	-2.573979	0.372770	0.578651	-0.550595	-0.472283
44059	-0.269521	8.253775	-2.779160	0.374959	0.579532	-0.548621	-0.471766
44060	-0.503753	8.200617	-3.006684	0.375824	0.581382	-0.547319	-0.470312
44061	-0.706353	8.635627	-3.064469	0.375887	0.583698	-0.546804	-0.467986
44062	-1.276799	9.260776	-3.100254	0.375068	0.586178	-0.546812	-0.465527
44063	-1.445871	9.677281	-3.034992	0.373650	0.588456	-0.546942	-0.463639
44064	-1.201941	9.168489	-3.151185	0.371830	0.590446	-0.547200	-0.462263
44065	-0.971793	8.560334	-3.413110	0.369810	0.592360	-0.547827	-0.460691
44066	-0.904683	7.920518	-3.626671	0.367244	0.594409	-0.549106	-0.458577
44067	-0.910458	8.144614	-3.785965	0.364179	0.596781	-0.551139	-0.455492
44068	-1.178418	8.566519	-3.907553	0.360891	0.599114	-0.553366	-0.452334
44069	-1.229894	8.836933	-4.116696	0.357636	0.601236	-0.555582	-0.449379
44070	-1.263945	8.965099	-4.295819	0.354572	0.603105	-0.557710	-0.446657
44071	-1.377387	9.134093	-4.298005	0.351831	0.604688	-0.559615	-0.444296
44072	-1.445772	9.483187	-4.290408	0.349489	0.605929	-0.561124	-0.442547
44073	-1.362056	9.521088	-4.292749	0.347812	0.606760	-0.562089	-0.441502
44074	-1.321905	9.492770	-4.268283	0.346695	0.607249	-0.562658	-0.440984
44075	-1.252712	9.459252	-4.207764	0.346149	0.607386	-0.562968	-0.440828
44076	-1.327688	9.621231	-4.140807	0.346248	0.607193	-0.563050	-0.440912
44077	-1.398276	9.580425	-4.023589	0.346924	0.606635	-0.562865	-0.441386
44078	-1.477276	9.275797	-3.884531	0.347955	0.605796	-0.562560	-0.442115
44079	-1.263994	9.168078	-3.756300	0.349147	0.604765	-0.562296	-0.442922
44080	-1.175925	9.040341	-3.625432	0.350690	0.603542	-0.562107	-0.443609
44081	-1.444803	8.842880	-3.486946	0.352124	0.602432	-0.561930	-0.444206
44082	-1.429885	8.880020	-3.400556	0.353010	0.601558	-0.561756	-0.444906
44083	-1.149687	8.875945	-3.380478	0.353599	0.600879	-0.561587	-0.445569
44084	-1.091849	8.924133	-3.363671	0.354028	0.600379	-0.561531	-0.445974
44085	-1.159420	8.887470	-3.391696	0.354326	0.600026	-0.561568	-0.446164
44086	-1.184509	8.923716	-3.431581	0.354398	0.599827	-0.561701	-0.446208
44087	-1.074645	8.870417	-3.518145	0.354271	0.599748	-0.561915	-0.446147
44088	-1.046897	8.899449	-3.568983	0.353998	0.599880	-0.562176	-0.445857
44089	-1.123481	9.054686	-3.622137	0.353589	0.600250	-0.562396	-0.445405
44090	-1.301937	9.069050	-3.728902	0.353132	0.600655	-0.562418	-0.445194
44091	-1.284840	8.864908	-3.792492	0.352450	0.601154	-0.562379	-0.445110
44092	-1.271546	8.889442	-3.914974	0.351650	0.601675	-0.562372	-0.445047
44093	-1.333828	8.957997	-3.914585	0.350751	0.602275	-0.562468	-0.444824
44094	-1.541754	9.171766	-3.919951	0.349995	0.602789	-0.562549	-0.444620
44095	-1.554593	9.301870	-3.911200	0.349243	0.603179	-0.562560	-0.444670
44096	-1.560496	9.327686	-3.902520	0.348760	0.603295	-0.562537	-0.444920
44097	-1.560255	9.362175	-3.899260	0.348503	0.603049	-0.562443	-0.445573
44098	-1.543393	9.347245	-3.822500	0.348531	0.602530	-0.562327	-0.446399
44099	-1.666277	9.441923	-3.788065	0.348786	0.601810	-0.562082	-0.447477
44100	-1.826274	9.660163	-3.722467	0.348992	0.600943	-0.561570	-0.449123
44101	-1.806372	9.601398	-3.648218	0.349378	0.599794	-0.560732	-0.451400
44102	-1.657190	9.411020	-3.592562	0.349910	0.598301	-0.559604	-0.454359
44103	-1.661224	9.381881	-3.443003	0.350676	0.596562	-0.558359	-0.457576
44104	-1.814525	9.526248	-3.351210	0.351605	0.594497	-0.556789	-0.461447
44105	-1.799292	9.616905	-3.312881	0.352616	0.592083	-0.554719	-0.466248
44106	-1.743350	9.823547	-3.255801	0.353923	0.589264	-0.552088	-0.471917
44107	-2.253833	9.503929	-3.130709	0.355317	0.586021	-0.548646	-0.478870
44108	-2.973138	9.205970	-3.002614	0.355952	0.582517	-0.544359	-0.487489
44109	-3.367406	8.924198	-3.014294	0.355252	0.578634	-0.539526	-0.497886
44110	-2.813521	9.164476	-3.016836	0.353646	0.573833	-0.534594	-0.509764
44111	-2.423632	9.429917	-2.955651	0.352382	0.567854	-0.529928	-0.522059
44112	-2.490263	9.619849	-2.612125	0.352116	0.560674	-0.525447	-0.534382
44113	-3.413667	9.445539	-2.137703	0.352301	0.552573	-0.520792	-0.547104
44114	-4.279392	9.208694	-1.741924	0.351862	0.543665	-0.515762	-0.560902
44115	-4.619755	9.078700	-1.434277	0.350346	0.533758	-0.510569	-0.575916
44116	-3.859508	9.230692	-1.083641	0.348091	0.522459	-0.505683	-0.591738
44117	-2.735172	8.986134	-0.604747	0.346344	0.509806	-0.501364	-0.607271
44118	-2.334583	8.019371	-0.151650	0.345448	0.496601	-0.498118	-0.621234
44119	-2.781915	7.610422	0.508502	0.344077	0.483754	-0.496516	-0.633297
44120	-3.182417	7.385409	1.194925	0.341487	0.471504	-0.496628	-0.643763
44121	-3.473863	7.396499	1.540931	0.336797	0.459789	-0.498827	-0.652942
44122	-2.516091	8.175798	1.309226	0.330322	0.448569	-0.503362	-0.660530
44123	-1.518129	8.789773	0.814076	0.323239	0.438050	-0.509780	-0.666147
44124	-2.333542	9.430970	0.267640	0.315378	0.428497	-0.517451	-0.670202
44125	-3.698417	8.310693	-0.232717	0.305289	0.419416	-0.526205	-0.673793
44126	-4.482435	8.793420	-0.341283	0.292165	0.409809	-0.536721	-0.677219
44127	-4.414905	9.695933	-0.118346	0.277160	0.398111	-0.548150	-0.681338
44128	-4.674416	10.308723	0.206370	0.261468	0.382844	-0.560128	-0.686529
44129	-4.469711	10.059653	0.370609	0.245441	0.362847	-0.572709	-0.692896
44130	-4.127658	9.118563	0.232964	0.228594	0.338062	-0.585801	-0.700211
44131	-4.006548	7.566572	-0.325008	0.209629	0.308857	-0.600072	-0.707514
44132	-3.080338	7.505679	-1.132983	0.187298	0.275853	-0.615773	-0.713896
44133	-1.200246	7.810789	-1.987927	0.162571	0.239737	-0.631999	-0.718800
44134	0.324186	8.606155	-2.478822	0.136996	0.201866	-0.647575	-0.721893
44135	1.381532	9.224371	-2.547244	0.111560	0.163669	-0.661214	-0.723576
44136	2.130897	9.897439	-2.336579	0.086782	0.126115	-0.672378	-0.724204
44137	3.538295	10.753768	-1.998143	0.063774	0.090273	-0.680858	-0.724028
44138	4.428932	11.734798	-1.488350	0.043552	0.057431	-0.686354	-0.723688
44139	5.429095	11.573322	-1.067977	0.026586	0.028538	-0.689004	-0.723707
44140	5.744451	11.450361	-0.563488	0.012883	0.005021	-0.689811	-0.723857
44141	5.340851	10.893531	-0.341326	0.001905	-0.012664	-0.689501	-0.724172
44142	4.796725	10.440504	-0.159873	-0.007105	-0.024461	-0.689039	-0.724277
44143	4.149416	10.182097	-0.112931	-0.014372	-0.030895	-0.688945	-0.724012
44144	2.774452	10.402452	-0.085041	-0.020234	-0.033116	-0.689248	-0.723486
44145	1.322188	10.185490	-0.173700	-0.025300	-0.032670	-0.689707	-0.722909
44146	0.239579	9.923016	-0.310184	-0.030423	-0.030946	-0.690381	-0.722143
44147	-0.166788	9.642185	-0.506628	-0.035873	-0.028906	-0.691292	-0.721105
44148	-0.639807	9.696484	-0.523084	-0.041386	-0.027345	-0.692386	-0.719820
44149	-0.845936	9.645220	-0.652125	-0.046938	-0.026778	-0.693462	-0.718464
44150	-0.903814	9.405148	-0.604135	-0.052553	-0.027128	-0.694476	-0.717081
44151	-1.329223	10.303835	-0.709506	-0.058271	-0.028349	-0.695665	-0.715438
44152	-0.971755	10.634927	-0.465321	-0.064430	-0.030464	-0.696181	-0.714320
44153	-0.501359	9.781141	-0.278721	-0.070626	-0.032728	-0.696292	-0.713525
44154	-0.513494	10.296301	-0.203927	-0.076911	-0.034556	-0.696308	-0.712773
44155	-0.208930	9.936318	-0.076705	-0.083198	-0.035927	-0.695982	-0.712318
44156	-0.092975	9.578539	0.067140	-0.089086	-0.036635	-0.695732	-0.711814
44157	-0.285659	9.470370	0.236004	-0.094393	-0.036727	-0.695702	-0.711154
44158	-0.597926	9.233088	0.415600	-0.099117	-0.036564	-0.695811	-0.710413
44159	-1.187999	9.237792	0.592237	-0.103445	-0.036353	-0.696025	-0.709596
44160	-1.865351	9.637604	0.625338	-0.107979	-0.036559	-0.696236	-0.708703
44161	-1.939113	9.976907	0.619338	-0.112764	-0.037539	-0.696224	-0.707918
44162	-2.026999	9.927005	0.557950	-0.117887	-0.039356	-0.695967	-0.707237
44163	-1.779481	10.074284	0.522280	-0.123285	-0.041750	-0.695575	-0.706564
44164	-1.541192	9.978703	0.559953	-0.128903	-0.044304	-0.694814	-0.706154
44165	-1.535383	9.444534	0.604470	-0.134459	-0.046976	-0.693978	-0.705768
44166	-1.611113	9.290521	0.582885	-0.139942	-0.049722	-0.693338	-0.705142
44167	-1.644736	9.401688	0.631767	-0.145368	-0.052546	-0.692832	-0.704337
44168	-1.541861	9.418423	0.671743	-0.150496	-0.055459	-0.692433	-0.703428
44169	-1.503355	9.342202	0.686191	-0.155255	-0.058421	-0.692125	-0.702457
44170	-1.502766	9.346178	0.721234	-0.159645	-0.061448	-0.691995	-0.701342
44171	-1.532688	9.494108	0.745390	-0.163732	-0.064593	-0.691989	-0.700122
44172	-1.454418	9.698793	0.737935	-0.167554	-0.067862	-0.692112	-0.698786
44173	-1.247233	9.654714	0.763694	-0.171037	-0.071123	-0.692156	-0.697572
44174	-1.084311	9.494817	0.785177	-0.174105	-0.074344	-0.692247	-0.696387
44175	-0.962765	9.488308	0.764605	-0.176953	-0.077427	-0.692339	-0.695240
44176	-0.902261	9.744427	0.649711	-0.179492	-0.080254	-0.692599	-0.694009
44177	-0.914872	9.940816	0.577754	-0.181853	-0.082893	-0.692700	-0.692982
44178	-0.942553	9.793327	0.573956	-0.184087	-0.085531	-0.692690	-0.692082
44179	-0.885922	9.947898	0.617525	-0.186119	-0.088090	-0.692693	-0.691214
44180	-0.754659	10.039558	0.566346	-0.187899	-0.090355	-0.692616	-0.690516
44181	-0.768467	9.847839	0.515539	-0.189336	-0.092112	-0.692401	-0.690107
44182	-1.201569	9.780427	0.428514	-0.190724	-0.093541	-0.692236	-0.689698
44183	-1.266474	9.921638	0.339935	-0.192246	-0.094868	-0.692150	-0.689180
44184	-1.127530	9.869575	0.309938	-0.193859	-0.096085	-0.692060	-0.688650
44185	-1.105044	9.822104	0.271315	-0.195217	-0.097162	-0.692152	-0.688023
44186	-1.144822	9.608758	0.255958	-0.196400	-0.098257	-0.692204	-0.687478
44187	-1.204737	9.449615	0.259659	-0.197280	-0.099108	-0.692660	-0.686644
44188	-1.280310	9.590530	0.294839	-0.197898	-0.100043	-0.693271	-0.685714
44189	-1.260192	9.832156	0.258837	-0.198404	-0.100814	-0.693841	-0.684878
44190	-1.300608	9.762358	0.260240	-0.198762	-0.101286	-0.694264	-0.684275
44191	-1.524216	9.574611	0.204592	-0.199066	-0.101502	-0.694781	-0.683629
44192	-1.563560	9.714796	0.131795	-0.199397	-0.101686	-0.695348	-0.682929
44193	-1.518459	9.924542	0.143902	-0.199701	-0.101716	-0.695878	-0.682295
44194	-1.423049	9.858133	0.095986	-0.199669	-0.101650	-0.696340	-0.681843
44195	-1.452182	9.811752	0.086943	-0.199430	-0.101170	-0.696759	-0.681557
44196	-1.514019	9.880849	0.025753	-0.198933	-0.100404	-0.697196	-0.681368
44197	-1.542087	9.894800	0.018467	-0.198279	-0.099434	-0.697477	-0.681413
44198	-1.531052	9.914282	-0.021378	-0.197425	-0.098184	-0.697709	-0.681605
44199	-1.550962	9.793820	-0.005517	-0.196250	-0.096783	-0.697879	-0.681971
44200	-1.660579	9.696469	0.044012	-0.195014	-0.095276	-0.697921	-0.682494
44201	-1.713953	9.547903	0.069987	-0.193781	-0.093613	-0.698106	-0.682887
44202	-1.757523	9.597668	0.085007	-0.192788	-0.092063	-0.698194	-0.683288
44203	-1.766952	9.650392	0.098579	-0.192038	-0.090780	-0.698136	-0.683730
44204	-1.743845	9.520829	0.097328	-0.191594	-0.089548	-0.698056	-0.684099
44205	-1.705374	9.480044	0.098274	-0.191313	-0.088488	-0.698008	-0.684364
44206	-1.697805	9.536325	0.121925	-0.190922	-0.087712	-0.698019	-0.684562
44207	-1.602848	9.623921	0.125337	-0.190621	-0.086863	-0.698037	-0.684735
44208	-1.567633	9.783021	0.127753	-0.190241	-0.085980	-0.697907	-0.685085
44209	-1.436366	9.782720	0.153116	-0.189697	-0.084941	-0.697665	-0.685612
44210	-1.500679	9.701370	0.182222	-0.188822	-0.083773	-0.697436	-0.686230
44211	-1.633164	9.555288	0.184471	-0.188068	-0.082547	-0.697122	-0.686905
44212	-1.575375	9.664385	0.193713	-0.187406	-0.081255	-0.696952	-0.687412
44213	-1.471229	9.794720	0.197610	-0.186582	-0.080085	-0.696725	-0.688003
44214	-1.535173	9.717147	0.246402	-0.185690	-0.078907	-0.696313	-0.688797
44215	-1.639598	9.654408	0.303354	-0.184518	-0.077837	-0.696054	-0.689495
44216	-1.638658	9.554860	0.291472	-0.183516	-0.076768	-0.695766	-0.690172
44217	-1.590862	9.601158	0.292636	-0.182563	-0.075798	-0.695529	-0.690771
44218	-1.509646	9.671831	0.267277	-0.181605	-0.074875	-0.695344	-0.691310
44219	-1.473984	9.668806	0.287209	-0.180569	-0.074022	-0.695130	-0.691889
44220	-1.483365	9.701424	0.289523	-0.179462	-0.073147	-0.694958	-0.692443
44221	-1.450017	9.659077	0.284171	-0.178448	-0.072192	-0.694779	-0.692984
44222	-1.419133	9.701904	0.272507	-0.177302	-0.071221	-0.694685	-0.693473
44223	-1.360932	9.709212	0.287410	-0.176051	-0.070133	-0.694676	-0.693911
44224	-1.377373	9.674394	0.297502	-0.174665	-0.068962	-0.694750	-0.694305
44225	-1.439408	9.671659	0.268372	-0.173343	-0.067669	-0.694778	-0.694735
44226	-1.548735	9.651732	0.260702	-0.171967	-0.066436	-0.694872	-0.695101
44227	-1.579324	9.680696	0.243928	-0.170804	-0.065237	-0.694955	-0.695419
44228	-1.457915	9.683359	0.245296	-0.169677	-0.063973	-0.695151	-0.695617
44229	-1.424651	9.740364	0.255028	-0.168393	-0.062756	-0.695406	-0.695785
44230	-1.455934	9.734147	0.232283	-0.166980	-0.061531	-0.695575	-0.696065
44231	-1.533579	9.646844	0.212291	-0.165580	-0.060408	-0.695684	-0.696389
44232	-1.534873	9.636811	0.202017	-0.164248	-0.059177	-0.695875	-0.696619
44233	-1.578020	9.616616	0.201000	-0.163054	-0.057953	-0.696094	-0.696784
44234	-1.616292	9.688824	0.182383	-0.161816	-0.056947	-0.696359	-0.696891
44235	-1.598532	9.742755	0.180129	-0.160663	-0.056118	-0.696505	-0.697079
44236	-1.528387	9.764090	0.166951	-0.159527	-0.055260	-0.696642	-0.697272
44237	-1.532922	9.747440	0.169040	-0.158334	-0.054421	-0.696761	-0.697491
44238	-1.458010	9.782955	0.189795	-0.157141	-0.053616	-0.696760	-0.697824
44239	-1.458471	9.737856	0.180234	-0.155958	-0.052914	-0.696610	-0.698292
44240	-1.491989	9.622163	0.224484	-0.154881	-0.052054	-0.696464	-0.698741
44241	-1.543615	9.648747	0.253722	-0.153868	-0.051259	-0.696317	-0.699171
44242	-1.521179	9.755766	0.221935	-0.152963	-0.050555	-0.696189	-0.699548
44243	-1.462371	9.822794	0.243580	-0.152242	-0.049863	-0.695907	-0.700035
44244	-1.451034	9.830346	0.243234	-0.151508	-0.049317	-0.695464	-0.700674
44245	-1.462127	9.720811	0.274198	-0.150765	-0.048733	-0.695023	-0.701312
44246	-1.514401	9.576213	0.318932	-0.150243	-0.048120	-0.694504	-0.701980
44247	-1.494905	9.622454	0.293771	-0.149800	-0.047567	-0.694149	-0.702463
44248	-1.449872	9.649457	0.345063	-0.149440	-0.047001	-0.693932	-0.702793
44249	-1.500448	9.831332	0.383288	-0.149135	-0.046562	-0.693667	-0.703147
44250	-1.543107	9.760704	0.401776	-0.148972	-0.046198	-0.693237	-0.703631
44251	-1.511374	9.663683	0.390269	-0.148975	-0.045794	-0.692842	-0.704045
44252	-1.413796	9.583455	0.349501	-0.149059	-0.045419	-0.692440	-0.704447
44253	-1.448906	9.615380	0.361336	-0.149161	-0.045004	-0.692198	-0.704689
44254	-1.477620	9.718239	0.381163	-0.149193	-0.044721	-0.692009	-0.704886
44255	-1.492815	9.728418	0.405758	-0.149149	-0.044469	-0.691834	-0.705083
44256	-1.483591	9.685284	0.409818	-0.149088	-0.044317	-0.691575	-0.705360
44257	-1.512305	9.625910	0.381770	-0.149108	-0.044100	-0.691337	-0.705603
44258	-1.476350	9.628483	0.390641	-0.149121	-0.043944	-0.691117	-0.705825
44259	-1.429792	9.755966	0.369469	-0.149095	-0.043790	-0.690967	-0.705987
44260	-1.433410	9.723680	0.389452	-0.148981	-0.043641	-0.690786	-0.706197
44261	-1.427245	9.734045	0.404405	-0.148774	-0.043439	-0.690632	-0.706404
44262	-1.447208	9.575147	0.390202	-0.148527	-0.043242	-0.690449	-0.706647
44263	-1.507974	9.739344	0.427571	-0.148305	-0.042980	-0.690314	-0.706841
