// Start Time: Unknown
// Update Rate: 60.0Hz
// Filter Profile: human (46.1)
// Option Flags: AHS Disabled ICC Disabled 
// Firmware Version: 4.3.5
PacketCounter	Acc_X	Acc_Y	Acc_Z	Quat_q0	Quat_q1	Quat_q2	Quat_q3
39183	0.709385	-9.237162	3.059797	0.694913	-0.474970	-0.337124	0.421719
39184	0.758101	-9.307798	3.060605	0.694870	-0.474939	-0.337316	0.421671
39185	0.742629	-9.225852	3.018427	0.694934	-0.474798	-0.337348	0.421698
39186	0.600636	-9.127936	3.071706	0.694855	-0.474914	-0.337418	0.421642
39187	0.616472	-9.201031	3.060596	0.694696	-0.474948	-0.337589	0.421729
39188	0.680111	-9.274810	3.054413	0.694672	-0.474927	-0.337553	0.421820
39189	0.687865	-9.224360	3.077508	0.694705	-0.474848	-0.337534	0.421870
39190	0.732807	-9.284798	3.030118	0.694728	-0.474916	-0.337489	0.421793
39191	0.499502	-9.203196	3.098558	0.694751	-0.475002	-0.337414	0.421718
39192	0.681100	-9.170940	3.026918	0.694705	-0.474957	-0.337486	0.421787
39193	0.742736	-9.313799	3.020012	0.694614	-0.475185	-0.337473	0.421690
39194	0.603879	-9.304020	3.093157	0.694617	-0.475228	-0.337437	0.421666
39195	0.705782	-9.212724	3.120693	0.694662	-0.475216	-0.337401	0.421634
39196	0.648855	-9.252205	3.003952	0.694607	-0.475286	-0.337387	0.421656
39197	0.527331	-9.245323	3.070134	0.694629	-0.475320	-0.337233	0.421706
39198	0.662622	-9.186373	3.018305	0.694590	-0.475241	-0.337224	0.421866
39199	0.721204	-9.258892	3.077352	0.694638	-0.475210	-0.337071	0.421944
39200	0.660315	-9.280589	3.160917	0.694758	-0.475122	-0.336908	0.421976
39201	0.594362	-9.170628	3.182365	0.694891	-0.474938	-0.336737	0.422100
39202	0.626666	-9.193214	3.053435	0.694842	-0.474949	-0.336713	0.422188
39203	0.550448	-9.212138	3.102614	0.694842	-0.474877	-0.336673	0.422300
39204	0.699220	-9.216410	3.051137	0.694761	-0.474800	-0.336823	0.422401
39205	0.617197	-9.148007	3.117899	0.694710	-0.474858	-0.336853	0.422395
39206	0.587902	-9.194088	3.146656	0.694608	-0.474810	-0.337075	0.422440
39207	0.740534	-9.208266	3.124110	0.694532	-0.474781	-0.337214	0.422488
39208	0.632261	-9.176895	3.107224	0.694530	-0.474713	-0.337264	0.422527
39209	0.579574	-9.234631	3.094198	0.694455	-0.474657	-0.337487	0.422535
39210	0.707201	-9.156911	3.101129	0.694382	-0.474512	-0.337672	0.422670
39211	0.662595	-9.207827	3.172342	0.694323	-0.474430	-0.337792	0.422763
39212	0.703385	-9.112290	3.142751	0.694183	-0.474348	-0.338026	0.422897
39213	0.589734	-9.141739	3.111314	0.693887	-0.474575	-0.338344	0.422876
39214	0.668096	-9.168401	3.057414	0.693564	-0.474622	-0.338798	0.422988
39215	0.769428	-9.320065	3.007328	0.693316	-0.474668	-0.339111	0.423092
39216	0.600574	-9.311811	3.110024	0.693242	-0.474551	-0.339260	0.423225
39217	0.680258	-9.301272	3.054176	0.693190	-0.474329	-0.339411	0.423437
39218	0.761266	-9.075431	2.986368	0.693070	-0.474265	-0.339485	0.423648
39219	0.579912	-9.185611	3.049079	0.692873	-0.474345	-0.339613	0.423777
39220	0.782636	-9.177262	3.047010	0.692603	-0.474362	-0.339913	0.423959
39221	0.736092	-9.401606	3.043623	0.692486	-0.474355	-0.340076	0.424026
39222	0.588074	-9.275035	3.004353	0.692467	-0.474139	-0.340213	0.424190
39223	0.624699	-9.264320	2.840876	0.692279	-0.474103	-0.340459	0.424339
39224	0.549495	-9.223738	3.002419	0.692149	-0.474056	-0.340481	0.424585
39225	0.699535	-9.246720	3.053139	0.691960	-0.473890	-0.340728	0.424881
39226	0.875709	-9.283097	3.063500	0.691912	-0.473744	-0.340894	0.424990
39227	0.718521	-9.300771	2.879472	0.691812	-0.473623	-0.341153	0.425079
39228	0.647189	-9.466158	2.594666	0.691566	-0.473499	-0.341682	0.425193
39229	0.626105	-9.511912	2.543232	0.691554	-0.472966	-0.341998	0.425551
39230	0.666296	-9.465423	2.739716	0.691683	-0.472383	-0.342132	0.425881
39231	0.803503	-9.395349	2.682031	0.691762	-0.471856	-0.342314	0.426190
39232	0.681253	-9.063509	2.964945	0.692140	-0.471375	-0.341817	0.426507
39233	0.688672	-8.898810	3.312915	0.691962	-0.471480	-0.341856	0.426651
39234	0.809569	-9.024235	3.152641	0.691170	-0.472210	-0.342609	0.426523
39235	0.652829	-9.484831	2.776105	0.689957	-0.473458	-0.343878	0.426081
39236	0.550066	-9.825456	2.604997	0.689183	-0.474106	-0.344895	0.425790
39237	0.655736	-9.608056	2.860547	0.689455	-0.473597	-0.344858	0.425946
39238	0.664770	-8.931900	3.005688	0.689726	-0.472931	-0.344736	0.426346
39239	0.689429	-8.779190	3.139525	0.689566	-0.472734	-0.344751	0.426812
39240	0.725649	-8.919805	3.260291	0.688678	-0.473086	-0.345574	0.427190
39241	0.965155	-9.375559	3.242277	0.687756	-0.473769	-0.346346	0.427293
39242	1.101550	-9.436877	3.065077	0.687205	-0.474266	-0.346537	0.427472
39243	0.739285	-8.946648	2.939997	0.687572	-0.474226	-0.345285	0.427940
39244	0.571593	-8.619758	3.274419	0.687416	-0.474522	-0.344784	0.428267
39245	0.950279	-9.122929	3.211250	0.686559	-0.475354	-0.345107	0.428458
39246	1.040818	-9.289416	3.057698	0.686122	-0.476198	-0.344556	0.428665
39247	0.672556	-8.974010	3.116920	0.686225	-0.476861	-0.342965	0.429038
39248	0.347039	-8.677852	3.447294	0.685888	-0.477871	-0.342041	0.429191
39249	0.739211	-9.077875	3.224107	0.684977	-0.479144	-0.342123	0.429162
39250	0.775693	-9.522018	2.903654	0.683809	-0.480945	-0.342581	0.428644
39251	0.655135	-9.988040	2.525132	0.682820	-0.482316	-0.343305	0.428100
39252	0.587105	-9.786472	2.450216	0.682714	-0.482540	-0.343508	0.427854
39253	0.425078	-9.484961	2.637005	0.682713	-0.482521	-0.343909	0.427554
39254	0.444458	-9.325916	2.734529	0.682322	-0.482322	-0.345172	0.427386
39255	0.636989	-9.370257	2.786089	0.681503	-0.482122	-0.347247	0.427237
39256	0.781829	-9.668712	3.092921	0.681354	-0.481772	-0.348286	0.427025
39257	0.376283	-9.539153	3.069600	0.681665	-0.481156	-0.348381	0.427144
39258	0.396374	-9.135400	2.935030	0.681942	-0.480194	-0.348424	0.427749
39259	0.985669	-9.145254	2.834304	0.681750	-0.479435	-0.349103	0.428353
39260	1.091606	-9.247523	2.688941	0.681919	-0.478657	-0.349403	0.428709
39261	0.690803	-9.326581	2.682788	0.682136	-0.477995	-0.349795	0.428784
39262	0.587988	-9.674449	2.963685	0.682458	-0.477181	-0.350360	0.428716
39263	1.121704	-9.629310	3.561444	0.684060	-0.475362	-0.349181	0.429145
39264	1.269337	-8.659103	3.204186	0.686042	-0.473597	-0.346518	0.430091
39265	0.606481	-8.335866	3.227885	0.687837	-0.473172	-0.342968	0.430536
39266	0.331465	-8.653078	3.272048	0.688050	-0.473712	-0.341451	0.430808
39267	0.693237	-9.266795	3.329321	0.687531	-0.474202	-0.341248	0.431258
39268	1.661668	-9.425216	3.641738	0.688319	-0.473889	-0.338945	0.432160
39269	1.117191	-8.940180	2.944335	0.689943	-0.474232	-0.334401	0.432733
39270	0.029589	-8.946826	3.141046	0.691881	-0.474750	-0.329227	0.433039
39271	-0.205021	-8.754873	3.311849	0.692233	-0.474148	-0.327536	0.434417
39272	0.312226	-8.199689	3.147687	0.691045	-0.473294	-0.328766	0.436306
39273	1.486333	-8.971901	5.018577	0.690118	-0.474257	-0.328717	0.436764
39274	1.611528	-9.423247	3.768721	0.689164	-0.475789	-0.327856	0.437251
39275	0.698005	-9.493940	2.366208	0.689854	-0.476978	-0.324093	0.437672
39276	0.103741	-8.349721	2.552740	0.691881	-0.476051	-0.319423	0.438913
39277	0.293514	-7.366761	2.621006	0.690466	-0.476392	-0.320139	0.440248
39278	0.924474	-8.798565	4.775353	0.687328	-0.479530	-0.322975	0.439680
39279	1.383381	-10.195003	4.289896	0.685539	-0.481572	-0.323011	0.440215
39280	0.427288	-9.980136	1.870963	0.683199	-0.484717	-0.322389	0.440856
39281	0.076589	-9.674935	1.779443	0.683926	-0.484590	-0.319007	0.442325
39282	0.558239	-7.676250	2.200564	0.683834	-0.483327	-0.318241	0.444396
39283	0.519499	-8.031136	2.869151	0.681902	-0.483427	-0.321040	0.445243
39284	1.074161	-8.806500	4.656592	0.681530	-0.482710	-0.322303	0.445677
39285	1.349037	-10.054245	3.820780	0.679330	-0.485354	-0.322618	0.445937
39286	0.064606	-10.249804	1.898895	0.679907	-0.485752	-0.317129	0.448554
39287	0.484559	-8.320398	2.249797	0.681831	-0.484867	-0.309763	0.451728
39288	-0.051216	-7.608661	2.865321	0.682185	-0.485254	-0.304971	0.454033
39289	-0.094799	-8.789607	4.181985	0.679818	-0.486960	-0.305091	0.455672
39290	0.613896	-10.905133	4.121406	0.676513	-0.489890	-0.306191	0.456711
39291	0.667589	-12.316146	2.469341	0.674759	-0.492523	-0.304032	0.457914
39292	0.294943	-9.971802	2.195218	0.678291	-0.490505	-0.296136	0.460033
39293	-0.088763	-7.627464	3.111785	0.680539	-0.490107	-0.290731	0.460583
39294	-1.184036	-7.969581	3.726643	0.680848	-0.490313	-0.289004	0.460995
39295	-0.929180	-8.760305	4.806129	0.679571	-0.491097	-0.289524	0.461716
39296	-0.422323	-9.781855	3.595801	0.676890	-0.493646	-0.290973	0.462025
39297	-0.105689	-9.991617	2.836425	0.675649	-0.495160	-0.290985	0.462214
39298	0.009476	-9.327709	2.763846	0.675233	-0.495946	-0.290984	0.461981
39299	-0.357825	-9.283567	2.774362	0.674769	-0.496216	-0.291965	0.461751
39300	-0.529126	-9.628199	2.671396	0.673721	-0.495694	-0.294298	0.462360
39301	-0.335939	-9.447731	2.736684	0.673041	-0.493885	-0.296557	0.463839
39302	-0.400073	-9.274278	3.128685	0.672406	-0.491633	-0.298997	0.465583
39303	-0.101337	-9.368028	3.338655	0.671347	-0.488920	-0.302638	0.467613
39304	0.151575	-9.865577	3.416141	0.670250	-0.486298	-0.306528	0.469383
39305	0.178842	-9.984346	3.446917	0.670460	-0.482870	-0.308948	0.471032
39306	0.128569	-9.719716	3.237685	0.671573	-0.479289	-0.310014	0.472401
39307	-0.035641	-9.714248	3.017536	0.672913	-0.475851	-0.310695	0.473521
39308	-0.056621	-9.811470	3.069530	0.674344	-0.472744	-0.311078	0.474346
39309	-0.139167	-9.714602	3.015066	0.676733	-0.469400	-0.310056	0.474933
39310	-0.256291	-9.129354	3.014097	0.679907	-0.466016	-0.307836	0.475175
39311	-0.431354	-8.913886	2.870254	0.682660	-0.463702	-0.306139	0.474589
39312	-0.414693	-9.387650	2.428283	0.685143	-0.461649	-0.305174	0.473633
39313	-0.250602	-10.015305	2.434029	0.688492	-0.458888	-0.303354	0.472627
39314	-0.090388	-9.968044	2.824082	0.693494	-0.455316	-0.298946	0.471576
39315	-0.623638	-9.334729	2.747816	0.699345	-0.451840	-0.292616	0.470247
39316	-1.158215	-8.769945	3.204627	0.705087	-0.448664	-0.286086	0.468731
39317	-1.125001	-8.851427	3.446218	0.709110	-0.446902	-0.281658	0.467024
39318	-0.845564	-9.481387	3.245656	0.712109	-0.445680	-0.278550	0.465489
39319	-0.593107	-9.656648	3.398843	0.715696	-0.444194	-0.274216	0.463979
39320	-0.750445	-9.344677	2.783687	0.719232	-0.443425	-0.269468	0.462023
39321	-0.880485	-9.344943	2.342112	0.722244	-0.443028	-0.265496	0.460002
39322	-0.927471	-9.087664	2.501212	0.725546	-0.442553	-0.260891	0.457893
39323	-1.265419	-8.915177	2.699722	0.728569	-0.442375	-0.256330	0.455836
39324	-1.218656	-9.141284	2.741501	0.731296	-0.442122	-0.252487	0.453855
39325	-1.168983	-9.165129	2.652347	0.734466	-0.441554	-0.247986	0.451767
39326	-1.329864	-8.739143	2.576183	0.738274	-0.440659	-0.242496	0.449407
39327	-1.388838	-8.593111	3.188100	0.741784	-0.439797	-0.237471	0.447149
39328	-1.505794	-8.711521	3.350197	0.744654	-0.439980	-0.232831	0.444633
39329	-1.890115	-8.957286	3.460903	0.747646	-0.439733	-0.227961	0.442373
39330	-1.877900	-8.795182	3.733823	0.751053	-0.438291	-0.222824	0.440648
39331	-1.891301	-8.743882	4.056452	0.754672	-0.436683	-0.217368	0.438783
39332	-1.972747	-8.660516	3.953151	0.758168	-0.434799	-0.212395	0.437058
39333	-1.860572	-8.355454	3.986513	0.761302	-0.432106	-0.209012	0.435910
39334	-1.790749	-8.068468	4.207607	0.764146	-0.429545	-0.205963	0.434915
39335	-1.988845	-7.976465	4.357474	0.766793	-0.427157	-0.202723	0.434129
39336	-1.790460	-8.093286	4.542066	0.768739	-0.424847	-0.200776	0.433860
39337	-1.431305	-8.516231	4.392113	0.769719	-0.422710	-0.200619	0.434282
39338	-1.058995	-9.034649	4.475292	0.770848	-0.420145	-0.200259	0.434935
39339	-1.106074	-9.221267	4.576490	0.772811	-0.416405	-0.198663	0.435779
39340	-1.043012	-8.723019	4.656510	0.775131	-0.412087	-0.196739	0.436634
39341	-1.215835	-8.315885	4.767669	0.777162	-0.408004	-0.195222	0.437540
39342	-1.314672	-8.011303	5.299907	0.779251	-0.403670	-0.193455	0.438628
39343	-1.613498	-8.070650	5.572860	0.780484	-0.400044	-0.192951	0.439977
39344	-1.379549	-8.551023	5.834679	0.780393	-0.397194	-0.194783	0.441907
39345	-0.853256	-9.095055	5.848116	0.779858	-0.394697	-0.197125	0.444047
39346	-0.582792	-9.480932	6.577055	0.780166	-0.391479	-0.197879	0.446015
39347	-0.851339	-9.495658	7.199918	0.781606	-0.387403	-0.196392	0.447707
39348	-0.886801	-8.496244	8.162496	0.783830	-0.383160	-0.192857	0.449005
39349	-1.560377	-7.848077	8.771478	0.785826	-0.379753	-0.189029	0.450036
39350	-1.716740	-7.380787	9.319994	0.786223	-0.378149	-0.187888	0.451171
39351	-1.715971	-7.363304	8.914058	0.785014	-0.378268	-0.189721	0.452407
39352	-1.366154	-7.397053	8.607765	0.783253	-0.378128	-0.193641	0.453913
39353	-0.894827	-7.073236	8.304211	0.781525	-0.377791	-0.197537	0.455490
39354	-0.883003	-6.621952	7.667623	0.779570	-0.377049	-0.202123	0.457440
39355	-0.347129	-6.463595	7.225116	0.776806	-0.376687	-0.208197	0.459709
39356	0.016957	-6.600156	6.755478	0.773708	-0.376576	-0.214388	0.462175
39357	0.109525	-6.498670	6.828338	0.770668	-0.376197	-0.220402	0.464724
39358	0.105892	-6.301916	6.747516	0.767405	-0.376002	-0.226817	0.467189
39359	-0.034122	-6.435900	6.447717	0.763865	-0.375551	-0.233559	0.470023
39360	0.109163	-6.272684	6.413134	0.759934	-0.374625	-0.240955	0.473389
39361	0.418654	-6.633232	6.137039	0.755046	-0.374505	-0.249279	0.476981
39362	0.691598	-6.815410	5.874608	0.750063	-0.374273	-0.256965	0.480930
39363	0.499848	-7.066636	5.510448	0.744801	-0.374254	-0.264749	0.484884
39364	0.471625	-7.152806	5.478340	0.739763	-0.373445	-0.272929	0.488671
39365	1.053994	-6.957411	4.715527	0.734243	-0.372864	-0.282395	0.492048
39366	1.662174	-7.543776	4.295605	0.728210	-0.373172	-0.292220	0.495036
39367	1.753710	-8.478312	3.744236	0.722462	-0.372948	-0.301343	0.498148
39368	2.359902	-8.100517	4.095924	0.717453	-0.372396	-0.308612	0.501339
39369	1.627775	-8.014447	4.441052	0.713314	-0.371283	-0.314616	0.504330
39370	1.686578	-7.753824	4.558772	0.709091	-0.370459	-0.320900	0.506926
39371	1.877088	-8.258156	3.802477	0.704687	-0.369839	-0.327696	0.509167
39372	2.454910	-8.286667	3.924470	0.701296	-0.367955	-0.332848	0.511864
39373	2.699388	-8.058491	4.047809	0.697814	-0.366620	-0.337487	0.514537
39374	2.382079	-8.399131	4.032229	0.694389	-0.365521	-0.341607	0.517226
39375	1.902583	-8.142597	4.074418	0.691668	-0.364321	-0.344556	0.519757
39376	1.896821	-7.767992	3.733385	0.688706	-0.363544	-0.347988	0.521943
39377	2.217280	-8.119961	3.212717	0.685839	-0.362957	-0.351872	0.523520
39378	2.416165	-7.985238	3.623298	0.683887	-0.361830	-0.354615	0.525002
39379	2.564285	-7.909071	3.672687	0.681544	-0.361323	-0.357647	0.526338
39380	2.139772	-8.562611	3.503791	0.679111	-0.361235	-0.360394	0.527668
39381	1.986652	-8.817697	3.535302	0.676840	-0.360895	-0.362746	0.529205
39382	2.122356	-8.784077	3.235911	0.674355	-0.360553	-0.365312	0.530843
39383	2.344043	-8.707001	2.840531	0.671923	-0.360204	-0.367987	0.532315
39384	2.227220	-8.729303	2.721796	0.669902	-0.359676	-0.370244	0.533652
39385	1.972703	-8.525958	2.740198	0.668264	-0.358788	-0.371847	0.535186
39386	1.637949	-8.300031	2.362212	0.666692	-0.358044	-0.373029	0.536820
39387	1.647345	-8.593427	2.205511	0.665261	-0.357445	-0.373850	0.538421
39388	2.111863	-8.692905	2.316372	0.664514	-0.356699	-0.373504	0.540076
39389	2.122992	-8.607899	2.474753	0.664277	-0.355846	-0.372562	0.541579
39390	2.193594	-9.020297	2.813598	0.664523	-0.354716	-0.371371	0.542835
39391	2.130550	-8.918325	3.255151	0.665776	-0.353182	-0.369235	0.543755
39392	2.085287	-8.545116	3.395188	0.667571	-0.351774	-0.366884	0.544059
39393	2.354557	-8.992271	3.838307	0.669190	-0.351141	-0.365141	0.543652
39394	1.272707	-10.214924	3.690160	0.671139	-0.350294	-0.362889	0.543303
39395	1.112178	-10.090267	3.917399	0.673457	-0.348976	-0.359865	0.543293
39396	1.281161	-9.840721	3.982218	0.675836	-0.348591	-0.356040	0.543108
39397	1.267055	-9.671349	4.494184	0.678707	-0.348059	-0.350910	0.543207
39398	1.031963	-9.208697	5.027908	0.682107	-0.347192	-0.344237	0.543773
39399	1.086650	-8.403741	6.259950	0.685312	-0.347048	-0.337424	0.544105
39400	1.255335	-8.126814	6.831321	0.688225	-0.347377	-0.331335	0.543960
39401	1.660949	-7.930276	7.476418	0.690890	-0.348003	-0.326546	0.543077
39402	1.821191	-8.748245	7.732312	0.693049	-0.349393	-0.322874	0.541627
39403	0.978897	-8.779368	7.486608	0.695480	-0.351361	-0.318624	0.539752
39404	1.034024	-9.452504	7.775153	0.696990	-0.354273	-0.315952	0.537466
39405	1.267839	-9.838198	7.273626	0.698943	-0.356461	-0.312277	0.535629
39406	0.643405	-9.434983	7.458398	0.701061	-0.356834	-0.308629	0.534726
39407	0.551932	-8.772897	8.506312	0.702508	-0.356426	-0.305636	0.534816
39408	0.495396	-7.405192	7.260264	0.703134	-0.358038	-0.302212	0.534864
39409	0.078421	-7.612066	6.389541	0.702351	-0.362295	-0.300102	0.534214
39410	0.239850	-8.618797	5.218563	0.701877	-0.365959	-0.298617	0.533170
39411	0.290892	-8.545805	5.182754	0.703088	-0.367486	-0.295975	0.531997
39412	-0.358834	-8.000754	5.924321	0.705876	-0.366584	-0.291696	0.531290
39413	-0.583560	-6.686174	7.002946	0.709204	-0.366051	-0.286134	0.530249
39414	-0.740879	-6.694356	7.350985	0.711105	-0.369218	-0.281167	0.528160
39415	-1.230911	-7.354594	5.063406	0.712497	-0.373787	-0.276122	0.525726
39416	-1.535408	-8.392489	4.904483	0.714313	-0.377619	-0.271770	0.522783
39417	-0.849698	-8.533334	5.041813	0.716958	-0.379253	-0.267942	0.519948
39418	-0.596535	-8.130067	5.171483	0.720932	-0.379716	-0.262487	0.516887
39419	-1.082883	-7.372348	4.980129	0.725241	-0.381043	-0.255916	0.513166
39420	-0.972799	-6.613484	4.566518	0.729296	-0.384142	-0.249100	0.508440
39421	-1.213883	-6.809291	4.226460	0.732785	-0.387745	-0.243397	0.503426
39422	-1.571612	-7.880148	4.654430	0.736038	-0.391465	-0.238616	0.498062
39423	-1.448628	-8.213556	4.718033	0.739776	-0.394314	-0.234109	0.492383
39424	-1.228619	-7.744434	4.628667	0.744245	-0.396345	-0.228825	0.486466
39425	-1.830785	-7.110323	4.229658	0.748824	-0.398631	-0.223273	0.480109
39426	-1.881912	-6.637190	4.284705	0.752811	-0.401081	-0.218751	0.473876
39427	-1.728588	-6.574837	4.484764	0.756348	-0.403610	-0.214533	0.467988
39428	-1.572656	-7.033652	4.778508	0.759233	-0.406138	-0.211222	0.462604
39429	-1.704737	-7.548003	4.801259	0.761964	-0.408730	-0.207944	0.457286
39430	-1.668239	-7.624095	4.644666	0.764581	-0.411638	-0.204557	0.451805
39431	-1.695716	-7.579459	4.381723	0.767054	-0.414793	-0.201323	0.446143
39432	-1.672929	-7.637896	3.954100	0.769166	-0.418078	-0.198802	0.440537
39433	-1.709940	-7.598581	3.704133	0.771467	-0.420523	-0.196339	0.435260
39434	-1.601349	-7.349525	4.028223	0.773562	-0.422861	-0.194021	0.430286
39435	-1.659963	-7.722956	4.019163	0.775243	-0.424939	-0.192196	0.426012
39436	-1.556789	-7.669480	4.124644	0.777397	-0.425881	-0.189507	0.422335
39437	-1.555634	-7.388185	4.169100	0.779436	-0.426431	-0.186849	0.419194
39438	-1.400962	-6.882367	4.054525	0.781178	-0.427143	-0.184356	0.416320
39439	-1.628022	-6.644519	3.451001	0.782243	-0.428444	-0.182627	0.413739
39440	-1.849223	-6.703491	3.014762	0.783029	-0.429467	-0.181663	0.411610
39441	-1.754852	-6.903201	3.254494	0.783502	-0.429931	-0.182027	0.410060
39442	-1.164214	-7.746207	3.541877	0.782855	-0.430413	-0.184607	0.409637
39443	-0.897816	-9.197441	3.545900	0.781737	-0.430720	-0.187337	0.410211
39444	-0.853787	-9.558411	3.509504	0.781742	-0.429596	-0.187533	0.411288
39445	-1.003493	-9.398770	3.697841	0.781829	-0.428478	-0.187585	0.412264
39446	-0.958271	-10.187075	4.231982	0.780896	-0.428262	-0.189685	0.413295
39447	-0.677640	-11.858653	4.192698	0.778906	-0.428177	-0.193846	0.415203
39448	0.230171	-13.381966	3.899903	0.777055	-0.426513	-0.198512	0.418170
39449	1.320893	-12.611334	5.022816	0.779250	-0.420826	-0.197120	0.420498
39450	0.556808	-9.617306	7.300394	0.786137	-0.411276	-0.188574	0.421046
39451	-1.502639	-7.052388	9.023743	0.793100	-0.401808	-0.179861	0.420943
39452	-2.548341	-5.445368	9.629762	0.796574	-0.396082	-0.175950	0.421463
39453	-2.448019	-5.170360	9.308933	0.796254	-0.394431	-0.176463	0.423397
39454	-2.127880	-6.608215	8.795120	0.793583	-0.395320	-0.179336	0.426365
39455	-1.172666	-8.418581	9.117824	0.790727	-0.395471	-0.183027	0.429948
39456	-0.723760	-8.850378	9.785859	0.789157	-0.393710	-0.185131	0.433531
39457	-1.056269	-8.134843	10.561141	0.787880	-0.391414	-0.187399	0.436947
39458	-1.235705	-8.160607	10.559919	0.785513	-0.390027	-0.191930	0.440467
39459	-0.938320	-8.560496	10.273100	0.782432	-0.389208	-0.197625	0.444143
39460	-1.286734	-8.728848	10.371151	0.780282	-0.386931	-0.202383	0.447756
39461	-1.202979	-7.841561	10.718653	0.778130	-0.384060	-0.207492	0.451617
39462	-0.676042	-6.998530	9.948845	0.774888	-0.382043	-0.214583	0.455573
39463	-0.068158	-6.676944	8.854234	0.770810	-0.380726	-0.223209	0.459432
39464	0.373327	-6.889853	7.904020	0.765883	-0.380479	-0.233189	0.462906
39465	0.288519	-7.114065	7.099470	0.760861	-0.379517	-0.243126	0.466847
39466	0.367316	-6.591021	6.538830	0.755330	-0.378713	-0.253721	0.470828
39467	0.750782	-6.488648	5.610198	0.749031	-0.378631	-0.264994	0.474731
39468	0.856385	-6.533724	5.254548	0.742430	-0.378999	-0.275767	0.478654
39469	1.447559	-6.775278	4.794359	0.735090	-0.380345	-0.286824	0.482403
39470	1.606861	-6.846043	4.399497	0.728213	-0.382003	-0.296295	0.485787
39471	1.511915	-6.583939	4.006596	0.721395	-0.383773	-0.305270	0.488996
39472	1.542341	-6.930688	3.398380	0.714156	-0.385609	-0.314121	0.492560
39473	2.045832	-7.160203	3.465556	0.706908	-0.387397	-0.321979	0.496522
39474	1.991797	-7.748725	3.114298	0.699757	-0.389120	-0.328640	0.500921
39475	1.625108	-7.838698	3.467962	0.693370	-0.389933	-0.333820	0.505721
39476	1.628642	-7.558994	3.686368	0.687469	-0.391198	-0.338085	0.509950
39477	1.496942	-7.840344	2.993176	0.681633	-0.393073	-0.342421	0.513438
39478	1.543364	-8.257522	2.477248	0.676237	-0.393723	-0.346845	0.517092
39479	1.556097	-8.238201	2.872011	0.671293	-0.393437	-0.351076	0.520882
39480	1.172515	-7.828386	2.854518	0.666558	-0.392872	-0.354836	0.524826
39481	0.871991	-8.225363	2.922990	0.661272	-0.392413	-0.359312	0.528796
39482	1.308214	-8.964610	3.245019	0.656420	-0.391564	-0.363208	0.532794
39483	1.628233	-8.705250	3.418965	0.653218	-0.389831	-0.364912	0.536822
39484	1.647612	-7.980170	3.000975	0.650216	-0.388416	-0.367226	0.539905
39485	1.529405	-7.863680	2.851180	0.647348	-0.387154	-0.370062	0.542316
39486	1.564466	-7.609777	2.513261	0.644439	-0.386167	-0.373148	0.544366
39487	1.710960	-7.897335	2.549198	0.641354	-0.385538	-0.376518	0.546131
39488	1.863703	-7.907996	2.894782	0.638970	-0.384919	-0.378930	0.547693
39489	2.067930	-7.688710	3.083155	0.637029	-0.384463	-0.381068	0.548789
39490	2.181679	-7.398200	3.014574	0.635339	-0.384439	-0.383000	0.549420
39491	1.950081	-7.447978	2.847244	0.633391	-0.385365	-0.385149	0.549517
39492	1.550196	-7.972968	2.966589	0.631572	-0.386453	-0.386769	0.549710
39493	1.478104	-7.698042	3.219089	0.629733	-0.387829	-0.387952	0.550017
39494	1.193078	-7.961440	3.546627	0.627424	-0.389999	-0.389423	0.550082
39495	1.376842	-8.916068	3.959922	0.624022	-0.392847	-0.392119	0.550010
39496	1.060838	-10.758607	3.723949	0.619932	-0.395406	-0.395136	0.550641
39497	-0.258263	-11.002503	4.506528	0.616106	-0.397971	-0.397488	0.551395
39498	-0.242224	-11.492079	4.300751	0.611322	-0.401682	-0.400916	0.551547
39499	0.049974	-11.406186	4.265177	0.608216	-0.405347	-0.401762	0.551683
39500	-0.224453	-11.592873	4.325357	0.606123	-0.408486	-0.401312	0.551999
39501	-0.314812	-11.704998	4.903950	0.605314	-0.409969	-0.399506	0.553096
39502	0.092494	-10.831430	5.517010	0.605386	-0.410385	-0.397201	0.554367
39503	0.920381	-10.755084	5.643301	0.605378	-0.411452	-0.395836	0.554561
39504	0.751751	-9.765109	4.851247	0.607516	-0.412903	-0.392404	0.553583
39505	0.875451	-8.113718	4.789230	0.610596	-0.415585	-0.388801	0.550722
39506	1.855661	-8.252181	3.967713	0.613978	-0.419441	-0.385869	0.546081
39507	2.047324	-8.435821	4.178065	0.618999	-0.423128	-0.381579	0.540556
39508	1.767810	-9.055529	4.298275	0.624554	-0.427488	-0.376932	0.533955
39509	1.112720	-9.468241	4.224622	0.631408	-0.432667	-0.370212	0.526371
39510	0.459010	-8.972283	3.808345	0.638599	-0.438999	-0.362511	0.517742
39511	0.167462	-8.732837	3.667694	0.645798	-0.446440	-0.354301	0.508042
39512	-0.107443	-8.082636	3.679124	0.654251	-0.454258	-0.343954	0.497294
39513	-0.894843	-7.837599	3.685621	0.662722	-0.462402	-0.333217	0.485747
39514	-1.337887	-7.864216	4.060712	0.670595	-0.470571	-0.322998	0.473854
39515	-1.882988	-7.979666	3.988036	0.678294	-0.478427	-0.312645	0.461821
39516	-2.258197	-8.320800	4.222358	0.685054	-0.486154	-0.303522	0.449700
39517	-2.198083	-9.137309	3.840221	0.691283	-0.492986	-0.295023	0.438240
39518	-2.273086	-9.399840	3.956452	0.698101	-0.497673	-0.286059	0.427956
39519	-2.116636	-8.969264	4.473588	0.704683	-0.500453	-0.278156	0.419044
39520	-2.142933	-8.855875	4.760052	0.710733	-0.501660	-0.271385	0.411759
39521	-2.045868	-8.536979	5.183772	0.716195	-0.502018	-0.265279	0.405795
39522	-1.874699	-8.552798	5.380931	0.720602	-0.502123	-0.260718	0.400789
39523	-1.735155	-8.798849	5.156027	0.724402	-0.501503	-0.257145	0.397005
39524	-2.151108	-8.300802	4.977238	0.728354	-0.499496	-0.253844	0.394420
39525	-1.952230	-7.848090	4.850347	0.730950	-0.497404	-0.252796	0.392932
39526	-1.289890	-8.531358	4.478915	0.732462	-0.495584	-0.253097	0.392222
39527	-1.023498	-8.848777	4.154327	0.734168	-0.492919	-0.253172	0.392342
39528	-1.066562	-8.352071	4.443649	0.735955	-0.489646	-0.253182	0.393085
39529	-0.982628	-8.122312	4.671543	0.736989	-0.486772	-0.254117	0.394112
39530	-0.823853	-8.261306	4.592882	0.737539	-0.484015	-0.255596	0.395520
39531	-0.577838	-8.172785	4.482076	0.737707	-0.481109	-0.257577	0.397462
39532	-0.067013	-8.063823	4.620519	0.737413	-0.478170	-0.259959	0.399995
39533	0.211444	-8.023650	4.850175	0.736721	-0.475497	-0.262464	0.402812
39534	0.086940	-8.225765	4.900308	0.735524	-0.473393	-0.265156	0.405704
39535	-0.375562	-8.968709	4.841038	0.733923	-0.471141	-0.268087	0.409282
39536	-0.114501	-8.991603	4.435914	0.732122	-0.468239	-0.271038	0.413870
39537	0.287229	-8.538186	4.626477	0.729731	-0.465712	-0.274359	0.418726
39538	0.318756	-8.574377	4.636591	0.727026	-0.463849	-0.277686	0.423283
39539	0.080724	-8.787047	4.632080	0.723724	-0.462795	-0.281420	0.427607
39540	-0.166422	-8.948165	4.446095	0.720337	-0.461769	-0.285040	0.432013
39541	-0.385715	-8.782619	4.801307	0.716519	-0.460997	-0.289129	0.436448
39542	-0.125891	-8.987896	4.521391	0.712289	-0.460483	-0.293631	0.440886
39543	-0.103171	-8.965636	4.235553	0.707994	-0.460218	-0.298019	0.445117
39544	-0.262713	-9.076669	4.052772	0.703717	-0.459948	-0.302333	0.449250
39545	-0.170524	-9.261982	3.556752	0.699321	-0.459732	-0.306659	0.453383
39546	-0.323293	-9.218995	3.485519	0.695545	-0.458944	-0.310106	0.457625
39547	-0.372555	-8.938249	3.499456	0.691601	-0.458236	-0.313824	0.461760
39548	-0.103459	-8.936316	3.169872	0.687640	-0.457549	-0.317625	0.465741
39549	0.010254	-8.849257	3.256470	0.683778	-0.456945	-0.321362	0.469441
39550	-0.117452	-8.633230	3.167510	0.680068	-0.456338	-0.324937	0.472947
39551	-0.327871	-8.419041	3.331175	0.676247	-0.455780	-0.328754	0.476314
39552	-0.035030	-8.842624	3.042290	0.672106	-0.455200	-0.333086	0.479709
39553	0.168626	-8.971037	2.659336	0.668167	-0.454044	-0.337137	0.483462
39554	0.133208	-9.206692	3.041144	0.664561	-0.452205	-0.340737	0.487614
39555	-0.085607	-9.110328	3.238492	0.661066	-0.450162	-0.344146	0.491843
39556	-0.237518	-9.282553	3.355915	0.657319	-0.448109	-0.348032	0.495989
39557	-0.027404	-9.547604	3.215704	0.653451	-0.445783	-0.352219	0.500221
39558	0.274503	-9.530815	2.742169	0.649980	-0.443147	-0.355859	0.504490
39559	0.509672	-9.508758	2.854719	0.646972	-0.440168	-0.358750	0.508897
39560	0.837593	-9.592723	3.103177	0.643891	-0.437415	-0.361365	0.513311
39561	0.627013	-9.694731	3.021632	0.641214	-0.434695	-0.363049	0.517765
39562	0.326902	-9.117656	3.119632	0.638792	-0.431839	-0.364267	0.522274
39563	0.076418	-8.697895	3.224376	0.636097	-0.429631	-0.365756	0.526327
39564	0.133508	-9.068816	3.086614	0.632930	-0.427951	-0.367705	0.530142
39565	0.173816	-9.232322	3.108612	0.630167	-0.426123	-0.368943	0.534031
39566	0.321317	-8.796567	3.365484	0.627610	-0.423778	-0.369844	0.538269
39567	0.323172	-8.802723	3.466036	0.624589	-0.421616	-0.371222	0.542515
39568	0.448336	-8.878891	3.267787	0.621517	-0.419359	-0.372681	0.546775
39569	0.694198	-9.042302	3.122356	0.618456	-0.417206	-0.374111	0.550901
39570	0.606211	-9.444022	2.997473	0.615760	-0.414916	-0.374955	0.555061
39571	0.629977	-9.218810	3.111254	0.613564	-0.412254	-0.375195	0.559298
39572	0.425642	-9.022083	3.448092	0.611518	-0.410031	-0.375094	0.563227
39573	0.248714	-9.164210	3.658512	0.609308	-0.408269	-0.375318	0.566742
39574	0.235614	-9.583291	3.572922	0.607264	-0.406664	-0.375555	0.569924
39575	0.260409	-9.630178	3.734819	0.605841	-0.404914	-0.375155	0.572939
39576	0.217208	-9.476424	3.900347	0.604903	-0.403465	-0.374407	0.575437
39577	0.097446	-9.315998	3.900055	0.604248	-0.402417	-0.373584	0.577391
39578	0.153723	-9.031993	4.147642	0.604082	-0.401760	-0.372404	0.578782
39579	0.117748	-8.724759	4.245877	0.604105	-0.402051	-0.371261	0.579291
39580	-0.022698	-8.935826	4.083120	0.604168	-0.402929	-0.370346	0.579200
39581	0.055166	-8.954565	3.821567	0.604437	-0.403974	-0.369336	0.578837
39582	0.206979	-8.845807	4.002294	0.605091	-0.405098	-0.368014	0.578209
39583	0.327515	-8.894203	4.143972	0.605844	-0.406651	-0.366706	0.577161
39584	0.147341	-9.158317	3.844825	0.606790	-0.408552	-0.365220	0.575765
39585	-0.172977	-9.080063	3.691676	0.608130	-0.410354	-0.363452	0.574186
39586	-0.142100	-8.926321	3.676000	0.609456	-0.412526	-0.362034	0.572116
39587	-0.007101	-8.953959	3.382453	0.610983	-0.415019	-0.360597	0.569586
39588	0.007559	-8.992751	3.127892	0.612763	-0.417764	-0.358978	0.566683
39589	-0.073803	-9.210677	3.018885	0.614663	-0.420737	-0.357290	0.563484
39590	-0.246008	-9.737573	2.842566	0.616663	-0.423627	-0.355488	0.560263
39591	-0.390766	-9.705913	2.834254	0.619298	-0.425842	-0.352917	0.557295
39592	-0.256299	-9.399476	3.494393	0.622066	-0.428294	-0.350273	0.553992
39593	-0.236788	-9.605520	3.262174	0.624438	-0.431855	-0.348147	0.549884
39594	-0.428038	-10.090077	2.764951	0.627250	-0.435452	-0.345559	0.545461
39595	-0.447278	-10.381346	2.693333	0.630833	-0.438624	-0.342470	0.540714
39596	-0.811001	-10.019544	2.973116	0.635612	-0.441507	-0.338381	0.535320
39597	-1.349855	-9.223567	3.462428	0.640976	-0.444391	-0.334252	0.529096
39598	-1.563723	-8.555310	3.770806	0.646058	-0.447156	-0.331162	0.522486
39599	-1.323541	-8.639422	3.624108	0.650320	-0.449864	-0.329518	0.515872
39600	-0.760660	-8.990219	3.694609	0.654278	-0.452319	-0.328177	0.509537
39601	-0.458814	-9.401408	3.870154	0.658026	-0.454792	-0.326703	0.503419
39602	-0.392754	-9.511675	4.293980	0.661900	-0.457261	-0.324497	0.497496
39603	-0.334202	-9.075935	4.146321	0.665967	-0.459196	-0.321705	0.492070
39604	-0.431891	-8.983562	4.337328	0.669190	-0.461347	-0.319861	0.486860
39605	-0.241737	-8.826865	3.859455	0.672316	-0.462911	-0.318534	0.481914
39606	-0.153191	-8.662809	3.647480	0.675352	-0.463741	-0.317893	0.477271
39607	0.189911	-8.539320	3.781992	0.678122	-0.464168	-0.317860	0.472931
39608	0.674736	-8.571963	3.836498	0.680772	-0.464513	-0.317873	0.468757
39609	1.298558	-8.612818	3.849091	0.683371	-0.465431	-0.317552	0.464262
39610	1.673713	-9.052358	3.793918	0.685925	-0.467887	-0.316445	0.458749
39611	1.753606	-9.338133	3.889817	0.689254	-0.471042	-0.313773	0.452323
39612	1.634955	-9.093809	3.770854	0.693236	-0.474821	-0.309740	0.445005
39613	1.559454	-8.750700	3.982634	0.697289	-0.479120	-0.305334	0.437039
39614	2.071187	-8.038878	4.532559	0.701240	-0.485224	-0.299887	0.427654
39615	2.016703	-7.358464	2.631996	0.704653	-0.493365	-0.293556	0.416989
39616	1.285893	-8.184046	2.292917	0.707324	-0.502582	-0.287227	0.405715
39617	0.974605	-8.790866	1.916122	0.710590	-0.510538	-0.280378	0.394716
39618	0.639657	-8.993007	2.021092	0.714467	-0.517103	-0.273116	0.384121
39619	0.785851	-9.001245	2.408550	0.719072	-0.522458	-0.265001	0.373828
39620	0.890051	-8.412244	2.167799	0.723516	-0.528887	-0.255368	0.362753
39621	0.326435	-8.711605	1.385792	0.726638	-0.536847	-0.245876	0.351195
39622	-0.035555	-10.041056	0.880323	0.729378	-0.544989	-0.236416	0.339268
39623	0.145278	-10.761864	0.674815	0.733394	-0.551517	-0.226015	0.326924
39624	-0.024815	-10.429505	0.669703	0.739186	-0.555987	-0.214220	0.313993
39625	-0.645697	-9.857457	0.730220	0.745307	-0.559857	-0.202237	0.300296
39626	-1.548333	-9.877618	0.899448	0.750852	-0.564084	-0.190400	0.285971
39627	-1.989017	-10.428732	1.082553	0.755696	-0.568529	-0.178877	0.271479
39628	-2.235062	-10.752742	1.614519	0.760780	-0.572041	-0.167223	0.256944
39629	-2.232698	-10.429004	1.768886	0.766007	-0.574587	-0.155964	0.242403
39630	-2.150882	-10.232488	2.174091	0.770831	-0.576980	-0.145402	0.227536
39631	-1.915323	-10.380344	2.076878	0.775074	-0.579335	-0.135769	0.212597
39632	-1.520235	-10.435085	2.136469	0.779259	-0.581287	-0.126249	0.197288
39633	-1.525864	-10.265612	2.170821	0.783534	-0.582590	-0.116872	0.181674
39634	-1.422844	-9.665767	2.130577	0.787801	-0.583421	-0.107432	0.165676
39635	-1.232411	-9.132740	2.210217	0.791745	-0.584203	-0.097836	0.149251
39636	-1.034741	-8.955902	2.529815	0.795247	-0.585064	-0.087833	0.132544
39637	-1.065681	-8.801034	2.642069	0.798562	-0.585603	-0.077376	0.115677
39638	-1.166385	-8.669629	2.639968	0.801619	-0.585799	-0.066891	0.098851
39639	-1.117522	-8.872230	2.828219	0.803866	-0.586319	-0.056789	0.082488
39640	-1.119876	-8.961075	3.132147	0.805910	-0.586506	-0.046322	0.066141
39641	-1.027601	-9.034309	3.285870	0.807244	-0.586935	-0.036308	0.050454
39642	-0.887038	-9.253000	3.157090	0.808237	-0.587206	-0.026503	0.035225
39643	-0.799757	-9.619782	3.300351	0.808858	-0.587390	-0.017218	0.020637
39644	-0.693578	-9.672427	3.266845	0.809582	-0.586921	-0.007868	0.006307
39645	-0.755573	-9.245233	3.508977	0.809780	-0.586681	0.001472	-0.007776
39646	-0.832304	-9.293537	3.386087	0.809382	-0.586801	0.010355	-0.021383
39647	-0.820731	-9.314469	3.401034	0.809015	-0.586498	0.018630	-0.034184
39648	-1.047762	-8.913367	3.717790	0.808707	-0.585828	0.026235	-0.045935
39649	-1.224779	-8.702036	3.763978	0.808020	-0.585535	0.032855	-0.056328
39650	-1.118690	-8.578861	3.893069	0.807127	-0.585447	0.038729	-0.065561
39651	-1.219054	-8.504463	3.793512	0.806108	-0.585531	0.043709	-0.073710
39652	-1.400509	-8.465327	3.931074	0.804855	-0.586027	0.047778	-0.080613
39653	-1.188825	-8.679780	3.802048	0.803602	-0.586658	0.051173	-0.086240
39654	-1.032075	-8.570998	3.938247	0.802176	-0.587679	0.054127	-0.090654
39655	-0.932706	-8.997303	3.689565	0.800501	-0.589262	0.056538	-0.093656
39656	-0.978452	-9.582070	3.477679	0.799069	-0.590725	0.058438	-0.095485
39657	-0.954472	-9.610418	3.238775	0.798059	-0.591797	0.059675	-0.096522
39658	-0.687314	-9.461874	3.014285	0.797218	-0.592821	0.060124	-0.096917
39659	-0.389855	-9.345892	2.885241	0.796377	-0.593975	0.060060	-0.096796
39660	-0.160249	-9.475835	2.797470	0.795699	-0.595019	0.059598	-0.096250
39661	-0.001437	-9.522494	2.802581	0.795290	-0.595772	0.058955	-0.095362
39662	0.147793	-9.453047	2.531680	0.795123	-0.596226	0.058276	-0.094328
39663	0.152041	-9.251735	2.271385	0.795021	-0.596601	0.057662	-0.093191
39664	0.260890	-9.318124	2.091838	0.794785	-0.597158	0.057115	-0.091966
39665	0.425378	-9.589898	2.040739	0.794645	-0.597584	0.056507	-0.090766
39666	0.547396	-9.696916	1.993057	0.794596	-0.597809	0.056164	-0.089928
39667	0.554289	-9.703208	1.995679	0.794726	-0.597706	0.056146	-0.089479
39668	0.536306	-9.637355	2.030166	0.794996	-0.597341	0.056439	-0.089335
39669	0.516500	-9.708131	2.158209	0.795343	-0.596779	0.057037	-0.089616
39670	0.437859	-9.587336	2.340647	0.795553	-0.596315	0.057855	-0.090313
39671	0.293648	-9.613538	2.265501	0.795506	-0.596124	0.058891	-0.091312
39672	0.301774	-9.616333	2.211731	0.795075	-0.596396	0.060189	-0.092436
39673	0.366828	-9.648468	2.014914	0.794759	-0.596446	0.061686	-0.093835
39674	0.599796	-9.679079	2.008903	0.794375	-0.596497	0.063336	-0.095645
39675	0.612460	-9.711849	1.912719	0.794271	-0.595981	0.065487	-0.098245
39676	0.401320	-9.563737	2.094799	0.794238	-0.595257	0.067746	-0.101320
39677	0.365815	-9.653612	2.048177	0.794231	-0.594404	0.070171	-0.104671
39678	0.203091	-9.621632	2.224131	0.794470	-0.593086	0.072943	-0.108378
39679	0.133726	-9.375642	2.495309	0.794773	-0.591555	0.075976	-0.112364
39680	0.294837	-9.010939	2.848603	0.794625	-0.590447	0.079665	-0.116609
39681	-0.054867	-9.102698	2.645152	0.794242	-0.589525	0.083675	-0.120988
39682	-0.365982	-9.313486	2.571733	0.794343	-0.587923	0.087645	-0.125233
39683	-0.709944	-9.135220	3.005680	0.794921	-0.585726	0.091455	-0.129080
39684	-0.661357	-9.213432	3.414106	0.795313	-0.583998	0.094598	-0.132192
39685	-0.536351	-9.148840	3.557448	0.795860	-0.582247	0.097106	-0.134783
39686	-0.593222	-9.136426	3.380265	0.796282	-0.580848	0.099143	-0.136828
39687	-0.683076	-9.207894	3.250189	0.796687	-0.579655	0.100664	-0.138411
39688	-0.628230	-9.156392	3.152795	0.796946	-0.578827	0.101856	-0.139508
39689	-0.565916	-9.115723	3.237543	0.797207	-0.578160	0.102609	-0.140227
39690	-0.535847	-9.260451	3.336895	0.797431	-0.577704	0.102966	-0.140567
39691	-0.455430	-9.453094	3.313851	0.797732	-0.577248	0.102994	-0.140716
39692	-0.298391	-9.494188	3.231604	0.798034	-0.576830	0.102793	-0.140861
39693	-0.327071	-9.270474	3.014635	0.798343	-0.576358	0.102601	-0.141186
39694	-0.235830	-9.200367	2.969856	0.798492	-0.576123	0.102301	-0.141519
39695	-0.054193	-9.264391	3.063854	0.798691	-0.575789	0.102039	-0.141946
39696	-0.044893	-9.208215	3.000175	0.798865	-0.575449	0.101835	-0.142486
39697	-0.078275	-9.251235	2.858508	0.799128	-0.574974	0.101636	-0.143071
39698	-0.270204	-9.170212	2.937189	0.799482	-0.574378	0.101379	-0.143671
39699	-0.190616	-9.172544	3.018205	0.799734	-0.573929	0.101075	-0.144271
39700	-0.056467	-9.238338	3.151319	0.800049	-0.573334	0.100829	-0.145061
39701	-0.092185	-9.253630	3.213233	0.800444	-0.572566	0.100727	-0.145989
39702	-0.301184	-9.187256	2.997332	0.800864	-0.571757	0.100755	-0.146831
39703	-0.442674	-9.091419	2.968283	0.801353	-0.570933	0.100617	-0.147459
39704	-0.531740	-9.091995	3.160315	0.801834	-0.570201	0.100356	-0.147855
39705	-0.626041	-9.202475	3.140422	0.802360	-0.569442	0.100019	-0.148156
39706	-0.685053	-9.197026	3.152245	0.802953	-0.568656	0.099454	-0.148343
39707	-0.596015	-9.189402	2.947906	0.803641	-0.567789	0.098673	-0.148463
39708	-0.550235	-9.128562	2.938187	0.804412	-0.566892	0.097664	-0.148379
39709	-0.483688	-9.086909	2.982063	0.805139	-0.566026	0.096698	-0.148375
39710	-0.207336	-9.165661	2.901500	0.805713	-0.565318	0.095754	-0.148573
39711	-0.078151	-9.242461	2.853491	0.806299	-0.564484	0.094937	-0.149085
39712	-0.102480	-9.254499	2.871369	0.807072	-0.563261	0.094343	-0.149906
39713	-0.200716	-9.058566	2.857516	0.807883	-0.561921	0.093852	-0.150868
39714	-0.087011	-8.935177	2.797238	0.808607	-0.560630	0.093445	-0.152045
39715	-0.027734	-8.873480	2.920778	0.809146	-0.559449	0.093451	-0.153514
39716	-0.022113	-9.118080	3.046116	0.809644	-0.558317	0.093603	-0.154910
39717	-0.317399	-9.379369	3.332870	0.810410	-0.556699	0.094143	-0.156394
39718	-0.238632	-9.439162	3.398768	0.811248	-0.554937	0.094774	-0.157920
39719	-0.201720	-9.431097	3.613163	0.812013	-0.553267	0.095374	-0.159483
39720	-0.091908	-9.303339	3.833551	0.812520	-0.551956	0.096053	-0.161026
39721	-0.080213	-9.278855	3.770041	0.812774	-0.550992	0.096796	-0.162595
39722	0.058338	-9.132007	3.679826	0.812944	-0.550181	0.097303	-0.164179
39723	0.203684	-8.952062	3.430459	0.813125	-0.549337	0.097557	-0.165949
39724	0.293826	-8.738546	3.408155	0.813170	-0.548638	0.097679	-0.167955
39725	0.302473	-8.749340	3.569819	0.813244	-0.547864	0.097870	-0.170004
39726	0.224180	-8.848571	3.700106	0.813631	-0.546523	0.098395	-0.172151
39727	0.024670	-8.711871	3.856308	0.814248	-0.544773	0.099139	-0.174339
39728	-0.130990	-8.545471	3.864159	0.814798	-0.543161	0.099890	-0.176357
39729	-0.248514	-8.330602	3.890395	0.815224	-0.541754	0.100662	-0.178270
39730	-0.171235	-8.249657	3.941642	0.815291	-0.540980	0.101370	-0.179902
39731	-0.140693	-8.405374	3.954493	0.815178	-0.540591	0.102019	-0.181214
39732	-0.333664	-8.666223	4.096718	0.815129	-0.540275	0.102541	-0.182080
39733	-0.241032	-8.837575	4.271877	0.815316	-0.539729	0.102991	-0.182606
39734	-0.013853	-8.898696	4.120666	0.815631	-0.539068	0.103374	-0.182939
39735	0.005800	-8.815422	4.032987	0.815847	-0.538560	0.103752	-0.183254
39736	0.138014	-8.953964	4.147935	0.815740	-0.538663	0.103973	-0.183303
39737	0.395414	-8.989461	4.118936	0.815615	-0.538739	0.104279	-0.183460
39738	0.405326	-8.820129	4.169506	0.815416	-0.538915	0.104562	-0.183669
39739	0.385842	-8.913882	4.041015	0.815097	-0.539318	0.104736	-0.183802
39740	0.317185	-8.922679	3.864526	0.814759	-0.539768	0.104837	-0.183924
39741	0.348326	-8.678989	3.828497	0.814383	-0.540309	0.104782	-0.184032
39742	0.377429	-8.684313	3.902294	0.814024	-0.540910	0.104623	-0.183940
39743	0.323807	-8.755096	3.857647	0.813781	-0.541358	0.104562	-0.183732
39744	0.213324	-8.755071	3.801832	0.813583	-0.541760	0.104404	-0.183515
39745	0.287080	-8.975100	3.814463	0.813238	-0.542435	0.104089	-0.183233
39746	0.296648	-9.264103	3.806818	0.812872	-0.543107	0.103818	-0.183018
39747	0.472694	-9.788815	3.855519	0.812411	-0.543933	0.103470	-0.182806
39748	0.383166	-10.305614	3.857923	0.812132	-0.544309	0.103440	-0.182945
39749	0.144495	-10.258289	3.891215	0.811960	-0.544422	0.103465	-0.183361
39750	0.150816	-10.046948	3.963318	0.811664	-0.544657	0.103435	-0.183990
39751	0.372986	-9.827679	3.958172	0.811174	-0.545107	0.103415	-0.184829
39752	0.547465	-9.789264	3.929896	0.810488	-0.545776	0.103396	-0.185867
39753	0.742280	-9.935766	3.878950	0.809643	-0.546601	0.103377	-0.187132
39754	0.940545	-9.985921	3.789564	0.808845	-0.547241	0.103408	-0.188688
39755	0.979763	-9.975654	3.753125	0.808074	-0.547684	0.103645	-0.190569
39756	0.986188	-9.801552	3.753464	0.807285	-0.547998	0.104067	-0.192768
39757	1.029426	-9.588108	3.543749	0.806487	-0.548167	0.104632	-0.195307
39758	1.108957	-9.210657	3.598618	0.805602	-0.548318	0.105308	-0.198149
39759	1.126553	-9.009886	3.625555	0.804571	-0.548556	0.106237	-0.201163
39760	1.135865	-8.890864	3.483637	0.803459	-0.548830	0.107340	-0.204249
39761	1.280833	-8.811646	3.354343	0.802321	-0.549160	0.108374	-0.207267
39762	1.294387	-8.732629	3.245686	0.801161	-0.549442	0.109511	-0.210386
39763	1.230940	-8.743145	3.164589	0.799880	-0.549800	0.110758	-0.213645
39764	1.288599	-8.814640	3.207118	0.798570	-0.550068	0.112173	-0.217093
39765	1.364810	-8.762075	3.221215	0.797348	-0.550028	0.113854	-0.220776
39766	1.328507	-8.536252	3.186778	0.796285	-0.549615	0.115715	-0.224644
39767	1.443069	-8.271363	3.121669	0.795128	-0.549168	0.117738	-0.228745
39768	1.637121	-8.108421	3.167918	0.793753	-0.548822	0.119964	-0.233153
39769	1.721251	-8.119276	3.018897	0.792070	-0.548629	0.122621	-0.237898
