// Start Time: Unknown
// Update Rate: 60.0Hz
// Filter Profile: human (46.1)
// Option Flags: AHS Disabled ICC Disabled 
// Firmware Version: 4.3.5
PacketCounter	Acc_X	Acc_Y	Acc_Z	Quat_q0	Quat_q1	Quat_q2	Quat_q3
34999	9.633447	0.702891	-1.650003	0.649040	0.070606	-0.757470	0.001215
35000	9.535382	0.744880	-1.552042	0.649330	0.071514	-0.757134	0.002049
35001	9.501448	0.800378	-1.563813	0.649481	0.072505	-0.756907	0.002896
35002	9.609104	0.764043	-1.606442	0.649488	0.073373	-0.756814	0.003647
35003	9.700519	0.676220	-1.566553	0.649552	0.074195	-0.756676	0.004317
35004	9.653689	0.634283	-1.622799	0.649765	0.075160	-0.756393	0.005096
35005	9.599589	0.763266	-1.564235	0.649925	0.076355	-0.756129	0.006030
35006	9.707839	0.846271	-1.573207	0.650086	0.077552	-0.755861	0.006923
35007	9.842976	0.621265	-2.155430	0.650509	0.079597	-0.755267	0.008670
35008	9.816719	0.945535	-1.871241	0.651287	0.082405	-0.754261	0.011164
35009	9.661332	1.019876	-1.148250	0.651896	0.084427	-0.753485	0.012824
35010	9.798429	0.735023	-1.638330	0.652233	0.085926	-0.753001	0.014044
35011	9.720969	0.723121	-1.778096	0.653107	0.087366	-0.752054	0.015281
35012	9.536814	0.684489	-1.312017	0.654142	0.088482	-0.751003	0.016229
35013	9.431784	0.741433	-1.287347	0.654979	0.089544	-0.750126	0.017164
35014	9.439725	0.887372	-1.386286	0.655630	0.090674	-0.749401	0.018053
35015	9.429325	0.833444	-1.370335	0.656541	0.091543	-0.748483	0.018620
35016	9.506050	0.781451	-1.226967	0.657266	0.092202	-0.747759	0.018872
35017	9.693930	0.803837	-1.190345	0.657949	0.092862	-0.747071	0.019082
35018	9.704992	0.736619	-1.223802	0.658621	0.093534	-0.746388	0.019326
35019	9.775241	0.693183	-1.157751	0.659134	0.094276	-0.745835	0.019607
35020	9.722113	0.686607	-1.218578	0.659373	0.094662	-0.745576	0.019553
35021	9.806667	0.714354	-1.161005	0.659271	0.094927	-0.745639	0.019320
35022	9.635883	0.796618	-1.055406	0.659309	0.095134	-0.745589	0.018912
35023	9.706766	0.826827	-1.149687	0.659030	0.095528	-0.745797	0.018450
35024	9.785359	0.962054	-1.234321	0.659132	0.095993	-0.745658	0.018019
35025	9.698135	0.858942	-1.251321	0.659226	0.096065	-0.745583	0.017275
35026	9.588969	0.751216	-1.167545	0.659071	0.096291	-0.745703	0.016751
35027	9.639618	0.811243	-1.392216	0.658843	0.096840	-0.745838	0.016537
35028	9.701129	0.754029	-1.906215	0.658782	0.098327	-0.745679	0.017311
35029	9.700563	1.068483	-1.613350	0.658744	0.100500	-0.745390	0.018686
35030	9.707191	1.170045	-1.043481	0.658915	0.102366	-0.744957	0.019804
35031	9.555536	1.011899	-0.998543	0.658993	0.103436	-0.744725	0.020353
35032	9.552989	0.993188	-1.337296	0.658963	0.104275	-0.744620	0.020842
35033	9.583112	0.965751	-1.443631	0.658981	0.105345	-0.744433	0.021580
35034	9.648220	1.075099	-1.469245	0.658881	0.106836	-0.744275	0.022708
35035	9.806873	1.082328	-1.374990	0.658948	0.108176	-0.743988	0.023822
35036	9.792659	0.934165	-1.365021	0.659048	0.109373	-0.743685	0.025016
35037	9.735330	0.919855	-1.506409	0.658998	0.110481	-0.743525	0.026203
35038	9.701778	0.683311	-1.528088	0.659201	0.111338	-0.743176	0.027325
35039	9.588950	0.590618	-1.411949	0.659626	0.112076	-0.742640	0.028598
35040	9.504147	0.775430	-1.294472	0.660079	0.112610	-0.742111	0.029768
35041	9.369726	0.849330	-1.122114	0.660523	0.113015	-0.741614	0.030761
35042	9.418320	0.846588	-1.100075	0.660711	0.113531	-0.741328	0.031690
35043	9.580014	0.805575	-1.046354	0.660821	0.113971	-0.741133	0.032360
35044	9.677607	0.901067	-1.026466	0.661084	0.114144	-0.740857	0.032715
35045	9.616142	0.881744	-1.000869	0.661404	0.114214	-0.740552	0.032890
35046	9.685696	1.002104	-1.021737	0.661553	0.114623	-0.740339	0.033262
35047	9.809359	1.056004	-1.141253	0.661512	0.115058	-0.740302	0.033398
35048	9.772909	0.887952	-1.143598	0.661724	0.115627	-0.740016	0.033585
35049	9.631198	0.830377	-1.031730	0.661796	0.116218	-0.739857	0.033649
35050	9.650063	0.822343	-1.151794	0.661615	0.116729	-0.739948	0.033415
35051	9.678924	0.841527	-1.185978	0.661499	0.117336	-0.739967	0.033166
35052	9.704502	0.923025	-1.231796	0.661371	0.117829	-0.740022	0.032732
35053	9.719348	0.946099	-1.251683	0.661138	0.118277	-0.740177	0.032316
35054	9.748029	1.023971	-1.228578	0.660817	0.118820	-0.740390	0.032020
35055	9.806852	1.068563	-1.339575	0.660643	0.119419	-0.740454	0.031886
35056	9.658912	1.116978	-1.185195	0.660654	0.119891	-0.740372	0.031793
35057	9.519528	1.032138	-1.194986	0.660692	0.120107	-0.740315	0.031540
35058	9.491433	1.059210	-1.222874	0.660586	0.120303	-0.740390	0.031230
35059	9.610348	1.104500	-1.347545	0.660527	0.120370	-0.740452	0.030756
35060	9.622450	1.093173	-1.320630	0.660524	0.120368	-0.740477	0.030217
35061	9.596046	1.193877	-1.315137	0.660577	0.120086	-0.740501	0.029589
35062	9.586573	1.229516	-1.325407	0.660748	0.119235	-0.740522	0.028683
35063	9.568811	1.036682	-1.240454	0.660942	0.118197	-0.740548	0.027830
35064	9.589873	1.002333	-1.284543	0.661000	0.117261	-0.740670	0.027146
35065	9.605730	0.978414	-1.212292	0.661040	0.116297	-0.740810	0.026496
35066	9.607978	0.915772	-1.230013	0.661061	0.115330	-0.740968	0.025760
35067	9.624573	0.885607	-1.349931	0.661102	0.114535	-0.741077	0.025114
35068	9.665473	0.918589	-1.290349	0.661201	0.113844	-0.741115	0.024530
35069	9.621365	0.875520	-1.155757	0.661314	0.113211	-0.741127	0.024035
35070	9.598595	0.925866	-1.208921	0.661321	0.112780	-0.741195	0.023747
35071	9.569583	1.005044	-1.217774	0.661260	0.112536	-0.741292	0.023604
35072	9.552305	1.031352	-1.115224	0.661072	0.112234	-0.741512	0.023387
35073	9.593899	1.021471	-1.139515	0.660726	0.111783	-0.741900	0.023019
35074	9.693120	0.977379	-1.305260	0.660278	0.111313	-0.742385	0.022513
35075	9.749562	0.947118	-1.261977	0.659950	0.110920	-0.742747	0.022108
35076	9.676040	0.926275	-1.181084	0.659492	0.110558	-0.743219	0.021743
35077	9.729888	0.898331	-1.183412	0.659041	0.110265	-0.743672	0.021406
35078	9.722353	0.904759	-1.295429	0.658729	0.110199	-0.743963	0.021237
35079	9.721500	0.963303	-1.255182	0.658432	0.110357	-0.744206	0.021113
35080	9.685091	1.001281	-1.228767	0.658119	0.110589	-0.744450	0.021031
35081	9.699020	0.977498	-1.356660	0.657833	0.110749	-0.744685	0.020867
35082	9.769672	0.965857	-1.366910	0.657752	0.110641	-0.744782	0.020539
35083	9.685376	0.983718	-1.331332	0.657806	0.110464	-0.744770	0.020178
35084	9.625095	0.983469	-1.326176	0.657852	0.110544	-0.744721	0.020030
35085	9.595840	1.067756	-1.331651	0.657919	0.110809	-0.744623	0.019999
35086	9.653790	1.024241	-1.233321	0.658001	0.111058	-0.744515	0.019931
35087	9.663003	0.938365	-1.265951	0.658164	0.111211	-0.744353	0.019775
35088	9.660200	0.887879	-1.353524	0.658306	0.111341	-0.744212	0.019625
35089	9.629931	0.881496	-1.332738	0.658507	0.111574	-0.743999	0.019624
35090	9.634371	0.954740	-1.263868	0.658695	0.111889	-0.743783	0.019720
35091	9.655776	0.907516	-1.247598	0.658950	0.112085	-0.743528	0.019724
35092	9.716433	0.895178	-1.201738	0.659150	0.112350	-0.743307	0.019850
35093	9.724757	0.865829	-1.212462	0.659393	0.112707	-0.743030	0.020106
35094	9.658672	0.835915	-1.218016	0.659622	0.113261	-0.742730	0.020553
35095	9.654681	0.881528	-1.193382	0.659821	0.113932	-0.742436	0.021098
35096	9.637547	0.888825	-1.245059	0.659953	0.114777	-0.742169	0.021774
35097	9.656347	0.991869	-1.266373	0.659945	0.115540	-0.742040	0.022349
35098	9.656117	1.050200	-1.217969	0.659932	0.116270	-0.741921	0.022920
35099	9.637317	1.115513	-1.241623	0.659944	0.116818	-0.741811	0.023320
35100	9.603297	1.109686	-1.283341	0.659929	0.117285	-0.741740	0.023669
35101	9.593572	1.125117	-1.252141	0.659911	0.117780	-0.741664	0.024097
35102	9.633917	1.101668	-1.254727	0.659933	0.118242	-0.741556	0.024523
35103	9.628428	1.071863	-1.254949	0.659913	0.118663	-0.741493	0.024947
35104	9.593458	1.122594	-1.264222	0.659923	0.119036	-0.741411	0.025347
35105	9.603956	1.087788	-1.236794	0.659872	0.119311	-0.741401	0.025674
35106	9.564829	1.107998	-1.218928	0.659857	0.119496	-0.741376	0.025918
35107	9.611667	1.111170	-1.207457	0.659760	0.119535	-0.741452	0.026029
35108	9.602343	1.066523	-1.224750	0.659733	0.119490	-0.741480	0.026110
35109	9.631283	1.132669	-1.223881	0.659662	0.119343	-0.741567	0.026124
35110	9.613782	1.176276	-1.179090	0.659511	0.119012	-0.741760	0.025952
35111	9.671111	1.104331	-1.234588	0.659287	0.118575	-0.742041	0.025601
35112	9.660323	1.060426	-1.270720	0.659102	0.118185	-0.742276	0.025356
35113	9.653253	1.029667	-1.291897	0.658860	0.117819	-0.742557	0.025135
35114	9.648287	1.013354	-1.326886	0.658684	0.117571	-0.742753	0.025119
35115	9.625831	1.026452	-1.270344	0.658497	0.117194	-0.742984	0.024955
35116	9.626954	0.946614	-1.250713	0.658239	0.116862	-0.743269	0.024815
35117	9.694744	0.839699	-1.267572	0.657936	0.116591	-0.743584	0.024706
35118	9.686441	0.809097	-1.305030	0.657672	0.116486	-0.743832	0.024753
35119	9.712799	0.859277	-1.296028	0.657347	0.116707	-0.744073	0.025077
35120	9.710090	0.866892	-1.565591	0.657127	0.117415	-0.744130	0.025851
35121	9.665285	0.821635	-1.853058	0.656468	0.118913	-0.744422	0.027305
35122	9.723624	0.968003	-1.470524	0.655520	0.120575	-0.744925	0.029021
35123	9.783821	1.025679	-1.033012	0.654992	0.121435	-0.745209	0.030036
35124	9.727368	0.876749	-1.396887	0.654669	0.121871	-0.745397	0.030659
35125	9.611085	0.852835	-1.498105	0.654429	0.122562	-0.745458	0.031524
35126	9.423933	0.925341	-1.206835	0.654277	0.123093	-0.745476	0.032190
35127	9.410036	0.853189	-1.405826	0.653793	0.123491	-0.745812	0.032694
35128	9.539423	0.840525	-1.648203	0.653131	0.124294	-0.746220	0.033549
35129	9.650548	0.884303	-1.492066	0.652538	0.125307	-0.746524	0.034573
35130	9.696066	0.913924	-1.373588	0.652074	0.126143	-0.746749	0.035402
35131	9.688248	0.837970	-1.472093	0.651672	0.126936	-0.746927	0.036220
35132	9.713733	0.829236	-1.512039	0.651241	0.127780	-0.747118	0.037041
35133	9.664175	0.835886	-1.591814	0.650686	0.128970	-0.747341	0.038171
35134	9.546125	0.945716	-1.474869	0.650147	0.130261	-0.747522	0.039384
35135	9.498728	0.982312	-1.409776	0.649517	0.131411	-0.747815	0.040387
35136	9.585754	1.005775	-1.505362	0.648738	0.132556	-0.748237	0.041361
35137	9.666596	1.048006	-1.348229	0.648336	0.133395	-0.748394	0.042100
35138	9.640735	1.021022	-1.413961	0.647930	0.134063	-0.748595	0.042652
35139	9.625595	0.990977	-1.524664	0.647528	0.134750	-0.748786	0.043242
35140	9.639422	1.078604	-1.387496	0.647149	0.135308	-0.748988	0.043672
35141	9.648951	1.074575	-1.441792	0.646717	0.135688	-0.749276	0.043946
35142	9.655819	1.069769	-1.526946	0.646219	0.135985	-0.749637	0.044192
35143	9.657917	1.035673	-1.596787	0.645799	0.136212	-0.749945	0.044404
35144	9.650867	1.004336	-1.604847	0.645477	0.136368	-0.750182	0.044614
35145	9.721151	0.954312	-1.721253	0.645146	0.136389	-0.750456	0.044726
35146	9.715695	0.940262	-1.579012	0.645037	0.136233	-0.750578	0.044731
35147	9.679000	0.868867	-1.666072	0.644963	0.135975	-0.750700	0.044539
35148	9.578701	0.888405	-1.659784	0.644861	0.135768	-0.750835	0.044366
35149	9.546535	0.864773	-1.628994	0.644846	0.135617	-0.750882	0.044236
35150	9.556286	0.786359	-1.675441	0.644729	0.135518	-0.751008	0.044108
35151	9.653512	0.764431	-1.715273	0.644654	0.135645	-0.751042	0.044253
35152	9.656410	0.795227	-1.584259	0.644583	0.135973	-0.751027	0.044533
35153	9.592747	0.852435	-1.593223	0.644606	0.136262	-0.750940	0.044780
35154	9.545727	0.846913	-1.603461	0.644556	0.136414	-0.750953	0.044820
35155	9.660114	0.819179	-1.777306	0.644368	0.136666	-0.751057	0.044999
35156	9.717576	0.927142	-1.723877	0.644477	0.137077	-0.750864	0.045413
35157	9.574605	0.973894	-1.587546	0.644795	0.137415	-0.750506	0.045794
35158	9.536365	0.889303	-1.664821	0.644945	0.137754	-0.750294	0.046137
35159	9.646689	0.984873	-1.670634	0.645027	0.138148	-0.750125	0.046552
35160	9.717695	1.028915	-1.658759	0.645125	0.138444	-0.749966	0.046881
35161	9.692492	1.089006	-1.769097	0.645397	0.138564	-0.749692	0.047178
35162	9.619428	0.951579	-1.782133	0.645751	0.138586	-0.749368	0.047413
35163	9.602564	0.834890	-1.710007	0.646164	0.138614	-0.748991	0.047656
35164	9.648138	0.809719	-1.657973	0.646551	0.138759	-0.748610	0.047966
35165	9.602953	0.937125	-1.642477	0.647110	0.138969	-0.748060	0.048402
35166	9.512310	0.969972	-1.575119	0.647761	0.138996	-0.747466	0.048783
35167	9.550136	0.899869	-1.513321	0.648564	0.138904	-0.746760	0.049191
35168	9.643684	0.856806	-1.601616	0.649269	0.138969	-0.746089	0.049887
35169	9.745264	0.949357	-1.560304	0.650002	0.139051	-0.745390	0.050565
35170	9.681497	0.931877	-1.388067	0.650739	0.139098	-0.744701	0.051091
35171	9.624843	0.966103	-1.497930	0.651370	0.139131	-0.744115	0.051496
35172	9.585423	0.910417	-1.505940	0.652051	0.139001	-0.743524	0.051776
35173	9.543658	0.874587	-1.368377	0.652628	0.138831	-0.743035	0.051978
35174	9.555631	0.826312	-1.280394	0.653119	0.138881	-0.742571	0.052307
35175	9.556300	0.883761	-1.254193	0.653509	0.139072	-0.742160	0.052753
35176	9.534964	0.853482	-1.286910	0.653755	0.139221	-0.741882	0.053234
35177	9.650326	0.884771	-1.257991	0.653927	0.139277	-0.741689	0.053648
35178	9.715066	0.882395	-1.197868	0.654039	0.139385	-0.741536	0.054115
35179	9.688426	0.848769	-1.322362	0.654240	0.139469	-0.741310	0.054566
35180	9.631634	0.868960	-1.386202	0.654460	0.139604	-0.741058	0.055010
35181	9.676073	0.842362	-1.321985	0.654712	0.139680	-0.740796	0.055352
35182	9.683513	0.867306	-1.315966	0.654899	0.139796	-0.740582	0.055700
35183	9.605149	0.910940	-1.306031	0.655151	0.139762	-0.740348	0.055938
35184	9.547261	0.845189	-1.309314	0.655381	0.139623	-0.740165	0.056011
35185	9.590748	0.881042	-1.218307	0.655576	0.139520	-0.740004	0.056113
35186	9.607605	0.888411	-1.243501	0.655748	0.139320	-0.739885	0.056166
35187	9.579375	0.903906	-1.310937	0.655931	0.138992	-0.739789	0.056105
35188	9.583190	0.902211	-1.248013	0.656081	0.138689	-0.739723	0.055981
35189	9.608398	0.952781	-1.291468	0.656144	0.138455	-0.739715	0.055924
35190	9.598172	1.028352	-1.246793	0.656197	0.138114	-0.739740	0.055819
35191	9.631725	0.984961	-1.319716	0.656249	0.137448	-0.739843	0.055482
35192	9.612881	0.894248	-1.329878	0.656390	0.136596	-0.739909	0.055041
35193	9.558852	0.841264	-1.310199	0.656417	0.135701	-0.740080	0.054620
35194	9.544630	0.851657	-1.382953	0.656438	0.134891	-0.740236	0.054267
35195	9.558666	0.842569	-1.398399	0.656448	0.134048	-0.740410	0.053849
35196	9.570783	0.819938	-1.385302	0.656398	0.133234	-0.740633	0.053415
35197	9.582462	0.783562	-1.314678	0.656316	0.132412	-0.740885	0.052973
35198	9.630007	0.736400	-1.379438	0.656155	0.131541	-0.741219	0.052460
35199	9.642672	0.593715	-1.398894	0.656030	0.130689	-0.741522	0.051865
35200	9.585202	0.709964	-1.285089	0.655774	0.129931	-0.741920	0.051318
35201	9.526264	0.748101	-1.425166	0.655248	0.129140	-0.742569	0.050635
35202	9.633456	0.660138	-1.551054	0.654566	0.128167	-0.743408	0.049618
35203	9.652020	0.581636	-1.409869	0.653967	0.127250	-0.744159	0.048598
35204	9.796001	0.578562	-1.470306	0.653015	0.126524	-0.745182	0.047608
35205	9.835663	0.705708	-1.505855	0.652634	0.125903	-0.745674	0.046780
35206	9.689566	0.741477	-1.535537	0.652390	0.125228	-0.746058	0.045851
35207	9.709463	0.619981	-1.472922	0.652158	0.124597	-0.746420	0.044981
35208	9.681700	0.553126	-1.419383	0.652013	0.124384	-0.746602	0.044642
35209	9.717974	0.665470	-1.480174	0.652068	0.124329	-0.746569	0.044559
35210	9.711805	0.742192	-1.608176	0.652207	0.124179	-0.746481	0.044404
35211	9.706778	0.803479	-1.454421	0.652508	0.123913	-0.746273	0.044214
35212	9.643624	0.862611	-1.486310	0.652762	0.123536	-0.746129	0.043959
35213	9.678138	0.853601	-1.406896	0.653165	0.123046	-0.745875	0.043665
35214	9.635238	0.906662	-1.349762	0.653505	0.122453	-0.745693	0.043338
35215	9.672432	0.881412	-1.403055	0.653817	0.121919	-0.745525	0.043025
35216	9.639031	0.872737	-1.438915	0.654014	0.121359	-0.745466	0.042644
35217	9.707776	0.840727	-1.439166	0.654222	0.120646	-0.745431	0.042085
35218	9.601092	0.802981	-1.340209	0.654481	0.119817	-0.745371	0.041481
35219	9.573509	0.747855	-1.350193	0.654648	0.118857	-0.745420	0.040721
35220	9.584066	0.729732	-1.362950	0.654814	0.118026	-0.745445	0.040001
35221	9.690626	0.795287	-1.350070	0.654934	0.117279	-0.745497	0.039258
35222	9.718582	0.849583	-1.346412	0.655165	0.116435	-0.745467	0.038483
35223	9.614745	0.843431	-1.305409	0.655457	0.115410	-0.745417	0.037547
35224	9.567023	0.748776	-1.242706	0.655645	0.114518	-0.745435	0.036643
35225	9.628842	0.724999	-1.348536	0.655715	0.113687	-0.745551	0.035582
35226	9.688098	0.748616	-1.422139	0.655973	0.112876	-0.745500	0.034474
35227	9.624208	0.748513	-1.237113	0.656256	0.111928	-0.745451	0.033206
35228	9.626012	0.770017	-1.260732	0.656514	0.110828	-0.745449	0.031827
35229	9.631978	0.804723	-1.269457	0.656769	0.109731	-0.745443	0.030479
35230	9.643777	0.869056	-1.290767	0.657056	0.108838	-0.745369	0.029267
35231	9.659118	0.888918	-1.328314	0.657376	0.108102	-0.745236	0.028182
35232	9.719058	0.879749	-1.280902	0.657734	0.107380	-0.745065	0.027091
35233	9.741594	0.850645	-1.275426	0.658157	0.106490	-0.744858	0.025979
35234	9.761125	0.824533	-1.327262	0.658611	0.105568	-0.744626	0.024874
35235	9.719396	0.879549	-1.234760	0.659248	0.104629	-0.744230	0.023803
35236	9.627836	0.916497	-1.151144	0.660030	0.103669	-0.743706	0.022701
35237	9.658192	0.914934	-1.133579	0.660838	0.102681	-0.743160	0.021523
35238	9.705989	0.769476	-1.040036	0.661641	0.101719	-0.742612	0.020271
35239	9.738072	0.864015	-1.087552	0.662478	0.100949	-0.741999	0.019220
35240	9.717006	0.848992	-1.111352	0.663328	0.100139	-0.741377	0.018102
35241	9.672867	0.734406	-1.146237	0.663932	0.099361	-0.740967	0.017031
35242	9.817523	0.691399	-1.304896	0.664471	0.099022	-0.740544	0.016375
35243	9.802669	0.720522	-1.153333	0.665208	0.098732	-0.739935	0.015710
35244	9.743251	0.649291	-1.109730	0.665947	0.098761	-0.739275	0.015273
35245	9.730172	0.626944	-1.225499	0.666649	0.099210	-0.738584	0.015190
35246	9.807142	0.575942	-1.243295	0.667405	0.099962	-0.737794	0.015398
35247	9.755441	0.644012	-1.079865	0.668313	0.100993	-0.736821	0.015917
35248	9.750110	0.761000	-1.088033	0.669217	0.102187	-0.735819	0.016647
35249	9.647107	0.836627	-1.068145	0.670098	0.103613	-0.734796	0.017569
35250	9.685635	0.885314	-1.100500	0.670887	0.105308	-0.733807	0.018653
35251	9.615462	1.018296	-0.932507	0.671759	0.107168	-0.732707	0.019896
35252	9.549109	1.316412	-0.770808	0.672353	0.108829	-0.731887	0.020951
35253	9.555081	1.616613	-0.660761	0.672911	0.109848	-0.731207	0.021477
35254	9.463566	1.687716	-0.658363	0.673190	0.110295	-0.730880	0.021582
35255	9.526815	1.576524	-0.721931	0.673222	0.110181	-0.730875	0.021319
35256	9.626903	1.477125	-0.685716	0.673212	0.109564	-0.730990	0.020848
35257	9.720668	1.426877	-0.749778	0.673142	0.108575	-0.731218	0.020314
35258	9.701527	1.340397	-0.845525	0.673011	0.107394	-0.731529	0.019695
35259	9.672817	1.182443	-0.772499	0.672808	0.105917	-0.731954	0.018834
35260	9.621549	0.953760	-0.897108	0.672672	0.104391	-0.732320	0.017944
35261	9.655889	0.919121	-1.037657	0.672451	0.103283	-0.732694	0.017372
35262	9.770165	0.886293	-1.037407	0.671958	0.102250	-0.733306	0.016723
35263	9.794670	0.860012	-1.053274	0.671460	0.101629	-0.733855	0.016419
35264	9.759170	0.858981	-0.844335	0.670989	0.101165	-0.734355	0.016179
35265	9.821188	0.765948	-1.026504	0.670659	0.100737	-0.734723	0.015842
35266	9.799910	0.738909	-1.035277	0.670475	0.100300	-0.734959	0.015459
35267	9.788279	0.730573	-0.921888	0.670398	0.099683	-0.735126	0.014825
35268	9.683053	0.800575	-0.928039	0.670460	0.099053	-0.735168	0.014113
35269	9.608988	0.747165	-0.960453	0.670490	0.098240	-0.735269	0.013091
35270	9.637882	0.578264	-1.126273	0.670467	0.097938	-0.735340	0.012577
35271	9.643018	0.640763	-0.975747	0.670289	0.098138	-0.735477	0.012489
35272	9.677106	0.610878	-1.045203	0.669926	0.098535	-0.735752	0.012653
35273	9.747837	0.784991	-0.979639	0.669558	0.099100	-0.736004	0.013002
35274	9.740319	0.733684	-0.889626	0.669251	0.099422	-0.736238	0.013079
35275	9.705682	0.545052	-1.032325	0.668954	0.099823	-0.736453	0.013155
35276	9.623879	0.551655	-0.874839	0.668611	0.100494	-0.736669	0.013400
35277	9.521060	0.638672	-0.873241	0.668124	0.101375	-0.736985	0.013666
35278	9.575166	0.716067	-0.969901	0.667507	0.102159	-0.737435	0.013663
35279	9.653342	0.832349	-1.036161	0.666936	0.102941	-0.737845	0.013543
35280	9.631942	0.969350	-1.067578	0.666389	0.103061	-0.738338	0.012699
35281	9.701712	0.818988	-1.293413	0.665710	0.102892	-0.738995	0.011414
35282	9.714006	0.784884	-1.122572	0.665280	0.102954	-0.739390	0.010232
35283	9.729125	0.867865	-1.068901	0.664905	0.103576	-0.739652	0.009445
35284	9.698417	0.912471	-1.132950	0.664604	0.104243	-0.739838	0.008648
35285	9.581896	0.986940	-0.996023	0.664422	0.105136	-0.739880	0.008261
35286	9.530879	1.059227	-1.007043	0.664275	0.106018	-0.739890	0.007862
35287	9.495216	1.072291	-1.051699	0.664267	0.107028	-0.739756	0.007441
35288	9.417800	1.017181	-1.057419	0.664091	0.108070	-0.739768	0.006909
35289	9.529937	1.033855	-1.128263	0.663730	0.109018	-0.739958	0.006291
35290	9.685512	1.133236	-1.242877	0.663138	0.109952	-0.740354	0.005887
35291	9.879408	1.338014	-1.322281	0.662608	0.110870	-0.740692	0.005764
35292	9.859051	1.372146	-1.213763	0.662166	0.112204	-0.740883	0.006235
35293	9.715260	1.514100	-1.031792	0.661546	0.113295	-0.741270	0.006391
35294	9.732545	1.310740	-1.242956	0.661018	0.113990	-0.741635	0.006230
35295	9.643531	1.281003	-1.313953	0.660495	0.114561	-0.742014	0.006067
35296	9.651589	1.400982	-1.470763	0.659546	0.114975	-0.742796	0.005823
35297	9.732401	1.558218	-1.336400	0.658841	0.115040	-0.743415	0.005345
35298	9.715775	1.509375	-1.399923	0.658325	0.114778	-0.743917	0.004737
35299	9.806079	1.432940	-1.568312	0.658160	0.114131	-0.744167	0.003841
35300	9.697396	1.264476	-1.385485	0.658341	0.113425	-0.744119	0.002916
35301	9.542883	1.256645	-1.417527	0.658468	0.112772	-0.744109	0.002071
35302	9.433266	1.218638	-1.380831	0.658700	0.111847	-0.744045	0.001087
35303	9.390169	1.337864	-1.260786	0.658674	0.111058	-0.744187	0.000376
35304	9.625411	1.546409	-1.429998	0.658747	0.110226	-0.744247	-0.000348
35305	9.609394	1.550724	-1.273693	0.659169	0.109168	-0.744028	-0.001207
35306	9.608927	1.422171	-1.172727	0.659537	0.107912	-0.743883	-0.002294
35307	9.599473	1.310052	-1.218309	0.659936	0.106605	-0.743712	-0.003523
35308	9.549062	1.423761	-1.179553	0.660159	0.105504	-0.743664	-0.004685
35309	9.472369	1.449670	-1.256923	0.660195	0.104446	-0.743774	-0.005816
35310	9.580507	1.403311	-1.282734	0.660182	0.103167	-0.743953	-0.007107
35311	9.549088	1.320983	-1.291345	0.660121	0.101987	-0.744159	-0.008156
35312	9.617960	1.405838	-1.376419	0.659911	0.101077	-0.744461	-0.008916
35313	9.629355	1.514186	-1.308525	0.659709	0.100294	-0.744737	-0.009603
35314	9.637700	1.542311	-1.444834	0.659350	0.099381	-0.745165	-0.010475
35315	9.698815	1.582017	-1.510292	0.659039	0.098433	-0.745553	-0.011341
35316	9.701669	1.553402	-1.416155	0.658832	0.097441	-0.745854	-0.012172
35317	9.590254	1.417625	-1.373143	0.658578	0.096367	-0.746203	-0.013032
35318	9.583155	1.375758	-1.531974	0.658344	0.095382	-0.746524	-0.013715
35319	9.546429	1.427677	-1.557245	0.658061	0.094634	-0.746859	-0.014182
35320	9.584160	1.419183	-1.463096	0.657798	0.094204	-0.747140	-0.014471
35321	9.560944	1.410338	-1.378212	0.657649	0.093729	-0.747324	-0.014839
35322	9.575078	1.447235	-1.464794	0.657571	0.093328	-0.747437	-0.015094
35323	9.594087	1.452061	-1.439125	0.657303	0.092870	-0.747725	-0.015348
35324	9.600478	1.414007	-1.303759	0.656957	0.092683	-0.748049	-0.015471
35325	9.701074	1.364270	-1.550439	0.656530	0.092584	-0.748432	-0.015668
35326	9.679990	1.318645	-1.517410	0.656455	0.092668	-0.748487	-0.015705
35327	9.640025	1.320456	-1.470449	0.656443	0.092845	-0.748479	-0.015530
35328	9.513087	1.394448	-1.389900	0.656488	0.093147	-0.748411	-0.015113
35329	9.530764	1.383126	-1.348187	0.656396	0.093378	-0.748468	-0.014852
35330	9.512889	1.310297	-1.240738	0.656298	0.093463	-0.748546	-0.014719
35331	9.598286	1.244719	-1.466181	0.656198	0.093547	-0.748628	-0.014485
35332	9.608469	1.152599	-1.496072	0.656171	0.093751	-0.748633	-0.014102
35333	9.701197	1.213842	-1.449013	0.656135	0.093999	-0.748641	-0.013653
35334	9.720273	1.219090	-1.432250	0.656287	0.094229	-0.748488	-0.013201
35335	9.785241	1.284964	-1.377533	0.656448	0.094460	-0.748327	-0.012644
35336	9.804737	1.255423	-1.448964	0.656824	0.094752	-0.747971	-0.011967
35337	9.640542	1.252035	-1.305981	0.657385	0.095083	-0.747448	-0.011223
35338	9.511328	1.258145	-1.281381	0.657914	0.095583	-0.746929	-0.010499
35339	9.489642	1.291406	-1.277865	0.658283	0.096031	-0.746554	-0.009958
35340	9.545832	1.296998	-1.180171	0.658762	0.096237	-0.746110	-0.009561
35341	9.569443	1.241162	-1.146052	0.659277	0.096372	-0.745643	-0.009122
35342	9.623526	1.141915	-1.178883	0.659751	0.096541	-0.745206	-0.008735
35343	9.732854	1.144925	-1.144775	0.660027	0.096930	-0.744915	-0.008368
35344	9.756000	1.252048	-1.298653	0.660523	0.097259	-0.744435	-0.008184
35345	9.558900	1.321870	-1.131149	0.661052	0.097513	-0.743932	-0.008128
35346	9.617382	1.281330	-1.229881	0.661567	0.097495	-0.743475	-0.008269
35347	9.633689	1.182689	-1.156943	0.662054	0.097441	-0.743047	-0.008454
35348	9.657179	1.099431	-1.216490	0.662501	0.097608	-0.742625	-0.008503
35349	9.551276	1.201849	-1.097111	0.662904	0.097747	-0.742246	-0.008652
35350	9.465306	1.224469	-1.093996	0.663314	0.097650	-0.741889	-0.008983
35351	9.458484	1.151895	-1.183168	0.663634	0.097350	-0.741635	-0.009509
35352	9.539603	1.012387	-1.125074	0.663914	0.097009	-0.741421	-0.010116
35353	9.594353	1.013442	-1.181988	0.664040	0.096787	-0.741330	-0.010607
35354	9.661156	1.046638	-1.162821	0.664161	0.096592	-0.741241	-0.011037
35355	9.624441	0.959313	-1.215267	0.664271	0.096356	-0.741166	-0.011488
35356	9.624670	0.985040	-1.267924	0.664406	0.096175	-0.741063	-0.011879
35357	9.575283	0.998134	-1.156398	0.664546	0.095943	-0.740961	-0.012235
35358	9.562533	0.997799	-1.123579	0.664594	0.095711	-0.740944	-0.012515
35359	9.601182	0.905485	-1.168431	0.664521	0.095696	-0.741011	-0.012526
35360	9.627683	0.904893	-1.216050	0.664393	0.096010	-0.741091	-0.012152
35361	9.581609	0.999089	-1.084818	0.664193	0.096353	-0.741233	-0.011724
35362	9.597881	1.083987	-1.094118	0.663860	0.096668	-0.741497	-0.011339
35363	9.600785	1.116262	-1.142869	0.663447	0.097032	-0.741824	-0.010933
35364	9.563131	1.126000	-1.077759	0.662847	0.097439	-0.742314	-0.010486
35365	9.657376	1.041476	-1.198323	0.662214	0.097780	-0.742840	-0.010028
35366	9.694079	1.117191	-1.305961	0.661783	0.098263	-0.743168	-0.009408
35367	9.676839	1.205653	-1.184176	0.661371	0.098864	-0.743463	-0.008758
35368	9.664631	1.166568	-1.243792	0.660902	0.099503	-0.743801	-0.008171
35369	9.698221	1.229791	-1.351112	0.660510	0.100177	-0.744066	-0.007535
35370	9.715248	1.291158	-1.292801	0.660221	0.100723	-0.744255	-0.006970
35371	9.677470	1.347401	-1.346990	0.660105	0.101171	-0.744301	-0.006445
35372	9.557379	1.263389	-1.338697	0.659983	0.101633	-0.744350	-0.006006
35373	9.579416	1.208815	-1.305215	0.659856	0.102192	-0.744390	-0.005577
35374	9.632669	1.131003	-1.380516	0.659688	0.102846	-0.744452	-0.005080
35375	9.684898	1.163208	-1.367453	0.659577	0.103619	-0.744447	-0.004415
35376	9.628918	1.190947	-1.390894	0.659576	0.104543	-0.744324	-0.003517
35377	9.585295	1.253529	-1.350289	0.659574	0.105504	-0.744194	-0.002547
35378	9.645783	1.308414	-1.301952	0.659561	0.106465	-0.744071	-0.001513
35379	9.716498	1.273481	-1.280634	0.659467	0.107538	-0.744002	-0.000399
35380	9.803707	1.380737	-1.214310	0.659477	0.108766	-0.743814	0.000920
35381	9.764370	1.379664	-1.162405	0.659803	0.109967	-0.743344	0.002419
35382	9.666850	1.412548	-1.185632	0.660323	0.111095	-0.742709	0.003880
35383	9.684061	1.391849	-1.344611	0.661318	0.111970	-0.741686	0.004937
35384	9.647401	1.203908	-1.143516	0.662266	0.112835	-0.740702	0.005701
35385	9.714469	1.113546	-1.231628	0.663273	0.114046	-0.739606	0.006686
35386	9.683287	1.210384	-1.338822	0.664424	0.115320	-0.738365	0.007731
35387	9.657260	1.423881	-1.242129	0.665663	0.116477	-0.737054	0.008718
35388	9.719010	1.614433	-1.089935	0.667018	0.117059	-0.735728	0.009380
35389	9.886256	1.665280	-0.977337	0.668600	0.117114	-0.734277	0.009816
35390	9.765960	1.500376	-1.017394	0.670287	0.117119	-0.732732	0.010144
35391	9.482380	1.042455	-1.098171	0.671599	0.117655	-0.731434	0.010800
35392	9.512987	0.796841	-1.058442	0.672557	0.118776	-0.730354	0.011931
35393	9.591531	1.011133	-0.896115	0.673583	0.120127	-0.729163	0.013312
35394	9.632140	1.402294	-0.588259	0.674579	0.121019	-0.728075	0.014265
35395	9.493772	1.620097	-0.690512	0.675616	0.121804	-0.726966	0.015046
35396	9.492730	1.466406	-0.764516	0.676496	0.122417	-0.726037	0.015392
35397	9.450959	1.410225	-0.820403	0.677235	0.123165	-0.725212	0.015851
35398	9.603315	1.499513	-0.740820	0.677575	0.123559	-0.724822	0.016073
35399	9.670589	1.458344	-0.746140	0.678098	0.123656	-0.724311	0.016331
35400	9.546830	1.658473	-0.722433	0.678290	0.123873	-0.724083	0.016764
35401	9.560651	1.875512	-0.704036	0.678307	0.123914	-0.724054	0.017062
35402	9.550904	1.739755	-0.710628	0.678410	0.123557	-0.724020	0.016948
35403	9.480966	1.524748	-0.693692	0.678424	0.123351	-0.724043	0.016945
35404	9.531333	1.317012	-0.693772	0.678287	0.123215	-0.724193	0.017010
35405	9.604436	1.151620	-0.737034	0.678127	0.123189	-0.724341	0.017257
35406	9.726081	0.919999	-0.621508	0.678099	0.123048	-0.724387	0.017477
35407	9.796557	0.667460	-0.681961	0.678068	0.123283	-0.724369	0.017744
35408	9.754969	0.912974	-0.638591	0.677768	0.124740	-0.724374	0.018784
35409	9.836460	1.183122	-0.608082	0.677783	0.125797	-0.724159	0.019453
35410	9.839782	1.286594	-0.786075	0.678130	0.126678	-0.723660	0.020212
35411	9.705225	1.357165	-0.755286	0.678624	0.127426	-0.723043	0.021002
35412	9.755381	1.459412	-0.852705	0.679083	0.127924	-0.722512	0.021387
35413	9.694760	1.452370	-0.984301	0.679773	0.128091	-0.721833	0.021434
35414	9.556097	1.427016	-0.797158	0.680088	0.128474	-0.721461	0.021660
35415	9.589521	1.599790	-0.766364	0.680196	0.128842	-0.721284	0.021947
35416	9.583460	1.487967	-0.869311	0.680488	0.128921	-0.720992	0.022023
35417	9.499251	1.358961	-0.678628	0.680757	0.128968	-0.720726	0.022165
35418	9.542577	1.271533	-0.620128	0.680731	0.128963	-0.720750	0.022210
35419	9.659506	1.178047	-0.712177	0.680656	0.128887	-0.720835	0.022169
35420	9.668822	1.070594	-0.720250	0.680496	0.128966	-0.720969	0.022264
35421	9.602060	1.110674	-0.709806	0.680168	0.129193	-0.721231	0.022516
35422	9.592127	1.212565	-0.683046	0.679813	0.129362	-0.721527	0.022782
35423	9.636431	1.286195	-0.615551	0.679314	0.129434	-0.721979	0.022919
35424	9.630866	1.256501	-0.674205	0.678748	0.129663	-0.722461	0.023224
35425	9.633554	1.194087	-0.723711	0.677929	0.130042	-0.723148	0.023635
35426	9.736930	1.114558	-0.834384	0.677177	0.130224	-0.723811	0.023887
35427	9.618534	1.121653	-0.908339	0.676708	0.130315	-0.724227	0.024073
35428	9.535493	1.304267	-0.708168	0.676068	0.130396	-0.724812	0.024027
35429	9.686507	1.320320	-0.753490	0.675356	0.130471	-0.725466	0.023878
35430	9.797131	1.285621	-0.803084	0.674637	0.130374	-0.726165	0.023499
35431	9.887848	1.149286	-0.829478	0.673885	0.130364	-0.726873	0.023217
35432	9.893727	1.273747	-0.960569	0.673145	0.130549	-0.727529	0.023105
35433	9.962613	1.416456	-1.071865	0.672754	0.130326	-0.727949	0.022516
35434	9.993030	1.428276	-1.048737	0.672685	0.129851	-0.728123	0.021671
35435	10.040935	1.454000	-1.063348	0.672716	0.129170	-0.728243	0.020736
35436	10.023519	1.446885	-1.089531	0.672965	0.128286	-0.728195	0.019819
35437	9.944883	1.341119	-1.040694	0.673485	0.127662	-0.727836	0.019362
35438	9.884046	1.314456	-0.880765	0.674026	0.127176	-0.727430	0.018987
35439	9.796301	1.249874	-0.985238	0.674707	0.126700	-0.726893	0.018550
35440	9.671841	1.144346	-1.003102	0.675367	0.126317	-0.726359	0.018076
35441	9.707488	1.168700	-0.956454	0.675913	0.126165	-0.725884	0.017779
35442	9.894549	1.287493	-0.964135	0.676411	0.126379	-0.725386	0.017658
35443	10.067251	1.250131	-0.791114	0.676898	0.126772	-0.724865	0.017576
35444	10.099056	1.187100	-0.693064	0.677416	0.127109	-0.724328	0.017329
35445	10.503365	1.281672	-0.672228	0.677830	0.127420	-0.723890	0.017136
35446	9.963429	0.821743	-1.303950	0.678578	0.128270	-0.723029	0.017532
35447	9.464418	1.099557	-1.219070	0.678704	0.129246	-0.722732	0.017745
35448	10.143954	1.161578	-1.271145	0.678311	0.130234	-0.722920	0.017903
35449	9.668878	1.422353	-1.309769	0.678177	0.131553	-0.722783	0.018838
35450	10.217644	1.008914	-0.565456	0.677157	0.131941	-0.723667	0.018864
35451	9.062917	1.375772	-0.884571	0.677378	0.133258	-0.723178	0.020367
35452	9.318664	0.676143	-0.890223	0.674428	0.134773	-0.725603	0.021996
35453	10.595746	1.365329	-0.838550	0.670993	0.136157	-0.728459	0.024024
35454	8.110575	0.930182	-0.981042	0.669825	0.137510	-0.729219	0.025791
35455	8.256296	1.266128	-0.539866	0.666068	0.138856	-0.732369	0.026616
35456	9.163058	1.707105	-0.954255	0.663559	0.139694	-0.734464	0.027156
35457	9.393388	1.546360	-1.528753	0.660808	0.140383	-0.736788	0.027716
35458	9.100174	1.244678	-1.311348	0.658419	0.141005	-0.738789	0.028162
35459	9.262599	1.110937	-1.021881	0.655235	0.141812	-0.741448	0.028477
35460	9.997622	1.215321	-1.004506	0.651994	0.142270	-0.744217	0.028349
35461	9.642904	1.563102	-1.025492	0.649364	0.142713	-0.746430	0.028313
35462	8.913571	1.358933	-1.458844	0.646806	0.142824	-0.748633	0.028135
35463	8.905404	1.203168	-1.316348	0.644219	0.142884	-0.750852	0.028037
35464	9.824279	1.358143	-1.416212	0.641802	0.142762	-0.752951	0.027835
35465	9.822443	1.335266	-1.718896	0.640190	0.142508	-0.754376	0.027656
35466	9.643466	1.228805	-1.628145	0.638659	0.142225	-0.755735	0.027401
35467	9.308277	1.183709	-1.737315	0.637339	0.141907	-0.756916	0.027198
35468	9.345830	0.990645	-1.717232	0.636082	0.141628	-0.758033	0.026971
35469	9.285338	1.087359	-1.606356	0.634950	0.141743	-0.758958	0.027030
35470	9.462424	1.136481	-1.868356	0.634086	0.141759	-0.759675	0.027070
35471	9.589381	1.165863	-1.856575	0.633321	0.141894	-0.760280	0.027305
35472	9.600429	1.337083	-1.940251	0.633096	0.142103	-0.760412	0.027743
35473	9.529363	1.226042	-2.127264	0.633139	0.142288	-0.760327	0.028134
35474	9.663306	1.374329	-2.017434	0.633307	0.142575	-0.760110	0.028752
35475	9.669099	1.413455	-1.921319	0.633668	0.142618	-0.759785	0.029181
35476	9.631481	1.148413	-1.792834	0.634032	0.142656	-0.759459	0.029558
35477	9.577756	1.231786	-1.626525	0.634564	0.143101	-0.758905	0.030252
35478	9.543617	1.145654	-1.811315	0.635430	0.143260	-0.758135	0.030612
35479	9.565874	1.184815	-1.846784	0.636444	0.143717	-0.757167	0.031328
35480	9.667617	1.268105	-1.781567	0.637653	0.143879	-0.756097	0.031857
35481	9.678755	1.129892	-1.722248	0.638810	0.144305	-0.755003	0.032678
35482	9.725625	1.240958	-1.486197	0.640126	0.144606	-0.753803	0.033313
35483	9.550657	1.215449	-1.579925	0.641735	0.144810	-0.752371	0.033838
35484	9.496544	1.361839	-1.548445	0.643281	0.145036	-0.750981	0.034380
35485	9.594132	1.568048	-1.453541	0.645015	0.144910	-0.749505	0.034620
35486	9.674609	1.283746	-1.457217	0.646905	0.144441	-0.747967	0.034571
35487	9.647994	1.231921	-1.303255	0.648826	0.144384	-0.746298	0.034909
35488	9.646694	1.099097	-1.430471	0.650686	0.144283	-0.744690	0.035037
35489	9.533162	1.140074	-1.537217	0.652508	0.144588	-0.743012	0.035499
35490	9.534176	1.144337	-1.315420	0.654186	0.144567	-0.741529	0.035711
35491	9.586110	1.046947	-1.128854	0.655735	0.144938	-0.740056	0.036361
35492	9.759531	1.133735	-1.036786	0.657184	0.145069	-0.738728	0.036665
35493	9.703123	1.446019	-1.095652	0.658794	0.145275	-0.737231	0.037086
35494	9.583120	1.874788	-1.107651	0.660358	0.144823	-0.735922	0.037044
35495	9.638985	1.981431	-1.111906	0.661872	0.143788	-0.734782	0.036702
35496	9.972751	1.628467	-1.254181	0.663578	0.141762	-0.733705	0.035272
35497	9.876486	0.752746	-1.179997	0.665787	0.140614	-0.731957	0.034573
35498	9.533886	0.702940	-0.729148	0.667478	0.140800	-0.730368	0.034799
35499	9.499137	1.136993	-1.138698	0.668739	0.140913	-0.729184	0.034960
35500	9.644695	1.541550	-1.173567	0.670078	0.140206	-0.728093	0.034908
35501	9.847546	1.831181	-0.677995	0.671540	0.138501	-0.727096	0.034389
35502	10.163996	1.370655	-0.846934	0.673241	0.136187	-0.726013	0.033245
35503	10.072726	1.037882	-0.834190	0.675162	0.134982	-0.724462	0.033031
35504	9.649189	1.059178	-0.742943	0.677002	0.134044	-0.722926	0.032841
35505	9.539683	1.143434	-0.933015	0.678472	0.133266	-0.721689	0.032875
35506	9.649116	1.203506	-0.954447	0.679503	0.132360	-0.720876	0.033090
35507	9.801102	1.049603	-0.781155	0.680483	0.131289	-0.720138	0.033266
35508	9.649944	1.072215	-0.855965	0.681721	0.130507	-0.719091	0.033652
35509	9.524523	1.339134	-1.133353	0.682367	0.129881	-0.718584	0.033805
35510	9.646567	1.605749	-1.119072	0.682968	0.128842	-0.718217	0.033449
35511	9.823492	1.325229	-0.792436	0.683973	0.127447	-0.717540	0.032789
35512	9.747561	0.960108	-0.718781	0.685194	0.126540	-0.716551	0.032432
35513	9.601678	1.011039	-0.854093	0.686140	0.126366	-0.715667	0.032613
35514	9.489267	1.084469	-0.947485	0.687068	0.126260	-0.714791	0.032708
35515	9.523306	1.200759	-0.667457	0.687981	0.126169	-0.713926	0.032760
35516	9.565265	0.992850	-0.532996	0.688749	0.126164	-0.713187	0.032735
35517	9.411312	0.993883	-0.404222	0.689301	0.126862	-0.712508	0.033199
35518	9.372390	1.035457	-0.348307	0.689607	0.127412	-0.712110	0.033269
35519	9.540317	1.187610	-0.386171	0.689808	0.127964	-0.711812	0.033376
35520	9.686564	1.274854	-0.593487	0.689772	0.127933	-0.711866	0.033081
35521	9.826187	1.095894	-0.561634	0.689920	0.127819	-0.711753	0.032855
35522	9.641557	0.891198	-0.423893	0.690267	0.128037	-0.711374	0.032946
35523	9.631456	0.825903	-0.525539	0.690133	0.128506	-0.711414	0.033062
35524	9.612117	0.742933	-0.516466	0.690018	0.129286	-0.711364	0.033495
35525	9.645923	1.026081	-0.611865	0.689756	0.129845	-0.711497	0.033894
35526	9.818985	1.174068	-0.764857	0.689558	0.130223	-0.711599	0.034332
35527	9.724152	1.209078	-0.460377	0.689654	0.130564	-0.711417	0.034886
35528	9.704448	1.205581	-0.341689	0.689635	0.130739	-0.711386	0.035230
35529	9.691848	1.105973	-0.504501	0.689727	0.130483	-0.711343	0.035257
35530	9.646277	0.910400	-0.376584	0.689840	0.130148	-0.711285	0.035439
35531	9.583783	0.911679	-0.263131	0.689575	0.130131	-0.711521	0.035914
35532	9.558226	1.021458	-0.459408	0.689204	0.129904	-0.711913	0.036099
35533	9.569486	1.070677	-0.436496	0.688860	0.129960	-0.712214	0.036531
35534	9.579425	1.157202	-0.194704	0.688334	0.129846	-0.712729	0.036786
35535	9.811439	1.038495	-0.216669	0.687652	0.129369	-0.713473	0.036812
35536	9.911290	0.980498	-0.346547	0.687133	0.128904	-0.714050	0.036942
35537	9.789565	1.026764	-0.362918	0.686696	0.128455	-0.714543	0.037103
35538	9.685023	1.133172	-0.477980	0.686270	0.127906	-0.715046	0.037175
35539	9.771603	1.164052	-0.531723	0.685575	0.127228	-0.715834	0.037185
35540	9.920980	1.073578	-0.572617	0.685106	0.126356	-0.716439	0.037141
35541	9.793429	0.965408	-0.516398	0.684856	0.125573	-0.716805	0.037328
35542	9.789271	1.008246	-0.419534	0.684532	0.124780	-0.717249	0.037422
35543	9.792028	0.996252	-0.469135	0.684409	0.123893	-0.717522	0.037370
35544	9.837448	0.976438	-0.514736	0.684316	0.122918	-0.717795	0.037054
35545	9.866847	0.959486	-0.516665	0.684219	0.122066	-0.718041	0.036897
35546	9.884435	1.070139	-0.628944	0.684326	0.121208	-0.718089	0.036812
35547	9.870025	1.049517	-0.668530	0.684598	0.120207	-0.718004	0.036680
35548	9.859625	1.004213	-0.514300	0.685017	0.118927	-0.717840	0.036233
35549	9.860407	0.920770	-0.549739	0.685498	0.117459	-0.717656	0.035580
35550	9.830521	0.822088	-0.702744	0.686103	0.115827	-0.717386	0.034711
35551	9.647798	0.808032	-0.605054	0.686885	0.114463	-0.716886	0.034099
35552	9.576491	0.816046	-0.544548	0.687607	0.112997	-0.716468	0.033207
35553	9.646340	0.780173	-0.539478	0.688373	0.111609	-0.715991	0.032296
35554	9.753464	0.779356	-0.500890	0.689127	0.110313	-0.715506	0.031416
35555	9.776953	0.750835	-0.422962	0.689924	0.109117	-0.714954	0.030630
35556	9.731774	0.794057	-0.474923	0.690733	0.108371	-0.714303	0.030243
35557	9.555809	0.935874	-0.409299	0.691530	0.107845	-0.713616	0.030109
35558	9.428838	0.982622	-0.262195	0.692110	0.107132	-0.713173	0.029852
35559	9.470999	0.893679	-0.282344	0.692477	0.106281	-0.712959	0.029505
35560	9.518894	0.821303	-0.351055	0.692628	0.105422	-0.712955	0.029115
35561	9.600532	0.859207	-0.208309	0.692701	0.104664	-0.713011	0.028760
35562	9.614815	0.899736	-0.262857	0.692653	0.103878	-0.713187	0.028366
35563	9.724489	0.881541	-0.437348	0.692470	0.103211	-0.713474	0.028066
35564	9.800713	0.892575	-0.333124	0.692337	0.102657	-0.713689	0.027900
35565	9.701980	0.879917	-0.151901	0.692162	0.102101	-0.713950	0.027615
35566	9.671163	0.869706	-0.174002	0.691950	0.101614	-0.714238	0.027291
35567	9.609650	0.916766	-0.225316	0.691599	0.101119	-0.714667	0.026783
35568	9.584822	0.816321	-0.245038	0.691177	0.100563	-0.715176	0.026188
35569	9.659679	0.761176	-0.200639	0.690586	0.100184	-0.715818	0.025656
35570	9.780622	0.770373	-0.153523	0.689822	0.100030	-0.716589	0.025282
35571	9.727255	0.852822	-0.264958	0.688559	0.100107	-0.717802	0.025006
35572	9.742546	0.862820	-0.270891	0.687083	0.100288	-0.719200	0.024702
35573	9.653416	0.827475	-0.156425	0.685510	0.100471	-0.720685	0.024409
35574	9.511799	0.808138	-0.254808	0.683475	0.100508	-0.722623	0.023982
35575	9.556126	0.812662	-0.312099	0.681014	0.100724	-0.724925	0.023632
35576	9.709257	0.770601	-0.153967	0.678746	0.100833	-0.727045	0.023267
35577	9.762498	0.689682	-0.307880	0.676499	0.100996	-0.729124	0.022962
35578	9.806897	0.816419	-0.388467	0.674065	0.101647	-0.731279	0.023131
35579	9.704671	0.906937	-0.507439	0.671409	0.102198	-0.733642	0.023116
35580	9.841867	0.807584	-1.122518	0.668185	0.102284	-0.736588	0.022483
35581	9.936008	0.702347	-0.930096	0.665626	0.102600	-0.738865	0.022200
35582	10.095900	0.863808	-0.858339	0.662995	0.102793	-0.741214	0.021743
35583	10.461802	0.887229	-1.487441	0.661049	0.103236	-0.742891	0.021673
35584	10.193923	0.863388	-1.515539	0.660494	0.103712	-0.743310	0.021950
35585	9.859918	0.814531	-1.566798	0.659949	0.104281	-0.743707	0.022201
35586	9.804612	0.746114	-1.672138	0.659410	0.104853	-0.744103	0.022253
35587	9.749061	0.896716	-1.375751	0.659142	0.105383	-0.744267	0.022175
35588	9.776833	0.936944	-1.557543	0.658857	0.105862	-0.744454	0.022126
35589	9.743796	0.935522	-1.572202	0.659061	0.106307	-0.744206	0.022239
35590	9.524892	0.919595	-1.350641	0.659542	0.106855	-0.743689	0.022638
35591	9.402006	0.907103	-1.336311	0.659895	0.107050	-0.743347	0.022675
35592	9.459072	0.836768	-1.351130	0.660074	0.107056	-0.743195	0.022415
35593	9.596231	0.833308	-1.292499	0.660274	0.107069	-0.743024	0.022137
35594	9.737508	0.947489	-1.430260	0.660523	0.107118	-0.742802	0.021912
35595	9.745600	0.880964	-1.544735	0.660902	0.107114	-0.742469	0.021797
35596	9.704188	0.892984	-1.546564	0.661321	0.107153	-0.742086	0.021926
35597	9.595645	0.911803	-1.425980	0.661874	0.107119	-0.741592	0.022119
35598	9.494969	0.942697	-1.539162	0.662357	0.107017	-0.741170	0.022316
35599	9.516698	1.005621	-1.462560	0.662892	0.106900	-0.740702	0.022537
35600	9.517640	0.981495	-1.375763	0.663468	0.106631	-0.740219	0.022727
35601	9.448727	0.935630	-1.391040	0.664071	0.106221	-0.739735	0.022803
35602	9.412914	0.831946	-1.353522	0.664580	0.105759	-0.739341	0.022891
35603	9.450270	0.908558	-1.365646	0.664964	0.105419	-0.739035	0.023149
35604	9.501618	0.892455	-1.195307	0.665335	0.105124	-0.738734	0.023462
35605	9.566751	0.900950	-1.217092	0.665500	0.104844	-0.738616	0.023725
35606	9.669992	0.888041	-1.286435	0.665768	0.104617	-0.738397	0.024026
35607	9.758058	0.914918	-1.218733	0.666040	0.104461	-0.738161	0.024422
35608	9.815166	0.900980	-1.327020	0.666502	0.104213	-0.737767	0.024806
35609	9.729058	0.839927	-1.313074	0.667237	0.103975	-0.737121	0.025223
35610	9.711496	0.867228	-1.275006	0.668012	0.103842	-0.736424	0.025619
35611	9.793404	0.870445	-1.236964	0.668954	0.103774	-0.735563	0.026050
35612	9.900052	0.857016	-1.254466	0.670042	0.103616	-0.734582	0.026395
35613	9.813192	0.907342	-1.226841	0.671743	0.103526	-0.733024	0.026822
35614	9.697377	0.889743	-0.964049	0.673295	0.103266	-0.731632	0.026909
35615	9.856788	0.731980	-0.979207	0.674688	0.103129	-0.730366	0.026932
35616	9.678014	0.725928	-0.825541	0.676137	0.103208	-0.729008	0.027097
35617	9.775926	0.807105	-0.961442	0.677157	0.103412	-0.728025	0.027277
35618	9.940746	0.907799	-0.991534	0.678576	0.103508	-0.726678	0.027580
35619	9.849423	0.891994	-0.822140	0.680078	0.103468	-0.725272	0.027735
35620	9.736710	0.788091	-0.996926	0.681606	0.103424	-0.723840	0.027788
35621	9.811760	0.701690	-1.208785	0.683199	0.103385	-0.722343	0.027771
35622	9.869195	0.681046	-1.030790	0.684950	0.103528	-0.720657	0.027923
35623	9.783960	0.817178	-0.842897	0.686795	0.103738	-0.718859	0.028179
35624	9.673910	0.856544	-0.708919	0.688459	0.103917	-0.717228	0.028469
35625	9.676437	0.907977	-0.719004	0.690116	0.103821	-0.715642	0.028587
35626	9.741823	0.840618	-0.779126	0.691722	0.103471	-0.714143	0.028531
35627	9.743814	0.798213	-0.589797	0.693430	0.103362	-0.712495	0.028665
35628	9.682589	0.785300	-0.548751	0.695074	0.103259	-0.710905	0.028711
35629	9.630138	0.743430	-0.540478	0.696690	0.103190	-0.709330	0.028743
35630	9.483185	0.806046	-0.252428	0.698313	0.103093	-0.707745	0.028769
35631	9.449031	0.820244	-0.083512	0.699526	0.102987	-0.706568	0.028615
35632	9.563373	0.856351	-0.056886	0.700547	0.102914	-0.705577	0.028352
35633	9.506246	0.798501	0.139113	0.701630	0.102915	-0.704507	0.028160
35634	9.453121	0.745220	0.274553	0.702485	0.103072	-0.703637	0.028042
35635	9.427453	0.755978	0.454215	0.703037	0.103226	-0.703069	0.027900
35636	9.536655	0.766256	0.430894	0.703261	0.103313	-0.702837	0.027750
35637	9.583771	0.713519	0.420637	0.703345	0.103372	-0.702752	0.027544
35638	9.668638	0.680173	0.584603	0.703006	0.103732	-0.703041	0.027508
35639	9.750534	0.713935	0.374579	0.702317	0.104670	-0.703571	0.027980
35640	9.890467	0.912016	0.350150	0.701381	0.105698	-0.704328	0.028543
35641	10.038949	1.066565	0.265512	0.700860	0.106185	-0.704763	0.028785
35642	9.952360	1.031069	0.052119	0.700462	0.106546	-0.705096	0.029002
35643	9.980732	1.034296	0.092499	0.700350	0.106690	-0.705175	0.029238
35644	9.886988	0.998556	0.022039	0.700267	0.106926	-0.705195	0.029865
35645	9.670164	1.062834	0.153514	0.700053	0.107149	-0.705337	0.030719
35646	9.651431	1.043497	-0.049717	0.699460	0.107210	-0.705885	0.031440
35647	9.634726	1.130236	-0.099604	0.699187	0.107080	-0.706145	0.032123
35648	9.591516	1.088644	0.002263	0.698598	0.106521	-0.706797	0.032424
35649	9.743501	1.132262	-0.243140	0.698351	0.105854	-0.707133	0.032628
35650	9.616087	1.030361	-0.246905	0.698339	0.104925	-0.707283	0.032608
35651	9.657470	0.913361	0.143443	0.697992	0.105142	-0.707541	0.033734
35652	9.662432	1.045075	0.196037	0.697027	0.106062	-0.708267	0.035530
35653	9.672264	1.432511	0.029209	0.695730	0.107301	-0.709235	0.037841
35654	9.620319	1.785330	0.289493	0.694429	0.108096	-0.710263	0.040129
35655	9.507086	2.208049	0.161396	0.692923	0.108355	-0.711582	0.042057
35656	9.480112	2.199620	-0.291658	0.691437	0.108230	-0.712944	0.043721
35657	9.384338	2.479559	0.045577	0.690171	0.107802	-0.714135	0.045311
35658	9.333388	2.391905	-0.039178	0.688702	0.106904	-0.715620	0.046360
35659	9.320956	2.304960	-0.320839	0.687775	0.105430	-0.716697	0.046858
35660	9.264019	2.172122	-0.630705	0.686661	0.104121	-0.717918	0.047432
35661	9.446521	2.103086	-0.847206	0.685025	0.102904	-0.719617	0.047987
35662	9.618445	2.237648	-0.874468	0.683290	0.101499	-0.721430	0.048490
35663	9.743452	2.250300	-0.985094	0.681472	0.099890	-0.723345	0.048876
35664	10.025617	2.189993	-0.901710	0.679815	0.097887	-0.725177	0.048867
35665	10.102854	1.957260	-0.737066	0.678705	0.095942	-0.726478	0.048826
35666	10.102305	1.665534	-0.701848	0.677722	0.094050	-0.727654	0.048649
35667	10.189807	1.773341	-0.576943	0.676305	0.092859	-0.729112	0.048832
35668	10.282753	1.900720	-0.264974	0.674998	0.091061	-0.730581	0.048343
35669	10.396183	2.227607	-0.062937	0.674159	0.087870	-0.731865	0.046500
35670	10.771160	1.967899	-0.841475	0.673852	0.083247	-0.732872	0.043500
35671	11.275440	2.058578	-0.793701	0.674614	0.078609	-0.732835	0.040862
35672	11.376748	1.990557	0.486991	0.676055	0.072022	-0.732412	0.036536
35673	10.667872	0.969091	-0.460290	0.678015	0.064633	-0.731519	0.031609
35674	9.282745	-0.113991	-1.168690	0.681385	0.057579	-0.729167	0.026725
35675	8.427631	-1.143678	-0.790794	0.683872	0.051525	-0.727446	0.022048
35676	9.228964	-1.837993	-1.182701	0.685325	0.046193	-0.726546	0.018105
35677	9.960055	-1.567757	-0.969232	0.687313	0.041244	-0.725031	0.015157
35678	9.869854	-1.227879	-0.607048	0.689429	0.036713	-0.723308	0.012874
35679	9.507583	-0.952801	-0.669467	0.691092	0.032156	-0.721971	0.010735
35680	9.360296	-1.166214	-1.169202	0.692122	0.027599	-0.721200	0.008751
35681	9.565906	-1.309824	-1.109268	0.692808	0.023720	-0.720693	0.007502
35682	10.187074	-1.033187	-0.926587	0.693073	0.020083	-0.720558	0.006490
35683	10.460353	-0.824686	-0.816601	0.693995	0.016204	-0.719778	0.005317
35684	9.772634	-0.785048	-0.460456	0.695523	0.011759	-0.718399	0.003580
35685	9.193897	-0.896859	-0.545343	0.696361	0.006297	-0.717664	0.000698
35686	9.033388	-1.060435	-0.356212	0.696992	0.001442	-0.717075	-0.001859
35687	9.191132	-1.115509	-0.354655	0.696870	-0.002517	-0.717182	-0.004063
35688	9.668935	-1.074527	-1.045842	0.696267	-0.005544	-0.717741	-0.005499
35689	9.967837	-1.038716	-0.380916	0.696355	-0.008795	-0.717608	-0.007143
35690	9.553312	-1.002733	-0.786384	0.696205	-0.011195	-0.717710	-0.008126
35691	9.468562	-0.746366	-0.771881	0.695993	-0.014333	-0.717836	-0.009970
35692	9.417073	-1.081785	-1.356521	0.695516	-0.017257	-0.718207	-0.011744
35693	9.807593	-0.907386	-1.147662	0.695258	-0.019844	-0.718359	-0.013521
35694	10.058274	-0.547940	-0.318794	0.695219	-0.022168	-0.718287	-0.015583
35695	10.029566	0.096744	-0.285484	0.694604	-0.024671	-0.718734	-0.018378
35696	9.726529	-0.211874	-0.424298	0.693935	-0.027336	-0.719195	-0.021564
35697	9.204196	-1.150909	-1.244211	0.693036	-0.029686	-0.719869	-0.024654
35698	9.540676	-1.329078	-1.162928	0.691668	-0.031010	-0.721042	-0.027063
35699	9.733688	-1.427750	-0.585610	0.691012	-0.032945	-0.721455	-0.030346
35700	9.268815	-1.239185	-1.296041	0.690514	-0.033752	-0.721792	-0.032673
35701	9.164475	-0.384561	-0.332869	0.690563	-0.033968	-0.721650	-0.034492
35702	8.957897	0.047560	-0.132553	0.690863	-0.034079	-0.721275	-0.036193
35703	9.033350	-0.468023	-0.686169	0.690951	-0.034866	-0.721033	-0.038501
35704	9.559779	-1.012776	-0.205936	0.691399	-0.035497	-0.720463	-0.040495
35705	9.396360	-1.444653	-0.886362	0.691938	-0.035537	-0.719864	-0.041889
35706	9.852733	-0.590076	-0.599326	0.691992	-0.034712	-0.719807	-0.042671
35707	9.983275	-0.114515	0.044063	0.692717	-0.033991	-0.719083	-0.043683
35708	9.569456	-0.164639	-0.901563	0.693332	-0.032840	-0.718497	-0.044433
35709	9.712263	-0.033787	0.059495	0.694003	-0.031396	-0.717878	-0.044998
35710	9.839689	-0.486788	-0.156008	0.694169	-0.030350	-0.717730	-0.045520
35711	10.288746	-0.800305	-0.878637	0.694370	-0.028859	-0.717607	-0.045354
35712	10.708997	-0.116239	0.174898	0.694917	-0.026569	-0.717233	-0.044276
35713	10.258212	0.333391	-0.064766	0.695322	-0.024466	-0.716984	-0.043158
35714	9.538117	-0.116996	-0.974408	0.695670	-0.023688	-0.716693	-0.042819
35715	9.701644	0.160460	-0.565378	0.694434	-0.022089	-0.718033	-0.041244
35716	10.446887	0.070180	-0.584056	0.692706	-0.021125	-0.719799	-0.040010
35717	10.142915	-0.397778	-1.473172	0.692627	-0.020233	-0.719966	-0.038817
35718	9.748621	0.011932	-0.231775	0.692280	-0.019166	-0.720410	-0.037296
35719	9.790105	-0.086451	-0.909615	0.691532	-0.018765	-0.721191	-0.036266
35720	9.638466	-0.283468	-1.027696	0.691191	-0.018253	-0.721583	-0.035217
35721	9.614262	-0.421228	-0.604210	0.690639	-0.017178	-0.722208	-0.033741
35722	9.807207	-0.205411	-1.370409	0.689845	-0.015741	-0.723069	-0.032210
35723	9.840675	0.159528	-0.587503	0.689439	-0.014604	-0.723529	-0.031085
35724	9.738222	0.348335	-0.565835	0.688674	-0.012799	-0.724361	-0.029416
35725	9.696009	0.727486	0.434375	0.687882	-0.011877	-0.725169	-0.028418
35726	9.290489	0.036370	-1.011023	0.686702	-0.010998	-0.726342	-0.027335
35727	9.091997	-0.506552	-1.326925	0.685235	-0.010949	-0.727740	-0.026979
35728	9.540340	-0.834876	-2.428628	0.683189	-0.010201	-0.729708	-0.025973
35729	10.167579	-0.817433	-1.710230	0.682350	-0.008899	-0.730554	-0.024703
35730	10.491061	0.131292	0.115283	0.681970	-0.006633	-0.730997	-0.022718
35731	9.772430	0.551087	-0.038205	0.681181	-0.005130	-0.731776	-0.021671
35732	8.741825	-0.317076	-2.294496	0.679645	-0.005049	-0.733190	-0.022128
35733	9.266494	-0.629291	-1.825775	0.679311	-0.004083	-0.733524	-0.021488
35734	9.821548	-0.734690	-1.377372	0.678601	-0.002993	-0.734216	-0.020452
35735	10.790396	-0.300092	-1.556695	0.677250	-0.001281	-0.735515	-0.018677
35736	10.752947	0.143324	0.663353	0.677474	-0.000475	-0.735317	-0.018384
35737	9.216482	-0.554013	0.806739	0.677061	-0.000722	-0.735660	-0.019814
35738	8.556703	-1.367310	-2.376201	0.674670	0.000061	-0.737845	-0.020136
35739	9.461426	-1.249068	-2.215041	0.673363	0.002507	-0.739090	-0.017960
35740	10.499270	-0.468784	-0.733880	0.671528	0.004426	-0.740804	-0.015508
35741	11.525069	0.174004	-0.937541	0.669778	0.005579	-0.742410	-0.013915
35742	10.629696	0.106838	-0.007051	0.671516	0.005086	-0.740822	-0.014924
35743	8.544665	-0.826135	-0.029544	0.671996	0.004770	-0.740363	-0.016136
35744	9.082601	-1.457621	-1.865145	0.669713	0.005747	-0.742431	-0.015742
35745	10.001633	-1.647595	-2.148348	0.669136	0.008624	-0.742981	-0.012755
35746	10.457247	-0.504771	-0.347245	0.668805	0.010170	-0.743295	-0.010439
35747	10.626709	0.031430	-0.077062	0.668964	0.010754	-0.743156	-0.009502
35748	9.508003	-0.036472	-0.067950	0.671021	0.010629	-0.741286	-0.010590
35749	8.607211	-0.403703	0.532794	0.672024	0.010435	-0.740351	-0.012427
35750	8.991585	-1.283934	-0.479791	0.671618	0.011433	-0.740701	-0.012665
35751	9.365388	-0.618676	-0.835313	0.671142	0.013014	-0.741125	-0.011574
35752	9.679346	-0.842557	-0.975175	0.670460	0.014698	-0.741727	-0.010400
35753	9.414021	-0.693500	-0.025150	0.670699	0.016830	-0.741482	-0.009230
35754	8.938289	-0.633001	-0.568224	0.669360	0.018455	-0.742654	-0.009023
35755	9.295966	-0.051904	-0.862877	0.670120	0.020963	-0.741907	-0.008564
35756	8.659698	0.781621	0.048823	0.671371	0.024306	-0.740684	-0.007564
35757	9.341435	1.079035	-0.302015	0.670925	0.027237	-0.740992	-0.006953
35758	10.062756	1.219738	-0.896482	0.671033	0.029868	-0.740799	-0.006335
35759	10.360095	1.330274	-0.749488	0.670643	0.032108	-0.741061	-0.005959
35760	10.514174	1.715144	-0.848280	0.670558	0.033953	-0.741055	-0.005959
35761	9.872357	1.342116	-1.304547	0.670794	0.035189	-0.740780	-0.006575
35762	9.705713	1.266138	-1.152918	0.670119	0.037150	-0.741291	-0.007010
35763	9.692423	1.105316	-1.277736	0.670056	0.039906	-0.741202	-0.007155
35764	9.229642	1.048151	-1.722843	0.669554	0.043721	-0.741446	-0.006673
35765	9.854501	1.684063	-1.442579	0.668354	0.047989	-0.742270	-0.005970
35766	10.016161	2.016362	-0.619361	0.668559	0.051041	-0.741882	-0.005899
35767	10.236589	1.976401	-1.026550	0.668213	0.052602	-0.742078	-0.006667
35768	10.445927	1.980979	-0.641366	0.668855	0.053519	-0.741426	-0.007514
35769	10.218168	1.762413	-0.356558	0.669099	0.053423	-0.741192	-0.009344
35770	10.306254	1.145870	-0.818528	0.669560	0.052937	-0.740781	-0.011408
35771	10.139717	0.860452	-0.560384	0.670138	0.052333	-0.740273	-0.013150
35772	10.003054	0.440031	-0.748253	0.670478	0.051668	-0.739985	-0.014558
35773	9.708546	0.213720	-1.243313	0.670995	0.051626	-0.739510	-0.015007
35774	9.327075	0.305401	-1.425301	0.671126	0.051995	-0.739369	-0.014826
35775	9.194127	0.406625	-1.584940	0.670909	0.052454	-0.739540	-0.014458
35776	9.195843	0.338753	-1.480843	0.670873	0.053215	-0.739530	-0.013889
35777	9.365404	0.484556	-1.367011	0.670616	0.054455	-0.739689	-0.013009
35778	9.797509	0.717823	-1.639729	0.670660	0.056021	-0.739553	-0.011761
35779	9.801724	1.064967	-1.424378	0.670848	0.057315	-0.739300	-0.010669
35780	9.928338	1.117804	-1.050990	0.671223	0.058218	-0.738899	-0.009937
35781	10.030197	1.123616	-0.873008	0.671874	0.058696	-0.738272	-0.009738
35782	9.879091	0.672410	-0.362097	0.673165	0.058309	-0.737109	-0.010903
35783	9.545711	0.490369	-0.409680	0.674404	0.058673	-0.735929	-0.012059
35784	9.339923	0.400163	-0.539702	0.675154	0.058795	-0.735200	-0.013869
35785	9.359595	0.350864	-0.655844	0.675698	0.058588	-0.734677	-0.015789
35786	9.282623	0.135840	-0.577764	0.676706	0.057547	-0.733773	-0.018277
35787	8.888901	-0.423157	-0.415813	0.677977	0.056180	-0.732615	-0.021575
35788	8.458039	-0.885994	-0.349451	0.679001	0.055802	-0.731591	-0.024884
35789	8.620042	-0.811014	-0.425695	0.678740	0.056372	-0.731680	-0.027904
35790	9.072429	-0.569663	-0.690030	0.678162	0.057448	-0.732030	-0.030481
35791	9.391493	-0.489626	-0.896136	0.676951	0.058954	-0.732939	-0.032581
35792	9.834417	-0.307545	-0.869531	0.675283	0.061096	-0.734240	-0.033927
35793	10.121822	0.103875	-0.805481	0.673458	0.063590	-0.735673	-0.034597
35794	10.290149	0.573053	-0.379566	0.671346	0.065771	-0.737385	-0.035101
35795	10.643661	0.562348	-0.588734	0.668851	0.067214	-0.739494	-0.035633
35796	11.093125	0.021101	-1.146822	0.666860	0.068194	-0.741170	-0.036251
35797	11.726650	-0.479922	-1.325925	0.665692	0.069696	-0.742056	-0.036749
35798	12.342644	-0.603853	-1.266190	0.665533	0.073091	-0.741900	-0.036163
35799	12.412886	-0.128941	-0.304633	0.666666	0.077892	-0.740471	-0.034516
35800	11.286356	0.879685	0.056328	0.668382	0.084456	-0.738373	-0.030643
35801	9.532011	2.413880	-0.109849	0.670135	0.090756	-0.736189	-0.026615
35802	8.516063	3.267945	-0.671480	0.671007	0.096221	-0.734798	-0.023715
35803	8.460810	3.590119	-1.394458	0.671041	0.100836	-0.734182	-0.022620
35804	8.886717	3.202291	-1.594653	0.670418	0.105616	-0.734085	-0.022444
35805	9.534667	2.881768	-1.232846	0.669591	0.110958	-0.734054	-0.022385
35806	9.760559	2.520238	-0.821353	0.669244	0.116233	-0.733558	-0.022252
35807	9.602814	2.328514	-0.997591	0.668708	0.122023	-0.733134	-0.021314
35808	9.422449	2.667292	-1.142856	0.668683	0.127895	-0.732193	-0.019999
35809	8.983768	2.859947	-1.094625	0.668317	0.132855	-0.731657	-0.019490
35810	9.273511	3.046243	-0.789007	0.667260	0.138162	-0.731655	-0.018902
35811	9.457851	3.397721	-0.759223	0.666399	0.143511	-0.731418	-0.018560
35812	9.028243	3.663983	-0.985203	0.665972	0.147421	-0.731009	-0.019343
35813	8.630708	3.399150	-1.268008	0.665241	0.150214	-0.731071	-0.020637
35814	8.829940	3.056737	-1.729898	0.664035	0.152494	-0.731650	-0.022174
35815	9.380683	2.917771	-1.648793	0.662911	0.156069	-0.731909	-0.022392
35816	9.270095	2.890287	-1.527801	0.662390	0.159866	-0.731565	-0.022267
35817	8.745455	3.119488	-1.513442	0.661623	0.163689	-0.731425	-0.021879
35818	8.641110	3.164167	-1.521754	0.660643	0.166895	-0.731580	-0.022089
35819	8.755426	2.908597	-1.569488	0.660207	0.169410	-0.731369	-0.022932
35820	8.482531	2.855206	-2.106916	0.659619	0.171605	-0.731363	-0.023717
35821	8.329160	2.582258	-2.422777	0.658856	0.173697	-0.731542	-0.024181
35822	8.257679	2.628398	-1.541116	0.658376	0.176434	-0.731334	-0.023727
35823	8.342844	2.700323	-0.973181	0.657515	0.179566	-0.731378	-0.022734
35824	8.496910	3.263671	-1.035596	0.656513	0.182358	-0.731623	-0.021544
35825	8.473944	3.676004	-1.199990	0.655818	0.183856	-0.731882	-0.021183
35826	8.739624	3.351176	-1.034429	0.654313	0.184167	-0.733134	-0.021742
35827	9.370157	2.910935	-1.584766	0.652534	0.184350	-0.734660	-0.022120
35828	9.449462	2.745708	-2.071148	0.651059	0.184545	-0.735915	-0.022221
35829	9.151093	2.439503	-1.844218	0.650061	0.184490	-0.736817	-0.022008
35830	8.889823	2.521844	-1.570029	0.648511	0.185004	-0.738082	-0.021019
35831	9.332435	2.356082	-1.850316	0.646989	0.185494	-0.739314	-0.020285
35832	9.470581	2.202672	-1.184603	0.646059	0.186558	-0.739892	-0.019042
35833	9.315303	2.543273	-1.889301	0.645086	0.187846	-0.740451	-0.017583
35834	9.430948	2.823742	-1.276063	0.644142	0.189043	-0.740999	-0.016233
35835	9.563631	3.062647	-0.849023	0.643731	0.190066	-0.741119	-0.015099
35836	9.014248	3.134303	-1.870476	0.643492	0.190572	-0.741209	-0.014456
35837	8.648521	2.972338	-3.468742	0.643186	0.190011	-0.741617	-0.014591
35838	9.326807	2.041447	-1.468810	0.641374	0.189342	-0.743349	-0.014874
35839	10.476791	2.216935	-0.260391	0.641168	0.189896	-0.743405	-0.013857
35840	10.378711	2.669008	-1.371499	0.641596	0.190444	-0.742915	-0.012760
35841	10.664437	2.535148	-1.892595	0.641679	0.190462	-0.742852	-0.012005
35842	10.204664	2.654718	-3.018017	0.642181	0.190335	-0.742467	-0.010948
35843	9.877558	2.347363	-2.734043	0.642416	0.189927	-0.742382	-0.009942
35844	10.037875	2.099386	-1.690769	0.642552	0.190575	-0.742122	-0.007908
35845	9.731811	2.955752	-1.941706	0.643489	0.191650	-0.741053	-0.005723
35846	9.926370	3.268634	-1.782150	0.644904	0.191370	-0.739898	-0.005173
35847	9.564680	3.579968	-2.576687	0.646973	0.190765	-0.738251	-0.004529
35848	9.416270	3.304198	-2.626723	0.647813	0.189539	-0.737829	-0.004685
35849	9.871842	2.471397	-0.297285	0.648916	0.188353	-0.737162	-0.004815
35850	9.220012	2.406105	-0.326368	0.650318	0.187752	-0.736082	-0.004359
35851	8.044374	2.536126	-2.173944	0.651770	0.186288	-0.735163	-0.005189
35852	8.102496	3.040819	-2.665491	0.652814	0.184247	-0.734739	-0.006811
35853	9.047404	2.955611	-2.364519	0.653113	0.181912	-0.735031	-0.008973
35854	10.407857	2.650545	-1.173281	0.653727	0.181112	-0.734676	-0.009565
35855	9.718262	2.595268	-0.393159	0.655049	0.181033	-0.733516	-0.009613
35856	8.731208	2.726155	-1.496921	0.655901	0.181032	-0.732751	-0.009836
35857	8.054494	3.389427	-2.570356	0.656946	0.179879	-0.732081	-0.011125
35858	9.129759	3.054380	-2.259750	0.656627	0.178409	-0.732693	-0.013113
35859	10.301150	3.277081	-0.875342	0.656953	0.177794	-0.732526	-0.014402
35860	9.697253	2.969621	0.624021	0.658148	0.177362	-0.731534	-0.015591
35861	8.062956	3.080197	-0.268198	0.658621	0.176365	-0.731304	-0.017545
35862	7.030340	3.690041	-3.698340	0.657714	0.172315	-0.732937	-0.022887
35863	8.456203	3.083220	-3.375284	0.656621	0.168411	-0.734648	-0.027902
35864	9.804011	2.706465	-1.286318	0.656337	0.166593	-0.735199	-0.030833
35865	10.283280	2.064057	-0.846475	0.655637	0.166483	-0.735803	-0.031903
35866	9.509389	2.011319	-0.125826	0.655670	0.167077	-0.735649	-0.031660
35867	8.060496	3.027188	-1.158129	0.655156	0.166033	-0.736283	-0.033035
35868	7.845655	3.915754	-3.790529	0.654465	0.162070	-0.737571	-0.037390
35869	8.652800	3.714618	-2.247858	0.653874	0.159720	-0.738447	-0.040420
35870	9.804222	2.578935	-0.859161	0.653216	0.158609	-0.739167	-0.042241
35871	9.555894	1.896723	-0.439461	0.653961	0.158298	-0.738587	-0.042025
35872	8.414507	1.645428	-0.458882	0.653534	0.158289	-0.739037	-0.040769
35873	8.313781	2.722557	-2.337426	0.650788	0.157284	-0.741662	-0.040921
35874	8.923871	3.970669	-2.707278	0.649286	0.155601	-0.743260	-0.042190
35875	9.389701	3.550488	-1.658347	0.648215	0.153908	-0.744447	-0.043913
35876	9.752047	2.951369	-1.305560	0.647543	0.153207	-0.745148	-0.044388
35877	9.467536	2.240976	-1.235617	0.647509	0.153382	-0.745220	-0.043053
35878	9.040181	2.569049	-0.979822	0.646133	0.154882	-0.746289	-0.039691
35879	8.942756	3.213179	-0.772598	0.643673	0.156089	-0.748321	-0.036574
35880	8.442191	3.774086	-1.112539	0.640465	0.156464	-0.751078	-0.034718
35881	8.231790	3.929201	-1.276263	0.637380	0.154956	-0.753983	-0.035283
35882	7.919643	3.479497	-1.581964	0.636186	0.152384	-0.755438	-0.036896
35883	7.985595	3.468119	-2.134943	0.636039	0.148467	-0.756199	-0.039684
35884	8.802359	2.542214	-2.097604	0.634660	0.145169	-0.757898	-0.041515
35885	9.896317	3.041234	-1.650353	0.632871	0.142548	-0.759855	-0.042119
35886	10.275559	3.011037	-1.790156	0.632317	0.139093	-0.760909	-0.042949
35887	9.779548	2.951409	-2.283120	0.632787	0.135235	-0.761163	-0.043857
35888	9.495231	3.013924	-2.009154	0.633842	0.131156	-0.760936	-0.044943
35889	9.328912	2.537056	-2.002254	0.635216	0.126872	-0.760432	-0.046340
35890	9.501972	2.101870	-2.164995	0.636337	0.123248	-0.760038	-0.047195
35891	9.612534	2.167078	-2.058918	0.637489	0.120040	-0.759560	-0.047610
35892	9.483349	2.436564	-2.097263	0.638425	0.117107	-0.759202	-0.048088
35893	9.880243	2.585529	-1.925515	0.638974	0.114696	-0.759065	-0.048762
35894	9.995922	2.418160	-1.814655	0.639945	0.112785	-0.758504	-0.049202
35895	9.794957	2.339006	-1.849984	0.640985	0.110556	-0.757916	-0.049785
35896	10.188232	1.528606	-1.673874	0.642067	0.107372	-0.757372	-0.051081
35897	10.681264	0.766668	-1.576339	0.643433	0.103831	-0.756586	-0.052830
35898	11.186922	0.547822	-1.985184	0.644299	0.100127	-0.756137	-0.055765
35899	11.561125	1.325593	-1.372734	0.646015	0.096889	-0.754849	-0.058991
35900	10.351327	1.532613	-1.560597	0.648988	0.092855	-0.752510	-0.062621
35901	9.200230	1.417931	-1.448699	0.651928	0.088338	-0.750246	-0.065712
35902	8.556785	0.804543	-1.284767	0.654394	0.083203	-0.748463	-0.068181
35903	8.457214	0.378645	-1.662847	0.655285	0.078046	-0.748075	-0.069954
35904	9.082196	0.183507	-1.264417	0.655622	0.072442	-0.748153	-0.071970
35905	9.287287	-0.166991	-1.503330	0.656097	0.066737	-0.748082	-0.073859
35906	9.484141	-0.037125	-1.641678	0.656383	0.061240	-0.748171	-0.075171
35907	9.579605	0.043708	-1.827803	0.656803	0.056139	-0.748155	-0.075652
35908	9.552079	0.027027	-2.026760	0.657271	0.051482	-0.748115	-0.075292
35909	9.471988	0.116924	-1.949303	0.657593	0.047447	-0.748218	-0.074091
35910	9.325347	0.031063	-1.867517	0.656987	0.043834	-0.749104	-0.072729
35911	9.553786	0.221325	-1.652550	0.656002	0.040847	-0.750289	-0.071129
35912	9.626237	0.212347	-1.649810	0.655577	0.038161	-0.750968	-0.069352
35913	9.616940	0.344072	-1.731052	0.655301	0.036006	-0.751513	-0.067176
35914	9.589343	0.502604	-1.521559	0.655526	0.034304	-0.751603	-0.064830
35915	9.435543	0.572118	-1.174552	0.655650	0.032948	-0.751760	-0.062404
35916	9.548999	0.775743	-1.433169	0.655494	0.031990	-0.752149	-0.059797
35917	9.607022	0.986469	-1.416108	0.655528	0.031176	-0.752358	-0.057173
35918	9.581332	1.151312	-1.244654	0.655174	0.030307	-0.752890	-0.054630
35919	9.720296	1.202105	-1.376055	0.654683	0.028865	-0.753516	-0.052636
35920	9.758259	1.151060	-1.483623	0.654323	0.027030	-0.754006	-0.051044
35921	9.656138	0.912966	-1.419678	0.653949	0.024488	-0.754475	-0.050198
35922	9.723733	0.717473	-1.420555	0.653014	0.021963	-0.755405	-0.049535
35923	9.787574	0.652260	-1.361160	0.652361	0.020011	-0.756074	-0.048753
35924	9.621813	0.613899	-1.342911	0.651637	0.018456	-0.756791	-0.047918
35925	9.648758	0.574362	-1.366903	0.650843	0.016759	-0.757548	-0.047361
35926	9.656752	0.611682	-1.355839	0.649981	0.015065	-0.758362	-0.046745
35927	9.680897	0.711167	-1.480264	0.649230	0.013524	-0.759067	-0.046201
35928	9.486328	0.740995	-1.457847	0.648585	0.012102	-0.759665	-0.045824
35929	9.297651	0.635592	-1.524129	0.647379	0.010514	-0.760715	-0.045845
35930	9.500269	0.658316	-1.498066	0.645780	0.008760	-0.762073	-0.046222
35931	9.643646	0.697001	-1.693612	0.644575	0.006635	-0.763061	-0.047091
35932	9.623065	0.736937	-1.536861	0.643482	0.004574	-0.763952	-0.047834
35933	9.706960	0.831650	-1.431168	0.642296	0.002554	-0.764917	-0.048493
35934	9.592801	0.733721	-1.596857	0.641193	0.000343	-0.765780	-0.049516
35935	9.542165	0.595438	-1.567095	0.639873	-0.001908	-0.766801	-0.050744
35936	9.606933	0.528802	-1.542537	0.638607	-0.004249	-0.767761	-0.052021
35937	9.617509	0.428640	-1.677635	0.637331	-0.006580	-0.768720	-0.053248
35938	9.565069	0.307384	-1.771272	0.635906	-0.008603	-0.769814	-0.054185
35939	9.625046	0.367760	-1.743197	0.634458	-0.010346	-0.770936	-0.054907
35940	9.673498	0.424195	-1.851995	0.633213	-0.012017	-0.771879	-0.055670
35941	9.728088	0.467769	-1.743546	0.632231	-0.013655	-0.772601	-0.056436
35942	9.771443	0.405322	-1.756678	0.631320	-0.015254	-0.773263	-0.057158
35943	9.763625	0.312702	-1.817353	0.630696	-0.016518	-0.773712	-0.057620
35944	9.683850	0.255027	-1.667971	0.630299	-0.017675	-0.773974	-0.058094
35945	9.660894	0.318111	-1.667654	0.629862	-0.018614	-0.774285	-0.058393
35946	9.765682	0.487136	-1.753382	0.629423	-0.019466	-0.774601	-0.058665
35947	9.819400	0.602789	-1.694984	0.629148	-0.020149	-0.774790	-0.058877
35948	9.742373	0.659287	-1.638061	0.629146	-0.020940	-0.774743	-0.059243
35949	9.722729	0.650172	-1.651798	0.629133	-0.021738	-0.774702	-0.059630
35950	9.807544	0.731077	-1.613391	0.629174	-0.022592	-0.774614	-0.060032
35951	9.779558	0.814082	-1.589473	0.629514	-0.023494	-0.774271	-0.060544
35952	9.728411	0.816931	-1.694621	0.629913	-0.024526	-0.773860	-0.061217
35953	9.691188	0.730743	-1.739448	0.630156	-0.025889	-0.773541	-0.062185
35954	9.619256	0.625697	-1.842450	0.629937	-0.027450	-0.773570	-0.063363
35955	9.641991	0.671294	-1.811356	0.629969	-0.028757	-0.773409	-0.064432
35956	9.523254	0.755477	-1.763241	0.630213	-0.029977	-0.773075	-0.065474
35957	9.524535	0.808013	-1.767705	0.630299	-0.031225	-0.772867	-0.066516
35958	9.520640	0.827325	-1.816945	0.630364	-0.032506	-0.772664	-0.067631
35959	9.532278	0.744705	-1.922634	0.630300	-0.033906	-0.772532	-0.069038
35960	9.468573	0.646635	-1.983118	0.630220	-0.035235	-0.772412	-0.070430
35961	9.411101	0.611258	-2.038190	0.630115	-0.036324	-0.772332	-0.071686
35962	9.429424	0.644612	-2.138526	0.629988	-0.037362	-0.772260	-0.073037
35963	9.441452	0.706849	-2.164668	0.629882	-0.038348	-0.772170	-0.074375
35964	9.531995	0.719730	-2.044211	0.629691	-0.039462	-0.772123	-0.075882
35965	9.655429	0.716018	-1.964910	0.629547	-0.040460	-0.772054	-0.077237
35966	9.690280	0.805118	-1.998172	0.629423	-0.041349	-0.771978	-0.078531
35967	9.703711	0.863209	-2.007996	0.629400	-0.042489	-0.771772	-0.080112
35968	9.591445	0.782537	-1.949323	0.629324	-0.043863	-0.771574	-0.081865
35969	9.660387	0.730274	-2.040219	0.629193	-0.045143	-0.771433	-0.083485
35970	9.695659	0.785579	-2.019104	0.629256	-0.046467	-0.771117	-0.085183
35971	9.663830	0.843842	-2.019968	0.629258	-0.047787	-0.770855	-0.086795
35972	9.693205	0.867442	-1.913586	0.629237	-0.049235	-0.770601	-0.088376
35973	9.639359	0.853615	-1.845732	0.629270	-0.050737	-0.770306	-0.089857
35974	9.588624	0.758266	-1.925645	0.629170	-0.052240	-0.770127	-0.091215
35975	9.657702	0.809187	-2.036826	0.628994	-0.053617	-0.770029	-0.092454
35976	9.633257	0.753800	-1.993439	0.628914	-0.054912	-0.769860	-0.093638
35977	9.594924	0.749874	-1.814204	0.628703	-0.056192	-0.769809	-0.094705
35978	9.477120	0.718777	-1.868424	0.628310	-0.057589	-0.769877	-0.095909
35979	9.432274	0.661593	-1.976572	0.627877	-0.058859	-0.769995	-0.097024
35980	9.535817	0.700154	-2.056347	0.627464	-0.060019	-0.770112	-0.098056
35981	9.553220	0.698531	-2.110338	0.627332	-0.061207	-0.769989	-0.099123
35982	9.398742	0.628052	-2.062181	0.627288	-0.062305	-0.769797	-0.100202
35983	9.406955	0.613977	-2.069748	0.627085	-0.063184	-0.769768	-0.101141
35984	9.515394	0.582528	-2.095543	0.627040	-0.063972	-0.769613	-0.102103
35985	9.485484	0.641942	-2.031777	0.626972	-0.064816	-0.769469	-0.103062
35986	9.472083	0.632649	-2.068572	0.626747	-0.065732	-0.769450	-0.103995
35987	9.472113	0.553467	-1.961559	0.626613	-0.066529	-0.769388	-0.104749
35988	9.577008	0.516921	-1.746473	0.626381	-0.067243	-0.769437	-0.105320
35989	9.660372	0.514690	-1.792789	0.626006	-0.068004	-0.769602	-0.105855
35990	9.642083	0.520375	-1.876116	0.625651	-0.068820	-0.769734	-0.106464
35991	9.578032	0.455910	-1.986581	0.625469	-0.069547	-0.769744	-0.106986
35992	9.571000	0.519077	-1.973334	0.625291	-0.070151	-0.769785	-0.107339
35993	9.629326	0.571650	-2.003213	0.625164	-0.070755	-0.769797	-0.107593
35994	9.579178	0.588380	-2.040132	0.624965	-0.071461	-0.769837	-0.107998
