// Start Time: Unknown
// Update Rate: 60.0Hz
// Filter Profile: human (46.1)
// Option Flags: AHS Disabled ICC Disabled 
// Firmware Version: 4.3.5
PacketCounter	Acc_X	Acc_Y	Acc_Z	Quat_q0	Quat_q1	Quat_q2	Quat_q3
39183	9.586234	0.980496	-1.569767	0.640116	0.014164	-0.765839	-0.059509
39184	9.559390	0.943107	-1.614599	0.640177	0.014106	-0.765780	-0.059631
39185	9.603871	0.937280	-1.592624	0.640259	0.013951	-0.765704	-0.059756
39186	9.634776	0.929331	-1.682150	0.640326	0.013681	-0.765637	-0.059960
39187	9.609075	0.989603	-1.645647	0.640463	0.013408	-0.765512	-0.060145
39188	9.539655	1.014105	-1.564241	0.640581	0.013093	-0.765400	-0.060391
39189	9.573653	1.018113	-1.601836	0.640636	0.012792	-0.765340	-0.060637
39190	9.638210	0.974218	-1.668082	0.640711	0.012412	-0.765255	-0.060993
39191	9.606366	0.966717	-1.702446	0.640865	0.012070	-0.765108	-0.061288
39192	9.596264	0.982351	-1.646707	0.641002	0.011744	-0.764977	-0.061554
39193	9.597052	0.981856	-1.642409	0.641136	0.011483	-0.764848	-0.061813
39194	9.633120	0.949897	-1.629310	0.641231	0.011282	-0.764753	-0.062033
39195	9.640286	0.920718	-1.683063	0.641290	0.011211	-0.764696	-0.062144
39196	9.589096	0.952276	-1.679038	0.641206	0.011374	-0.764775	-0.062006
39197	9.573183	0.954766	-1.636973	0.640988	0.011703	-0.764979	-0.061690
39198	9.605317	1.006230	-1.634978	0.640816	0.012071	-0.765142	-0.061375
39199	9.586277	0.952866	-1.611990	0.640789	0.012373	-0.765174	-0.061204
39200	9.599290	0.894788	-1.726185	0.640683	0.012639	-0.765269	-0.061064
39201	9.579082	0.927468	-1.751582	0.640584	0.012976	-0.765362	-0.060869
39202	9.595740	0.980656	-1.733261	0.640508	0.013293	-0.765431	-0.060731
39203	9.520448	0.991045	-1.694078	0.640531	0.013553	-0.765415	-0.060638
39204	9.544785	1.018422	-1.696565	0.640552	0.013749	-0.765397	-0.060592
39205	9.606713	0.976978	-1.639259	0.640589	0.013919	-0.765368	-0.060535
39206	9.602656	0.964710	-1.642613	0.640663	0.013974	-0.765300	-0.060591
39207	9.543133	0.971299	-1.646690	0.640729	0.014063	-0.765240	-0.060632
39208	9.541876	1.012815	-1.661794	0.640820	0.014135	-0.765156	-0.060714
39209	9.523575	1.002476	-1.696944	0.640910	0.014189	-0.765070	-0.060830
39210	9.531093	0.978461	-1.717935	0.640976	0.014166	-0.764998	-0.061043
39211	9.563413	0.942800	-1.646197	0.641024	0.014128	-0.764942	-0.061255
39212	9.609300	0.985223	-1.702439	0.641034	0.014070	-0.764919	-0.061452
39213	9.578026	0.986401	-1.673052	0.641173	0.014082	-0.764793	-0.061570
39214	9.531238	0.987002	-1.628810	0.641318	0.014217	-0.764670	-0.061554
39215	9.557206	1.065769	-1.595023	0.641389	0.014312	-0.764611	-0.061534
39216	9.627065	1.042396	-1.590909	0.641491	0.014300	-0.764523	-0.061557
39217	9.621327	1.024153	-1.579971	0.641541	0.014244	-0.764476	-0.061625
39218	9.614994	1.002906	-1.602459	0.641570	0.014201	-0.764444	-0.061736
39219	9.541872	0.921261	-1.624222	0.641615	0.014118	-0.764396	-0.061880
39220	9.570871	0.910390	-1.701567	0.641592	0.014103	-0.764408	-0.061980
39221	9.583348	0.946403	-1.717794	0.641658	0.014238	-0.764356	-0.061910
39222	9.629151	0.996299	-1.629802	0.641705	0.014389	-0.764319	-0.061839
39223	9.615630	1.001021	-1.627937	0.641820	0.014553	-0.764228	-0.061742
39224	9.587131	1.054498	-1.610718	0.641919	0.014794	-0.764148	-0.061637
39225	9.518440	1.040250	-1.513059	0.642060	0.015042	-0.764037	-0.061488
39226	9.610871	1.029545	-1.643843	0.641979	0.015283	-0.764110	-0.061360
39227	9.731285	1.013393	-1.742042	0.642055	0.015491	-0.764048	-0.061294
39228	9.707427	1.042449	-1.622127	0.642288	0.015712	-0.763855	-0.061203
39229	9.583893	1.050522	-1.490269	0.642535	0.015890	-0.763648	-0.061138
39230	9.536867	1.051281	-1.446057	0.642602	0.016074	-0.763589	-0.061130
39231	9.655509	1.031239	-1.529555	0.642577	0.016330	-0.763609	-0.061067
39232	9.774596	1.056909	-1.643944	0.642680	0.016690	-0.763519	-0.061011
39233	9.809568	1.010169	-1.790541	0.643047	0.016985	-0.763203	-0.061012
39234	9.737329	0.974450	-1.785866	0.643670	0.017312	-0.762673	-0.060986
39235	9.672319	0.959649	-1.752995	0.644392	0.017667	-0.762063	-0.060891
39236	9.594430	1.005012	-1.653101	0.645136	0.018016	-0.761431	-0.060812
39237	9.548009	1.047101	-1.612737	0.645830	0.018261	-0.760835	-0.060831
39238	9.536254	1.009289	-1.563616	0.646546	0.018433	-0.760214	-0.060939
39239	9.558793	0.973009	-1.585860	0.647338	0.018744	-0.759532	-0.060943
39240	9.587380	0.850184	-1.681470	0.648257	0.019234	-0.758745	-0.060816
39241	9.589839	0.892591	-1.676157	0.649158	0.019912	-0.757988	-0.060432
39242	9.615644	0.971458	-1.575675	0.650135	0.020671	-0.757169	-0.059934
39243	9.551456	1.111849	-1.437268	0.651075	0.021393	-0.756382	-0.059404
39244	9.387665	1.033276	-1.376256	0.651882	0.021953	-0.755705	-0.058974
39245	9.431283	1.055344	-1.406998	0.652519	0.022561	-0.755176	-0.058477
39246	9.540296	1.110506	-1.324183	0.653114	0.023171	-0.754678	-0.058018
39247	9.568105	1.093029	-1.328956	0.653543	0.023836	-0.754325	-0.057511
39248	9.540999	1.138551	-1.372830	0.653850	0.024607	-0.754077	-0.056941
39249	9.539707	1.081895	-1.386377	0.654065	0.025440	-0.753911	-0.056304
39250	9.654271	1.098499	-1.388349	0.654253	0.026363	-0.753776	-0.055506
39251	9.733568	1.078779	-1.267083	0.654513	0.027301	-0.753577	-0.054676
39252	9.768963	1.117712	-1.134627	0.654684	0.028099	-0.753445	-0.054031
39253	9.725677	1.158499	-0.985974	0.654804	0.028702	-0.753349	-0.053609
39254	9.784909	1.207682	-1.160420	0.654901	0.029031	-0.753266	-0.053400
39255	9.780297	1.150645	-1.127637	0.655206	0.029261	-0.753003	-0.053246
39256	9.818051	1.079177	-1.086392	0.655714	0.029434	-0.752567	-0.053065
39257	9.738464	1.126649	-1.008393	0.656321	0.029663	-0.752051	-0.052743
39258	9.552380	1.169354	-0.965379	0.656935	0.029810	-0.751532	-0.052421
39259	9.547847	1.218181	-1.045639	0.657381	0.029770	-0.751159	-0.052194
39260	9.639359	1.225389	-1.138203	0.657881	0.029654	-0.750741	-0.051973
39261	9.672168	1.228060	-1.085783	0.658381	0.029426	-0.750324	-0.051785
39262	9.732709	1.229559	-1.183550	0.658929	0.029049	-0.749862	-0.051739
39263	9.810406	1.257691	-1.190008	0.659523	0.028557	-0.749354	-0.051805
39264	9.816262	1.268899	-1.132781	0.660395	0.028058	-0.748599	-0.051869
39265	9.609698	1.224519	-1.144590	0.661389	0.027554	-0.747740	-0.051864
39266	9.515294	1.076996	-1.229412	0.662403	0.027108	-0.746862	-0.051812
39267	9.633748	1.010793	-1.308077	0.663503	0.026893	-0.745910	-0.051570
39268	9.710771	1.019913	-1.163255	0.664810	0.026866	-0.744773	-0.051166
39269	9.596012	1.110876	-0.995936	0.666219	0.026848	-0.743548	-0.050679
39270	9.460722	1.157347	-1.085007	0.667363	0.026659	-0.742555	-0.050267
39271	9.570101	1.168801	-1.108082	0.668300	0.026285	-0.741739	-0.050075
39272	9.717821	1.123123	-1.095782	0.669246	0.025801	-0.740902	-0.050087
39273	9.746069	1.062810	-1.034346	0.670257	0.025515	-0.740005	-0.049973
39274	9.509045	1.087250	-0.988141	0.671284	0.025331	-0.739096	-0.049728
39275	9.296058	1.106917	-1.037050	0.672029	0.025036	-0.738441	-0.049555
39276	9.598028	1.001057	-1.206125	0.672462	0.024746	-0.738071	-0.049335
39277	9.869317	0.921433	-1.168165	0.673216	0.024804	-0.737413	-0.048859
39278	9.894159	0.966658	-1.042996	0.674368	0.025543	-0.736402	-0.047818
39279	9.552255	1.131613	-0.769500	0.675773	0.026385	-0.735156	-0.046694
39280	9.162388	1.332502	-0.769590	0.676706	0.026873	-0.734340	-0.045730
39281	9.428994	1.524033	-0.927368	0.677049	0.026569	-0.734059	-0.045339
39282	9.769626	1.496311	-0.919844	0.677452	0.026058	-0.733719	-0.045113
39283	9.838625	1.445150	-0.808492	0.678056	0.025776	-0.733192	-0.044788
39284	9.705505	1.326572	-0.654909	0.678725	0.025797	-0.732596	-0.044374
39285	9.474821	1.256796	-0.590140	0.679336	0.025887	-0.732050	-0.043988
39286	9.334428	1.167608	-0.671456	0.679687	0.025866	-0.731736	-0.043800
39287	9.558839	1.175873	-0.777566	0.679936	0.025833	-0.731506	-0.043802
39288	9.666943	1.349009	-0.877740	0.680259	0.025883	-0.731198	-0.043899
39289	9.623141	1.573078	-0.776631	0.680721	0.025861	-0.730758	-0.044087
39290	9.530975	1.581493	-0.753698	0.681119	0.025495	-0.730371	-0.044557
39291	9.579697	1.598810	-0.822311	0.681199	0.024763	-0.730271	-0.045375
39292	9.915036	1.644686	-0.968979	0.681333	0.023700	-0.730104	-0.046610
39293	10.055030	1.786257	-0.827765	0.681852	0.022812	-0.729569	-0.047819
39294	9.960218	1.917040	-0.598651	0.682613	0.022008	-0.728800	-0.049052
39295	9.687566	2.021301	-0.499136	0.683344	0.020649	-0.728044	-0.050667
39296	9.361028	1.918500	-0.624967	0.683999	0.018638	-0.727349	-0.052544
39297	9.209828	1.872726	-0.624194	0.684504	0.016402	-0.726785	-0.054484
39298	9.175113	1.806749	-0.510241	0.684582	0.013905	-0.726594	-0.056699
39299	9.343096	1.734669	-0.529943	0.684291	0.011269	-0.726715	-0.059189
39300	9.602081	1.509360	-0.717328	0.683865	0.008704	-0.726942	-0.061709
39301	9.895701	1.302460	-0.780792	0.683574	0.006438	-0.727041	-0.064011
39302	9.922605	1.170952	-0.756645	0.683586	0.004850	-0.726887	-0.065732
39303	9.737596	1.191021	-0.486357	0.683686	0.003887	-0.726695	-0.066875
39304	9.663548	1.225805	-0.183327	0.683519	0.003112	-0.726771	-0.067789
39305	9.728645	1.086400	-0.109413	0.683254	0.002356	-0.726952	-0.068549
39306	9.844773	0.980530	-0.462416	0.683163	0.001876	-0.726994	-0.069020
39307	10.062904	1.004073	-0.616692	0.683463	0.001315	-0.726681	-0.069363
39308	10.254652	1.103524	-0.554287	0.684372	0.000489	-0.725800	-0.069632
39309	10.315267	1.269059	0.022535	0.685803	-0.001187	-0.724362	-0.070511
39310	9.956592	1.372314	0.631845	0.686919	-0.003962	-0.723110	-0.072374
39311	9.288817	0.655782	0.190050	0.687615	-0.007224	-0.722183	-0.074736
39312	8.942540	-0.422473	-0.913222	0.687950	-0.010371	-0.721597	-0.076913
39313	9.159947	-0.984940	-1.527383	0.688219	-0.012903	-0.721156	-0.078241
39314	9.640737	-0.962907	-1.621985	0.688226	-0.014970	-0.721043	-0.078856
39315	9.817762	-0.586053	-1.601632	0.688134	-0.016129	-0.721141	-0.078533
39316	9.875994	-0.431561	-1.815702	0.687658	-0.017290	-0.721611	-0.078129
39317	10.236697	-0.725759	-2.193261	0.686978	-0.018195	-0.722319	-0.077368
39318	10.646992	-1.160011	-2.512099	0.686690	-0.018391	-0.722761	-0.075727
39319	10.829415	-0.572693	-2.266793	0.687412	-0.017672	-0.722358	-0.073146
39320	10.246015	0.144424	-1.496838	0.688821	-0.017203	-0.721251	-0.070899
39321	9.638910	0.387063	-1.307719	0.689534	-0.017219	-0.720723	-0.069321
39322	9.457057	0.510254	-1.391689	0.689774	-0.017204	-0.720588	-0.068328
39323	9.323918	0.150791	-1.194952	0.689832	-0.017630	-0.720536	-0.068182
39324	9.389985	-0.369188	-0.976440	0.689816	-0.018539	-0.720488	-0.068612
39325	9.513362	-0.458732	-0.947293	0.690722	-0.019170	-0.719561	-0.069044
39326	9.277389	-0.378601	-1.021253	0.692177	-0.019945	-0.718070	-0.069777
39327	9.324653	-0.347883	-0.974435	0.693548	-0.020722	-0.716645	-0.070587
39328	9.425998	-0.222431	-0.941092	0.694674	-0.021023	-0.715462	-0.071415
39329	9.581171	-0.040191	-1.042315	0.695337	-0.021569	-0.714653	-0.072880
39330	9.576953	-0.160960	-1.346585	0.696172	-0.022018	-0.713689	-0.074209
39331	9.442449	0.009081	-1.463159	0.697175	-0.022237	-0.712584	-0.075347
39332	9.339980	-0.194932	-1.828176	0.698526	-0.022320	-0.711146	-0.076378
39333	9.170308	-0.419948	-1.565401	0.700278	-0.021993	-0.709337	-0.077256
39334	9.454972	-0.162290	-1.334956	0.701864	-0.021344	-0.707715	-0.077919
39335	9.398841	-0.130580	-1.250434	0.703740	-0.020756	-0.705773	-0.078761
39336	9.295149	-0.112597	-1.204002	0.705503	-0.020057	-0.703932	-0.079641
39337	9.480874	-0.097092	-1.096800	0.706941	-0.019522	-0.702383	-0.080697
39338	9.750178	-0.178074	-1.519640	0.707923	-0.019007	-0.701289	-0.081717
39339	9.674794	-0.089383	-1.416445	0.709082	-0.017895	-0.700100	-0.082107
39340	9.627348	0.204173	-1.550019	0.709882	-0.016928	-0.699294	-0.082279
39341	9.796168	0.287415	-1.649983	0.710896	-0.016220	-0.698287	-0.082210
39342	9.930214	0.115485	-1.309820	0.712147	-0.016426	-0.696965	-0.082562
39343	10.100661	-0.011270	-0.979009	0.713471	-0.016737	-0.695570	-0.082829
39344	10.341936	-0.078763	-0.491549	0.714520	-0.017774	-0.694383	-0.083526
39345	11.220402	0.339577	0.089871	0.715570	-0.018953	-0.693224	-0.083914
39346	11.836817	1.104465	1.176099	0.716650	-0.021406	-0.691920	-0.084857
39347	11.844630	0.959901	-0.255395	0.716912	-0.023875	-0.691469	-0.085663
39348	10.779831	-0.201575	-0.600830	0.717485	-0.023829	-0.690914	-0.085360
39349	10.404373	-0.519614	0.074100	0.717503	-0.021665	-0.691170	-0.083686
39350	11.461588	-0.221503	0.033756	0.716842	-0.018528	-0.692277	-0.080913
39351	11.869718	0.466864	0.604579	0.716578	-0.014924	-0.692966	-0.078043
39352	11.293630	0.846313	1.040810	0.716413	-0.011656	-0.693473	-0.075570
39353	10.426240	0.968863	0.843480	0.716359	-0.007849	-0.693903	-0.072567
39354	9.600610	0.998893	1.252670	0.716718	-0.003450	-0.693909	-0.069238
39355	9.460422	0.959432	1.319922	0.716789	0.001259	-0.694181	-0.065764
39356	9.550371	0.953115	1.200217	0.716878	0.005824	-0.694364	-0.062528
39357	9.417485	1.177129	0.963483	0.716460	0.010429	-0.695011	-0.059467
39358	9.140519	1.673420	0.879894	0.715883	0.014709	-0.695754	-0.056757
39359	8.631609	1.909977	0.821844	0.715058	0.018224	-0.696693	-0.054568
39360	8.303746	2.118903	0.704529	0.714166	0.021093	-0.697658	-0.052859
39361	8.768056	1.769834	0.560099	0.712793	0.023745	-0.699058	-0.051777
39362	9.267248	1.612960	0.340074	0.711320	0.026585	-0.700506	-0.051064
39363	9.349348	1.708489	0.365461	0.709859	0.029408	-0.701895	-0.050773
39364	9.192617	1.982467	0.382300	0.708302	0.032117	-0.703382	-0.050304
39365	9.142364	2.129678	0.233744	0.706911	0.034264	-0.704707	-0.049896
39366	9.039083	2.156251	0.442275	0.705887	0.035876	-0.705675	-0.049588
39367	9.053229	1.901797	0.432508	0.705141	0.036859	-0.706371	-0.049577
39368	9.052032	1.962248	0.415641	0.704606	0.037445	-0.706853	-0.049876
39369	8.997963	2.119504	0.430821	0.703910	0.037874	-0.707493	-0.050300
39370	9.047112	2.230455	0.328766	0.702775	0.038156	-0.708566	-0.050848
39371	9.046647	2.085319	0.199357	0.701318	0.038357	-0.709954	-0.051451
39372	9.372892	1.595235	-0.007163	0.699861	0.038525	-0.711360	-0.051735
39373	9.584872	1.408414	-0.307539	0.698832	0.038675	-0.712384	-0.051441
39374	9.210915	1.528293	-0.290976	0.698355	0.038874	-0.712907	-0.050512
39375	8.691096	1.813604	-0.197249	0.697607	0.038846	-0.713703	-0.049635
39376	8.571997	2.083437	-0.412451	0.696259	0.038835	-0.715083	-0.048690
39377	8.874728	1.871884	-0.882940	0.694904	0.038843	-0.716471	-0.047642
39378	9.154589	1.674661	-0.967010	0.694046	0.039115	-0.717384	-0.046154
39379	9.571864	1.887306	-1.031609	0.693668	0.039185	-0.717836	-0.044728
39380	9.637960	2.073208	-1.166296	0.693604	0.039163	-0.717997	-0.043133
39381	9.780077	2.189998	-1.393382	0.693311	0.038718	-0.718387	-0.041718
39382	9.684131	2.075194	-1.181207	0.693599	0.037558	-0.718225	-0.040772
39383	9.448438	1.841166	-1.438680	0.693527	0.036130	-0.718391	-0.040361
39384	9.313724	1.167057	-2.133379	0.693775	0.035123	-0.718241	-0.039648
39385	9.248144	0.773754	-1.513577	0.695181	0.034277	-0.716968	-0.038800
39386	9.005250	1.198324	-0.675355	0.697656	0.034179	-0.714647	-0.037252
39387	8.612487	1.681575	-0.801387	0.699989	0.034971	-0.712434	-0.035083
39388	8.452422	2.624779	-0.239525	0.700681	0.035560	-0.711807	-0.033373
39389	8.728034	2.703123	0.135582	0.700814	0.035032	-0.711729	-0.032781
39390	8.634724	2.926865	-1.245280	0.699417	0.034202	-0.713142	-0.032773
39391	8.848676	2.289772	-1.472987	0.698824	0.031788	-0.713772	-0.034119
39392	8.618059	2.647746	-1.342157	0.697234	0.029119	-0.715374	-0.035434
39393	10.043674	0.897030	-1.294274	0.696518	0.024289	-0.716078	-0.038798
39394	11.053328	-0.183477	-0.789714	0.696819	0.022020	-0.715759	-0.040597
39395	12.210675	-0.303959	-0.145422	0.698508	0.020634	-0.714076	-0.041907
39396	11.385339	-0.283025	0.997067	0.702685	0.020897	-0.709942	-0.042176
39397	10.485483	-0.040526	1.268999	0.706255	0.023063	-0.706348	-0.041768
39398	10.106082	1.160289	0.744298	0.709360	0.025899	-0.703147	-0.041500
39399	9.774943	2.560026	-0.373885	0.710910	0.027460	-0.701478	-0.042206
39400	10.568886	3.347656	-1.386277	0.711386	0.026794	-0.700897	-0.044212
39401	10.694835	2.948006	-0.847058	0.712810	0.024810	-0.699333	-0.047110
39402	11.240560	1.765025	-0.515311	0.713397	0.022991	-0.698601	-0.049928
39403	11.553601	0.511273	-0.330738	0.714260	0.021174	-0.697604	-0.052286
39404	11.192727	0.280800	-0.170663	0.714122	0.019590	-0.697680	-0.053745
39405	11.726798	0.564227	-0.522414	0.712726	0.017516	-0.699050	-0.055177
39406	12.379575	0.930965	0.128772	0.712053	0.015298	-0.699659	-0.056779
39407	12.803505	0.779617	0.990986	0.711746	0.013027	-0.699895	-0.058270
39408	12.347821	0.529464	1.519243	0.712031	0.010329	-0.699545	-0.059509
39409	10.856474	-0.052876	1.843857	0.712610	0.007209	-0.698906	-0.060535
39410	9.708293	-0.496478	1.774375	0.712775	0.004081	-0.698690	-0.061372
39411	9.097897	-0.733674	1.707136	0.713161	0.001437	-0.698244	-0.062078
39412	9.060106	-0.831993	1.668568	0.713293	-0.000147	-0.698078	-0.062451
39413	9.363805	-0.643158	1.596273	0.713323	-0.000244	-0.698088	-0.061997
39414	9.986440	-0.238468	1.181308	0.712595	-0.000410	-0.698885	-0.061391
39415	10.273266	-0.262280	1.018417	0.712279	-0.000827	-0.699290	-0.060433
39416	9.363530	-0.163967	0.893748	0.711568	-0.001986	-0.700025	-0.060269
39417	9.017622	-0.434492	0.359578	0.710507	-0.002814	-0.701150	-0.059674
39418	8.994688	-0.270519	0.330904	0.709810	-0.003478	-0.701879	-0.059354
39419	8.906012	-0.272652	0.450418	0.709172	-0.003936	-0.702552	-0.059000
39420	8.889348	-0.076053	0.372882	0.708399	-0.004093	-0.703358	-0.058660
39421	8.908701	0.119916	0.277000	0.707918	-0.004811	-0.703841	-0.058623
39422	8.560220	0.145253	0.075281	0.707888	-0.005367	-0.703881	-0.058465
39423	8.463097	-0.212139	0.085692	0.707861	-0.005916	-0.703898	-0.058526
39424	8.822148	-0.062124	0.059632	0.707816	-0.006027	-0.703971	-0.058176
39425	8.889654	-0.139482	0.224939	0.708030	-0.006511	-0.703775	-0.057897
39426	8.482121	0.025020	-0.040830	0.707552	-0.007472	-0.704221	-0.058199
39427	8.488844	-0.337936	-0.510795	0.706504	-0.008944	-0.705213	-0.058708
39428	8.399558	-0.026174	-0.306996	0.705608	-0.010675	-0.706029	-0.059392
39429	8.663649	0.014492	-0.604004	0.704017	-0.012832	-0.707492	-0.060430
39430	9.029067	-0.302876	-1.166860	0.702683	-0.015171	-0.708623	-0.062130
39431	9.017591	-0.957733	-0.717026	0.701982	-0.016561	-0.709128	-0.063911
39432	9.141964	-1.351550	-0.855915	0.701569	-0.016158	-0.709464	-0.064813
39433	8.887172	-1.049843	-0.548620	0.701528	-0.014554	-0.709528	-0.064934
39434	8.699518	-0.708543	-0.816596	0.701061	-0.012424	-0.710057	-0.064639
39435	8.546546	-0.233890	-0.813381	0.700170	-0.010541	-0.710950	-0.064811
39436	8.486207	-0.301644	-0.997186	0.698441	-0.008743	-0.712673	-0.064817
39437	8.796900	-0.433037	-1.575914	0.696272	-0.006586	-0.714822	-0.064748
39438	8.428948	-0.468363	-2.084997	0.694822	-0.004000	-0.716260	-0.064639
39439	7.986492	0.026577	-1.898760	0.693638	-0.000445	-0.717497	-0.063742
39440	7.212736	0.625555	-1.746303	0.693539	0.002771	-0.717658	-0.062949
39441	6.440937	0.772558	-1.011745	0.692703	0.003970	-0.718424	-0.063358
39442	7.363793	0.023322	-1.442830	0.690197	0.002629	-0.720618	-0.065811
39443	9.172369	-0.418048	-2.571438	0.687494	0.002848	-0.723053	-0.067372
39444	10.751842	0.567618	-2.212588	0.686090	0.003956	-0.724226	-0.069004
39445	11.580373	0.805119	-2.114005	0.684852	0.005716	-0.725213	-0.070783
39446	12.239253	1.278487	-1.913212	0.686487	0.007996	-0.723543	-0.071816
39447	12.295059	2.229258	0.663930	0.692265	0.008449	-0.717878	-0.073139
39448	12.847947	3.301740	2.972539	0.699645	0.004140	-0.710277	-0.077375
39449	11.912941	1.872601	0.589864	0.703543	-0.000209	-0.706015	-0.081053
39450	11.369002	-0.390825	-2.151969	0.706328	-0.002436	-0.703059	-0.082482
39451	10.534758	-1.443452	-1.606556	0.710143	-0.001401	-0.699512	-0.079863
39452	10.157380	-1.741144	-0.466604	0.713488	-0.000265	-0.696500	-0.076302
39453	10.329301	-0.812319	0.975102	0.716947	0.000654	-0.693240	-0.073517
39454	10.451602	2.081079	1.953417	0.719524	0.001343	-0.690708	-0.072148
39455	10.474036	4.161472	0.934714	0.719949	0.001506	-0.690365	-0.071184
39456	11.435966	3.263897	0.769380	0.720309	0.000874	-0.690117	-0.069941
39457	12.463679	1.133766	1.840277	0.720971	0.000880	-0.689621	-0.067997
39458	14.189808	0.476883	2.348876	0.721121	0.002689	-0.689716	-0.065337
39459	14.368446	0.948849	2.757710	0.721948	0.006141	-0.689103	-0.062371
39460	12.961948	1.750132	2.659212	0.722321	0.010538	-0.688966	-0.058876
39461	11.623664	2.451627	2.239765	0.722135	0.015328	-0.689428	-0.054534
39462	10.814546	2.056560	2.215202	0.721969	0.019210	-0.689788	-0.050835
39463	10.331875	1.852538	2.048512	0.721422	0.022485	-0.690495	-0.047547
39464	10.676307	1.836669	1.354359	0.720018	0.024892	-0.692038	-0.045142
39465	10.581196	2.149611	0.825626	0.718908	0.027233	-0.693204	-0.043568
39466	9.596460	2.388863	0.678676	0.718100	0.029798	-0.694012	-0.042323
39467	8.714812	2.129041	0.845412	0.717293	0.031933	-0.694796	-0.041598
39468	8.700285	1.521581	0.718403	0.715562	0.033874	-0.696514	-0.041134
39469	8.514965	1.036872	0.628213	0.714049	0.035431	-0.698013	-0.040709
39470	8.288466	0.907518	0.716255	0.711919	0.036217	-0.700149	-0.040644
39471	8.215536	0.989569	0.365372	0.709420	0.037132	-0.702651	-0.040317
39472	7.988270	1.097462	0.739688	0.706772	0.038377	-0.705257	-0.040178
39473	8.138756	1.480200	0.258897	0.703929	0.039883	-0.708025	-0.039918
39474	8.306203	1.679871	0.519175	0.701732	0.041204	-0.710159	-0.039348
39475	8.847495	1.560256	0.118795	0.699209	0.041744	-0.712644	-0.038752
39476	9.250300	1.617302	-0.292799	0.698129	0.041971	-0.713749	-0.037633
39477	8.703865	1.756931	0.354052	0.697705	0.042117	-0.714224	-0.036306
39478	7.950418	1.674786	0.582771	0.696308	0.041672	-0.715658	-0.035375
39479	8.532250	1.626155	0.077464	0.694518	0.041765	-0.717460	-0.033932
39480	8.588170	1.730074	0.382295	0.693999	0.041976	-0.718021	-0.032391
39481	8.268761	1.830148	0.511960	0.692591	0.042012	-0.719429	-0.031208
39482	8.227046	1.512903	-1.133591	0.688837	0.042287	-0.723070	-0.029762
39483	8.788096	1.681588	-1.546236	0.684865	0.042163	-0.726902	-0.028187
39484	8.781045	1.548446	-1.325362	0.682372	0.041458	-0.729334	-0.026857
39485	8.978905	1.335970	-1.833590	0.680036	0.041158	-0.731607	-0.024663
39486	8.940038	1.759594	-1.305885	0.679723	0.040497	-0.732012	-0.022269
39487	8.376188	1.462352	-0.468054	0.679766	0.039388	-0.732101	-0.019860
39488	7.760787	1.338582	-1.213912	0.677216	0.038206	-0.734590	-0.017219
39489	7.638806	1.226424	-2.071696	0.673877	0.035649	-0.737809	-0.016003
39490	7.809048	1.209745	-1.599104	0.671346	0.032431	-0.740273	-0.015479
39491	8.218091	1.103328	-1.744966	0.668075	0.029720	-0.743362	-0.014327
39492	8.815738	1.200151	-2.121133	0.664614	0.027956	-0.746567	-0.011982
39493	8.586939	1.217349	-2.552640	0.660419	0.026915	-0.750362	-0.008900
39494	8.595116	1.887663	-2.258200	0.656030	0.025692	-0.754272	-0.006172
39495	9.178236	0.866331	-1.968109	0.650940	0.021609	-0.758788	-0.007143
39496	11.876442	-1.141806	-2.596312	0.647440	0.019889	-0.761816	-0.007920
39497	13.746602	-0.912278	-0.486301	0.650774	0.018965	-0.758970	-0.009942
39498	13.121705	-1.837327	0.697386	0.655148	0.019122	-0.755162	-0.012114
39499	12.582166	-1.119271	1.316474	0.658300	0.022215	-0.752330	-0.012120
39500	11.870882	0.166079	0.962667	0.660561	0.026551	-0.750218	-0.011301
39501	11.813291	1.560955	1.045029	0.662154	0.030692	-0.748679	-0.009509
39502	12.224964	1.465820	0.750436	0.662666	0.032470	-0.748165	-0.008288
39503	12.306348	0.156752	0.956557	0.664300	0.033127	-0.746692	-0.007710
39504	10.975824	1.663704	1.356890	0.665728	0.034411	-0.745368	-0.006920
39505	9.644695	4.036397	0.745994	0.665543	0.031451	-0.745639	-0.009233
39506	8.378118	4.062808	0.522587	0.666076	0.024902	-0.745341	-0.013741
39507	8.914168	2.552201	0.530959	0.665793	0.016454	-0.745682	-0.020189
39508	10.407783	1.129942	0.725411	0.665841	0.007334	-0.745547	-0.027601
39509	11.199856	-0.367560	0.812921	0.665357	-0.002739	-0.745665	-0.035736
39510	10.962584	-1.134006	0.603349	0.664763	-0.013208	-0.745658	-0.043692
39511	9.471070	-1.000929	0.383355	0.664380	-0.023629	-0.745228	-0.051727
39512	8.378404	-0.917009	0.209482	0.663423	-0.034073	-0.745025	-0.060384
39513	8.325975	-1.539854	-0.009763	0.662577	-0.043301	-0.744556	-0.068936
39514	8.822200	-1.914659	-0.132749	0.662539	-0.050012	-0.743449	-0.076316
39515	9.265686	-1.895712	0.249685	0.663984	-0.054196	-0.741266	-0.081929
39516	9.275105	-1.661106	0.666049	0.664974	-0.057072	-0.739668	-0.086277
39517	10.034235	-0.911469	0.678884	0.666508	-0.058012	-0.737914	-0.088798
39518	9.319162	0.064358	0.938028	0.668550	-0.058321	-0.735829	-0.090528
39519	9.698629	0.232336	0.572667	0.669163	-0.059015	-0.735069	-0.091717
39520	9.896926	0.227223	0.092282	0.670316	-0.059318	-0.733947	-0.092085
39521	9.762616	0.292722	-0.102831	0.671217	-0.059466	-0.733109	-0.092101
39522	9.930321	0.204820	-0.303272	0.671400	-0.060035	-0.732881	-0.092213
39523	9.999429	0.337157	-0.683736	0.671407	-0.060926	-0.732789	-0.092306
39524	9.901368	0.048184	-0.610923	0.671862	-0.062034	-0.732223	-0.092751
39525	9.655845	0.154349	-0.443535	0.671985	-0.062993	-0.731945	-0.093406
39526	9.705857	0.166500	-0.636486	0.672249	-0.063308	-0.731636	-0.093714
39527	9.402627	0.078742	-0.522330	0.672665	-0.063333	-0.731244	-0.093771
39528	9.403371	0.119435	-0.441322	0.672776	-0.063258	-0.731202	-0.093349
39529	9.345132	0.083079	-0.523787	0.672935	-0.063084	-0.731132	-0.092877
39530	9.431899	0.013338	-0.618403	0.672893	-0.062561	-0.731259	-0.092525
39531	9.460215	0.046911	-0.592089	0.673180	-0.061639	-0.731095	-0.092360
39532	9.583915	-0.077527	-0.432404	0.673277	-0.060318	-0.731174	-0.091894
39533	10.005265	-0.359625	-0.542915	0.673294	-0.058501	-0.731452	-0.090729
39534	10.018205	-0.311263	-0.704698	0.673333	-0.056325	-0.731803	-0.088963
39535	10.036578	0.142664	-0.796541	0.673264	-0.053978	-0.732301	-0.086823
39536	10.112213	0.354665	-0.727029	0.673182	-0.051510	-0.732843	-0.084350
39537	10.201069	0.302058	-0.718317	0.673033	-0.049098	-0.733447	-0.081672
39538	9.967143	0.018402	-1.046645	0.672755	-0.046918	-0.734137	-0.079007
39539	10.099838	0.115865	-1.119789	0.672551	-0.044705	-0.734731	-0.076458
39540	10.387383	0.315959	-1.135040	0.672457	-0.042139	-0.735239	-0.073823
39541	10.401556	0.286599	-1.048288	0.672533	-0.039483	-0.735585	-0.071098
39542	10.248791	-0.031724	-1.120023	0.672342	-0.036691	-0.736188	-0.068099
39543	9.960348	0.024342	-0.997494	0.672323	-0.033563	-0.736654	-0.064777
39544	9.723917	0.238084	-0.845143	0.672105	-0.030635	-0.737259	-0.061525
39545	9.586126	0.380006	-0.737824	0.671596	-0.028080	-0.738062	-0.058601
39546	9.699281	0.364226	-0.829523	0.670910	-0.025470	-0.738997	-0.055809
39547	9.708030	0.340546	-0.888160	0.670371	-0.022517	-0.739795	-0.052912
39548	9.590568	0.162946	-1.018368	0.670005	-0.019416	-0.740422	-0.049906
39549	9.265992	0.108141	-1.085709	0.669694	-0.016099	-0.740992	-0.046705
39550	8.915745	0.114361	-1.264569	0.669240	-0.012827	-0.741657	-0.043573
39551	9.004870	0.252352	-0.912590	0.669092	-0.009524	-0.742010	-0.040584
39552	9.238517	0.158265	-0.796357	0.668886	-0.005945	-0.742389	-0.037600
39553	9.504639	0.367736	-0.810370	0.668665	-0.002253	-0.742752	-0.034655
39554	9.756882	0.360710	-0.981735	0.668362	0.001357	-0.743158	-0.031742
39555	9.962105	0.277603	-1.009832	0.668429	0.004969	-0.743207	-0.028664
39556	9.881856	0.255973	-0.956602	0.668584	0.008578	-0.743150	-0.025496
39557	9.891458	0.353244	-0.954697	0.668693	0.012102	-0.743106	-0.022298
39558	9.929827	0.562337	-0.931897	0.668768	0.015528	-0.743063	-0.019127
39559	9.738114	0.446566	-1.059642	0.668737	0.018856	-0.743089	-0.015915
39560	9.805569	0.254031	-1.443123	0.668244	0.021955	-0.743505	-0.012962
39561	9.884101	0.058421	-1.556760	0.668124	0.024975	-0.743561	-0.010178
39562	9.923490	0.219487	-1.459025	0.668110	0.028437	-0.743484	-0.007151
39563	9.665752	0.360684	-1.249720	0.668523	0.032159	-0.742985	-0.004021
39564	9.410894	0.331457	-1.107538	0.668912	0.035995	-0.742469	-0.000729
39565	9.102680	0.492118	-1.158198	0.668920	0.040085	-0.742247	0.002935
39566	9.318029	0.597764	-1.127440	0.669031	0.043997	-0.741903	0.006484
39567	9.419789	0.719613	-0.950416	0.669342	0.047644	-0.741359	0.009907
39568	9.537699	0.860621	-0.922044	0.669368	0.050804	-0.741077	0.013071
39569	9.611562	0.883359	-0.820907	0.669568	0.053357	-0.740663	0.015819
39570	9.755206	0.640792	-0.718202	0.669428	0.055654	-0.740560	0.018435
39571	9.742988	0.410819	-0.957440	0.669389	0.057717	-0.740374	0.020828
39572	9.861243	0.611957	-0.799294	0.669611	0.059590	-0.739962	0.022952
39573	9.850217	0.703463	-0.780403	0.669849	0.061099	-0.739566	0.024731
39574	10.180613	1.011834	-0.844492	0.669960	0.062090	-0.739336	0.026098
39575	10.302187	0.958060	-0.890817	0.670289	0.062662	-0.738948	0.027235
39576	10.277966	0.939637	-1.087266	0.670606	0.062887	-0.738601	0.028323
39577	10.114676	0.841861	-0.807487	0.671189	0.062431	-0.738080	0.029088
39578	9.908292	0.642423	-0.997016	0.671374	0.061569	-0.737971	0.029407
39579	9.923312	0.686261	-0.853639	0.671846	0.060224	-0.737660	0.029235
39580	9.764902	0.766351	-0.732793	0.672177	0.058454	-0.737526	0.028570
39581	9.878576	0.657481	-0.830133	0.672498	0.056510	-0.737418	0.027712
39582	9.824255	0.435841	-0.806696	0.672725	0.054523	-0.737393	0.026826
39583	9.799632	0.307569	-0.826047	0.672866	0.052529	-0.737436	0.026071
39584	9.674488	0.409852	-0.668498	0.673033	0.050517	-0.737448	0.025410
39585	9.620035	0.457755	-0.654821	0.673056	0.048490	-0.737588	0.024654
39586	9.503442	0.675750	-0.955821	0.672902	0.046501	-0.737886	0.023785
39587	9.493532	0.787233	-1.047017	0.672838	0.044440	-0.738105	0.022711
39588	9.722098	0.645709	-1.178778	0.672731	0.042187	-0.738376	0.021333
39589	10.081298	0.518115	-1.118276	0.672926	0.039649	-0.738387	0.019569
39590	10.005800	0.424777	-1.164861	0.673043	0.036944	-0.738470	0.017589
39591	10.137165	0.404837	-1.113092	0.673254	0.033941	-0.738476	0.015155
39592	9.918089	0.367713	-1.139994	0.673617	0.030926	-0.738328	0.012471
39593	10.008276	0.385946	-1.131014	0.674206	0.027767	-0.737961	0.009406
39594	10.145721	0.348525	-1.351002	0.674763	0.024497	-0.737603	0.006110
39595	10.207632	0.641945	-1.218678	0.675667	0.020984	-0.736903	0.002640
39596	9.745701	0.491877	-1.264006	0.676381	0.017019	-0.736354	-0.001274
39597	9.701883	0.335327	-1.425169	0.676783	0.013240	-0.736044	-0.005299
39598	9.700001	0.419910	-1.092594	0.677575	0.009640	-0.735329	-0.009511
39599	9.685640	0.235424	-0.828533	0.678383	0.006009	-0.734548	-0.014124
39600	9.742104	0.245480	-0.666048	0.679148	0.002561	-0.733754	-0.018894
39601	9.575309	0.428116	-0.342889	0.679791	-0.000736	-0.733022	-0.023718
39602	9.557598	0.850979	-0.626869	0.679355	-0.004212	-0.733233	-0.028786
39603	9.705137	1.015369	-0.892093	0.678580	-0.008172	-0.733691	-0.034053
39604	10.192980	0.947002	-1.127593	0.677508	-0.012425	-0.734362	-0.039252
39605	10.235200	0.490503	-1.290238	0.677102	-0.016636	-0.734380	-0.044060
39606	9.792700	0.455579	-1.177218	0.676807	-0.021115	-0.734247	-0.048660
39607	9.551574	0.576072	-1.169112	0.676478	-0.026522	-0.734025	-0.053684
39608	9.350455	1.114830	-0.580047	0.676198	-0.032695	-0.733606	-0.059243
39609	9.333823	1.242662	-0.772308	0.674763	-0.039373	-0.734083	-0.065315
39610	9.553243	0.852276	-1.178542	0.672707	-0.045908	-0.735035	-0.071283
39611	9.508049	0.462377	-1.495597	0.670054	-0.052185	-0.736474	-0.076884
39612	9.633315	0.451684	-1.522151	0.667131	-0.058550	-0.738079	-0.082143
39613	9.549046	0.807019	-1.170247	0.664177	-0.065994	-0.739469	-0.087747
39614	9.310182	0.919175	-1.328996	0.660548	-0.074616	-0.741134	-0.093963
39615	9.029301	0.822869	-1.429704	0.656371	-0.083402	-0.743085	-0.100231
39616	8.747703	0.509211	-1.580288	0.651721	-0.092296	-0.745211	-0.106778
39617	8.793790	0.183476	-1.741585	0.646691	-0.101263	-0.747473	-0.113224
39618	9.030590	0.112035	-1.602794	0.641824	-0.110603	-0.749369	-0.119476
39619	9.090661	0.208606	-1.210911	0.636987	-0.120928	-0.750804	-0.126161
39620	9.051372	0.248564	-1.230094	0.631603	-0.131772	-0.752349	-0.132983
39621	8.968517	0.224534	-1.340727	0.626283	-0.142912	-0.753440	-0.140263
39622	8.809269	-0.008797	-1.423750	0.620757	-0.154303	-0.754288	-0.147993
39623	9.132815	-0.267198	-1.791870	0.614777	-0.165098	-0.755470	-0.155100
39624	9.715019	-0.273976	-1.653691	0.609649	-0.175717	-0.755699	-0.162389
39625	10.027271	-0.138165	-1.391586	0.604878	-0.186480	-0.755353	-0.169677
39626	9.965433	-0.172998	-1.510876	0.600265	-0.197552	-0.754467	-0.177301
39627	9.638123	-0.011342	-1.963511	0.595554	-0.208421	-0.753411	-0.185060
39628	9.538743	0.595666	-2.027136	0.591685	-0.219019	-0.751492	-0.192872
39629	9.645999	0.786622	-1.917711	0.587417	-0.230723	-0.749065	-0.201517
39630	10.294364	0.871636	-2.263756	0.582372	-0.243232	-0.746591	-0.210435
39631	10.406211	1.154651	-2.334557	0.578306	-0.256175	-0.742473	-0.220615
39632	10.122037	0.921973	-2.286700	0.574135	-0.269488	-0.737680	-0.231458
39633	10.161201	0.311484	-2.420541	0.569714	-0.283250	-0.732215	-0.243014
39634	9.576153	0.087169	-1.967046	0.565813	-0.296737	-0.725921	-0.254639
39635	9.026686	0.754954	-1.824231	0.560567	-0.310812	-0.719894	-0.266296
39636	9.068195	0.955801	-2.208132	0.554241	-0.325154	-0.713960	-0.278123
39637	9.276600	0.630511	-2.653396	0.547657	-0.339019	-0.707820	-0.290048
39638	9.323184	0.120777	-2.935123	0.541418	-0.351843	-0.701424	-0.301790
39639	9.059309	-0.378862	-2.804515	0.534412	-0.364879	-0.694937	-0.313577
39640	9.404091	-0.925340	-3.205720	0.526254	-0.378104	-0.689192	-0.324205
39641	9.685935	-0.227216	-2.879824	0.519773	-0.389520	-0.682984	-0.334131
39642	9.684725	-0.166291	-2.789086	0.513392	-0.400286	-0.676761	-0.343795
39643	9.907248	-0.244000	-2.607077	0.507126	-0.410341	-0.671070	-0.352290
39644	10.079909	-0.482203	-2.907657	0.501377	-0.419799	-0.665539	-0.359788
39645	9.866839	-0.607171	-3.187695	0.496369	-0.428761	-0.659595	-0.367037
39646	9.308400	-0.642380	-2.896990	0.491874	-0.437026	-0.653949	-0.373389
39647	9.296334	-0.767391	-3.536065	0.487675	-0.444042	-0.650071	-0.377370
39648	9.820752	-0.471109	-3.168480	0.484816	-0.449408	-0.646314	-0.381136
39649	9.324244	-1.171256	-2.527481	0.482791	-0.453620	-0.642989	-0.384326
39650	9.373481	-0.829313	-2.462758	0.480540	-0.457294	-0.640811	-0.386425
39651	9.243004	-1.150298	-3.124082	0.479268	-0.459635	-0.639423	-0.387525
39652	8.891205	-0.665666	-2.453684	0.478600	-0.460955	-0.638598	-0.388143
39653	9.060656	-0.168536	-2.294855	0.477942	-0.461602	-0.638835	-0.387794
39654	9.323412	0.081470	-2.690433	0.477923	-0.461848	-0.638875	-0.387460
39655	9.571987	0.702606	-2.714300	0.478627	-0.461647	-0.638658	-0.387189
39656	10.040210	0.977229	-2.259538	0.478996	-0.461920	-0.638131	-0.387274
39657	10.110130	0.487094	-2.231818	0.479170	-0.462368	-0.637818	-0.387040
39658	9.564819	0.683259	-2.436792	0.479681	-0.462429	-0.637533	-0.386805
39659	9.348435	0.364508	-2.159679	0.479946	-0.462621	-0.637322	-0.386593
39660	9.209089	0.409936	-2.380634	0.479883	-0.462975	-0.637301	-0.386283
39661	9.367220	0.445024	-2.916680	0.479917	-0.463158	-0.637370	-0.385906
39662	9.568871	0.477621	-2.475416	0.480603	-0.462865	-0.637161	-0.385750
39663	9.628518	0.484368	-1.950468	0.481186	-0.462654	-0.636965	-0.385600
39664	9.624914	0.620515	-2.257228	0.481594	-0.462653	-0.636530	-0.385809
39665	9.369332	0.694206	-2.092183	0.482155	-0.462615	-0.635771	-0.386405
39666	9.288290	0.701452	-1.910026	0.482210	-0.463062	-0.634897	-0.387238
39667	9.394251	0.656903	-2.205554	0.481818	-0.463851	-0.634129	-0.388039
39668	9.561357	0.669508	-2.341328	0.481747	-0.464417	-0.633279	-0.388837
39669	9.532261	0.831167	-2.140914	0.481871	-0.464922	-0.632180	-0.389866
39670	9.607083	0.785128	-2.212186	0.481634	-0.465753	-0.631036	-0.391020
39671	9.737688	0.784674	-2.282828	0.481184	-0.466813	-0.629794	-0.392310
39672	9.937696	0.936291	-2.305535	0.480493	-0.468282	-0.628100	-0.394119
39673	9.761029	0.821059	-2.371168	0.479775	-0.470085	-0.625621	-0.396780
39674	9.452676	0.804349	-2.008642	0.479057	-0.471819	-0.623003	-0.399699
39675	9.266763	0.659233	-1.859727	0.477897	-0.473852	-0.620536	-0.402510
39676	9.541311	0.465712	-1.885845	0.476784	-0.476046	-0.617809	-0.405425
39677	9.381565	0.177220	-1.925928	0.476192	-0.477964	-0.614951	-0.408200
39678	9.581161	-0.042224	-1.892154	0.474950	-0.480401	-0.612098	-0.411063
39679	9.659352	-0.237540	-1.833303	0.474007	-0.482560	-0.609097	-0.414070
39680	9.358618	-0.305531	-2.290421	0.472589	-0.484887	-0.606645	-0.416565
39681	9.337474	-0.109150	-2.212611	0.472189	-0.486126	-0.604267	-0.419023
39682	9.225643	0.114603	-2.059505	0.471869	-0.487207	-0.602256	-0.421018
39683	9.797691	0.385705	-1.957747	0.471714	-0.488204	-0.600352	-0.422754
39684	9.689239	0.503675	-2.144950	0.471931	-0.488895	-0.598482	-0.424361
39685	9.655338	0.320408	-2.332562	0.471822	-0.489671	-0.596976	-0.425707
39686	9.685627	0.071067	-2.138329	0.472154	-0.489978	-0.595493	-0.427061
39687	9.701270	0.248363	-2.071178	0.472637	-0.490097	-0.594290	-0.428063
39688	9.630695	0.424617	-2.021348	0.472946	-0.490385	-0.592868	-0.429363
39689	9.552129	0.516007	-1.758633	0.473322	-0.490571	-0.591523	-0.430588
39690	9.538074	0.533653	-1.717331	0.473430	-0.491002	-0.590294	-0.431664
39691	9.622004	0.511101	-1.838650	0.473576	-0.491358	-0.589163	-0.432643
39692	9.562740	0.373469	-1.797760	0.473904	-0.491477	-0.588116	-0.433573
39693	9.524019	0.309034	-1.784956	0.474142	-0.491607	-0.587108	-0.434530
39694	9.549667	0.422442	-1.728683	0.474438	-0.491584	-0.586236	-0.435409
39695	9.538366	0.483517	-1.593733	0.474665	-0.491447	-0.585349	-0.436509
39696	9.677851	0.533195	-1.549372	0.474976	-0.491125	-0.584483	-0.437692
39697	9.815446	0.671191	-1.408304	0.474936	-0.491146	-0.583387	-0.439170
39698	9.715502	0.570859	-1.545648	0.474470	-0.491616	-0.582067	-0.440897
39699	9.377419	0.323231	-1.515811	0.474309	-0.491653	-0.580851	-0.442630
39700	9.217360	0.156918	-1.500336	0.474151	-0.491487	-0.580089	-0.443981
39701	9.439119	0.086327	-1.580164	0.474055	-0.491229	-0.579513	-0.445119
39702	9.605794	0.134955	-1.576185	0.474011	-0.491018	-0.578867	-0.446238
39703	9.753467	0.189034	-1.575652	0.473995	-0.490859	-0.578180	-0.447319
39704	9.838546	0.163840	-1.662230	0.474258	-0.490457	-0.577412	-0.448472
39705	10.022615	0.162880	-1.214136	0.474636	-0.490001	-0.576211	-0.450112
39706	9.756381	0.141910	-1.226984	0.474685	-0.489864	-0.574993	-0.451763
39707	9.388410	0.244536	-1.342559	0.474421	-0.489942	-0.573594	-0.453731
39708	9.058816	0.323437	-1.335778	0.474138	-0.489777	-0.572657	-0.455385
39709	9.208774	0.269773	-1.420094	0.473420	-0.489888	-0.571826	-0.457054
39710	9.387619	0.099848	-1.245320	0.472877	-0.489851	-0.570892	-0.458819
39711	9.466666	0.054271	-0.942454	0.472216	-0.489942	-0.570084	-0.460405
39712	9.700292	0.176717	-1.167747	0.471318	-0.490229	-0.569615	-0.461598
39713	9.631290	0.206787	-1.218276	0.470563	-0.490421	-0.568680	-0.463315
39714	9.343958	0.029342	-1.137801	0.469349	-0.491033	-0.567276	-0.465614
39715	9.206388	-0.379204	-1.408546	0.468180	-0.491483	-0.566003	-0.467860
39716	9.410141	0.048213	-1.110008	0.467499	-0.491214	-0.565268	-0.469708
39717	10.035067	0.689775	-1.165263	0.466472	-0.491138	-0.564723	-0.471460
39718	10.311693	0.752197	-0.972225	0.465670	-0.491182	-0.563725	-0.473397
39719	10.201302	0.684678	-0.989411	0.464692	-0.491715	-0.562604	-0.475136
39720	10.142851	0.426943	-1.401824	0.463662	-0.492428	-0.561539	-0.476662
39721	10.294837	0.656081	-1.219305	0.462895	-0.493109	-0.559986	-0.478527
39722	10.289024	0.655787	-0.979166	0.462310	-0.494045	-0.557755	-0.480727
39723	9.722971	0.683460	-0.885974	0.461939	-0.494808	-0.555417	-0.483000
39724	9.113346	0.729312	-0.640416	0.461619	-0.495211	-0.553263	-0.485361
39725	8.904310	0.781840	-0.600860	0.461034	-0.495686	-0.551695	-0.487213
39726	9.303931	0.680211	-0.921148	0.460282	-0.496461	-0.550211	-0.488810
39727	9.583147	0.436138	-1.199520	0.459702	-0.497090	-0.548894	-0.490195
39728	9.575404	0.174215	-1.172150	0.459237	-0.497549	-0.547398	-0.491836
39729	9.469976	0.119540	-1.083028	0.459121	-0.497492	-0.546533	-0.492962
39730	9.234389	0.203560	-1.137655	0.458945	-0.497078	-0.546024	-0.494106
39731	9.288520	0.333989	-1.154190	0.459065	-0.496135	-0.545964	-0.495008
39732	9.549775	0.583684	-1.150527	0.458978	-0.495433	-0.546105	-0.495637
39733	9.743503	0.650377	-1.238605	0.459073	-0.494909	-0.546212	-0.495954
39734	9.657856	0.563302	-1.115404	0.459316	-0.494445	-0.546256	-0.496143
39735	9.605543	0.684313	-1.000697	0.459585	-0.493980	-0.546473	-0.496117
39736	9.631657	0.636007	-1.083873	0.459555	-0.493736	-0.546706	-0.496131
39737	9.744842	0.829472	-1.037134	0.459734	-0.493268	-0.547263	-0.495818
39738	9.872835	1.044932	-0.972103	0.460080	-0.492711	-0.547735	-0.495528
39739	9.949734	1.014442	-1.006876	0.460390	-0.492324	-0.548136	-0.495182
39740	9.732902	0.965035	-0.977823	0.460925	-0.491842	-0.548246	-0.495042
39741	9.390898	1.159521	-0.736056	0.461507	-0.491218	-0.548471	-0.494869
39742	9.299243	1.323529	-0.853059	0.461436	-0.491063	-0.548870	-0.494647
39743	9.469864	1.485321	-0.821130	0.461032	-0.491163	-0.549220	-0.494537
39744	9.558204	1.542426	-0.839406	0.460294	-0.491664	-0.549230	-0.494714
39745	9.666327	1.501432	-0.941980	0.459237	-0.492479	-0.549205	-0.494914
39746	9.880561	1.318937	-0.822692	0.457951	-0.493474	-0.548753	-0.495615
39747	9.927344	0.931709	-1.101303	0.456374	-0.494492	-0.548866	-0.495930
39748	10.681436	1.018033	-1.293077	0.454729	-0.495153	-0.549473	-0.496109
39749	11.010367	1.465369	-1.229947	0.453052	-0.495727	-0.550039	-0.496443
39750	10.819200	1.478989	-1.386282	0.451102	-0.496685	-0.550268	-0.497006
39751	10.290760	1.309600	-1.530742	0.449433	-0.497432	-0.550427	-0.497595
39752	10.257590	1.358738	-1.288254	0.447931	-0.497863	-0.550581	-0.498348
39753	10.443617	1.442337	-1.205467	0.446348	-0.498347	-0.550874	-0.498962
39754	10.428782	1.538968	-1.056271	0.444722	-0.499009	-0.550656	-0.499991
39755	10.242905	1.605286	-1.034521	0.442851	-0.499896	-0.550538	-0.500894
39756	10.235792	1.599063	-1.129690	0.440766	-0.500880	-0.550419	-0.501879
39757	10.222284	1.717478	-1.205902	0.438862	-0.501681	-0.550294	-0.502885
39758	9.954182	1.930453	-1.037218	0.437107	-0.502345	-0.550030	-0.504038
39759	9.672192	2.101397	-1.124985	0.435185	-0.503097	-0.549748	-0.505256
39760	9.534656	2.123237	-1.032688	0.432972	-0.504095	-0.549111	-0.506853
39761	9.630949	1.926871	-0.966763	0.430630	-0.505296	-0.548128	-0.508714
39762	9.574751	2.016870	-0.863588	0.428352	-0.506399	-0.546919	-0.510837
39763	9.198426	2.067212	-0.671751	0.426020	-0.507332	-0.545494	-0.513379
39764	8.817393	2.208915	-0.691817	0.423070	-0.508746	-0.544123	-0.515867
39765	8.805223	2.311864	-0.679370	0.419713	-0.510720	-0.542520	-0.518342
39766	8.831204	2.250098	-0.808002	0.415946	-0.513433	-0.540704	-0.520591
39767	8.763756	2.147998	-1.352422	0.411558	-0.517248	-0.538177	-0.522916
39768	8.937935	1.943203	-1.782212	0.407307	-0.521546	-0.534581	-0.525656
39769	8.864331	1.858281	-1.403538	0.403213	-0.526040	-0.530514	-0.528447
