// Start Time: Unknown
// Update Rate: 60.0Hz
// Filter Profile: human (46.1)
// Option Flags: AHS Disabled ICC Disabled 
// Firmware Version: 4.3.5
PacketCounter	Acc_X	Acc_Y	Acc_Z	Quat_q0	Quat_q1	Quat_q2	Quat_q3
55285	0.021829	0.099336	9.776752	0.999651	0.005478	-0.001701	-0.025791
55286	0.035290	0.112047	9.816384	0.999651	0.005481	-0.001689	-0.025790
55287	0.024082	0.102351	9.817934	0.999651	0.005488	-0.001696	-0.025787
55288	0.037897	0.087952	9.817418	0.999651	0.005493	-0.001701	-0.025801
55289	0.031076	0.096295	9.827969	0.999651	0.005484	-0.001706	-0.025794
55290	0.034330	0.071563	9.829010	0.999651	0.005488	-0.001701	-0.025796
55291	0.029784	0.096922	9.827967	0.999651	0.005482	-0.001716	-0.025804
55292	0.043596	0.082360	9.827459	0.999650	0.005486	-0.001711	-0.025806
55293	0.032745	0.088511	9.796821	0.999651	0.005493	-0.001708	-0.025800
55294	0.027854	0.098142	9.827961	0.999651	0.005494	-0.001722	-0.025799
55295	0.033451	0.090543	9.817411	0.999651	0.005499	-0.001713	-0.025791
55296	0.028814	0.115813	9.816362	0.999651	0.005482	-0.001723	-0.025793
55297	0.025949	0.099118	9.827956	0.999651	0.005494	-0.001721	-0.025797
55298	0.035378	0.066489	9.818459	0.999651	0.005488	-0.001715	-0.025794
55299	0.024394	0.099837	9.827953	0.999651	0.005487	-0.001715	-0.025788
55300	0.026130	0.089804	9.776219	0.999651	0.005486	-0.001715	-0.025781
55301	0.018940	0.082258	9.818954	0.999651	0.005478	-0.001724	-0.025777
55302	0.039335	0.102967	9.815856	0.999651	0.005488	-0.001736	-0.025776
55303	0.019734	0.084186	9.839544	0.999651	0.005479	-0.001728	-0.025792
55304	0.044129	0.095601	9.805314	0.999651	0.005481	-0.001719	-0.025801
55305	0.016539	0.083583	9.818947	0.999651	0.005473	-0.001747	-0.025796
55306	0.032651	0.086167	9.806857	0.999651	0.005490	-0.001730	-0.025794
55307	0.060664	0.100101	9.813821	0.999651	0.005482	-0.001714	-0.025788
55308	0.041236	0.097051	9.805312	0.999651	0.005480	-0.001713	-0.025780
55309	0.036178	0.106558	9.836445	0.999651	0.005476	-0.001711	-0.025781
55310	0.023259	0.095266	9.817395	0.999651	0.005449	-0.001720	-0.025791
55311	0.045295	0.073656	9.826975	0.999651	0.005450	-0.001722	-0.025777
55312	0.040141	0.083122	9.858108	0.999651	0.005440	-0.001709	-0.025790
55313	0.046055	0.091215	9.815375	0.999651	0.005444	-0.001718	-0.025779
55314	0.020131	0.080554	9.849589	0.999651	0.005452	-0.001707	-0.025788
55315	0.019734	0.096716	9.817389	0.999651	0.005441	-0.001705	-0.025788
55316	0.045735	0.093465	9.835971	0.999651	0.005442	-0.001699	-0.025796
55317	0.028263	0.091649	9.848045	0.999651	0.005438	-0.001695	-0.025797
55318	0.025744	0.090737	9.827448	0.999650	0.005434	-0.001703	-0.025819
55319	0.023150	0.089904	9.806851	0.999651	0.005437	-0.001691	-0.025808
55320	0.030561	0.083378	9.816915	0.999651	0.005428	-0.001692	-0.025801
55321	0.029942	0.083559	9.816916	0.999651	0.005419	-0.001695	-0.025793
55322	0.060269	0.098559	9.844500	0.999651	0.005423	-0.001704	-0.025784
55323	0.020612	0.091039	9.806846	0.999651	0.005420	-0.001700	-0.025785
55324	0.009321	0.108663	9.848496	0.999651	0.005428	-0.001710	-0.025794
55325	0.023611	0.110066	9.815830	0.999651	0.005428	-0.001716	-0.025790
55326	0.027055	0.085379	9.816908	0.999651	0.005427	-0.001720	-0.025794
55327	0.032681	0.077658	9.806381	0.999651	0.005423	-0.001718	-0.025796
55328	0.039932	0.098612	9.856562	0.999651	0.005427	-0.001723	-0.025810
55329	0.031458	0.078347	9.806380	0.999651	0.005418	-0.001726	-0.025802
55330	0.026113	0.087885	9.837501	0.999651	0.005424	-0.001695	-0.025793
55331	0.041920	0.090462	9.825441	0.999651	0.005424	-0.001701	-0.025789
55332	0.029011	0.079534	9.806378	0.999652	0.005433	-0.001702	-0.025776
55333	0.022060	0.087954	9.816898	0.999651	0.005429	-0.001703	-0.025788
55334	0.027342	0.107536	9.846481	0.999651	0.005416	-0.001697	-0.025786
55335	0.031023	0.098576	9.815363	0.999651	0.005419	-0.001697	-0.025797
55336	0.028043	0.082020	9.826973	0.999651	0.005426	-0.001695	-0.025792
55337	0.041959	0.067615	9.826531	0.999651	0.005429	-0.001713	-0.025804
55338	0.047783	0.103117	9.823902	0.999650	0.005422	-0.001708	-0.025821
55339	0.009430	0.080820	9.839020	0.999651	0.005418	-0.001702	-0.025811
55340	0.035673	0.093444	9.825437	0.999651	0.005414	-0.001690	-0.025799
55341	0.020716	0.081121	9.785774	0.999651	0.005411	-0.001686	-0.025800
55342	0.036230	0.095105	9.846036	0.999651	0.005396	-0.001711	-0.025810
55343	0.021592	0.082848	9.806370	0.999651	0.005409	-0.001701	-0.025811
55344	0.041275	0.087805	9.835519	0.999651	0.005400	-0.001703	-0.025804
55345	0.013957	0.091496	9.816881	0.999651	0.005398	-0.001705	-0.025807
55346	0.030009	0.094064	9.804835	0.999651	0.005405	-0.001701	-0.025802
55347	0.035318	0.113904	9.834413	0.999651	0.005404	-0.001706	-0.025797
55348	0.036874	0.088096	9.814918	0.999651	0.005410	-0.001702	-0.025789
55349	0.032117	0.113523	9.813810	0.999651	0.005409	-0.001701	-0.025783
55350	0.018678	0.086616	9.826955	0.999652	0.005402	-0.001693	-0.025779
55351	0.026021	0.079998	9.837045	0.999652	0.005392	-0.001688	-0.025769
55352	0.025173	0.080143	9.837046	0.999652	0.005383	-0.001674	-0.025783
55353	0.033116	0.089396	9.814919	0.999651	0.005384	-0.001693	-0.025794
55354	0.051189	0.093215	9.823482	0.999651	0.005390	-0.001696	-0.025799
55355	0.017485	0.105028	9.815329	0.999651	0.005386	-0.001696	-0.025800
55356	0.018729	0.106560	9.835926	0.999651	0.005386	-0.001705	-0.025807
55357	0.028582	0.117169	9.834396	0.999651	0.005391	-0.001707	-0.025811
55358	0.038233	0.084457	9.825007	0.999650	0.005383	-0.001700	-0.025827
55359	0.054370	0.086956	9.812977	0.999651	0.005387	-0.001715	-0.025819
55360	0.028843	0.091879	9.814910	0.999650	0.005377	-0.001700	-0.025832
55361	0.042592	0.077340	9.814504	0.999651	0.005380	-0.001709	-0.025821
55362	0.037948	0.102801	9.813382	0.999651	0.005383	-0.001712	-0.025824
55363	0.026877	0.093044	9.814904	0.999650	0.005386	-0.001710	-0.025835
55364	0.036593	0.103620	9.813379	0.999650	0.005384	-0.001710	-0.025827
55365	0.039945	0.078884	9.814503	0.999650	0.005377	-0.001706	-0.025835
55366	0.035107	0.104134	9.813379	0.999650	0.005370	-0.001703	-0.025843
55367	0.036295	0.105850	9.833976	0.999650	0.005391	-0.001713	-0.025837
55368	0.033763	0.105075	9.813373	0.999650	0.005381	-0.001699	-0.025849
55369	0.053278	0.110026	9.842555	0.999650	0.005387	-0.001697	-0.025843
55370	0.040403	0.098994	9.823475	0.999650	0.005384	-0.001699	-0.025845
55371	0.021175	0.095954	9.814890	0.999650	0.005387	-0.001694	-0.025846
55372	0.036666	0.082734	9.835101	0.999650	0.005385	-0.001685	-0.025837
55373	0.054972	0.102249	9.811460	0.999650	0.005385	-0.001693	-0.025833
55374	0.031208	0.108507	9.833964	0.999651	0.005390	-0.001686	-0.025814
55375	0.012009	0.105440	9.825373	0.999651	0.005382	-0.001696	-0.025810
55376	0.027758	0.092133	9.845590	0.999651	0.005379	-0.001699	-0.025812
55377	0.034065	0.100095	9.802869	0.999651	0.005367	-0.001714	-0.025801
55378	0.028863	0.066409	9.826127	0.999651	0.005374	-0.001696	-0.025807
55379	0.032562	0.100805	9.802866	0.999651	0.005372	-0.001701	-0.025810
55380	0.041749	0.095611	9.833579	0.999651	0.005373	-0.001689	-0.025808
55381	0.014232	0.099278	9.814870	0.999651	0.005366	-0.001684	-0.025815
55382	0.028077	0.084678	9.814496	0.999651	0.005357	-0.001692	-0.025819
55383	0.027275	0.085083	9.814495	0.999651	0.005370	-0.001670	-0.025823
55384	0.032314	0.104814	9.844065	0.999651	0.005346	-0.001678	-0.025815
55385	0.031709	0.105064	9.844065	0.999651	0.005359	-0.001676	-0.025820
55386	0.037315	0.097571	9.833577	0.999651	0.005363	-0.001671	-0.025821
55387	0.042933	0.089979	9.823093	0.999648	0.005510	-0.001710	-0.025907
55388	0.031937	0.080057	9.824608	0.999648	0.005499	-0.001719	-0.025909
55389	0.031330	0.080352	9.824607	0.999647	0.005501	-0.001718	-0.025919
55390	0.022552	0.087495	9.814485	0.999647	0.005498	-0.001722	-0.025922
55391	0.017783	0.112803	9.813330	0.999647	0.005493	-0.001719	-0.025922
55392	0.039827	0.091658	9.823090	0.999647	0.005501	-0.001730	-0.025920
55393	0.035045	0.117065	9.821932	0.999647	0.005496	-0.001721	-0.025918
55394	0.028646	0.097830	9.792363	0.999648	0.005491	-0.001737	-0.025917
55395	0.033976	0.074410	9.814123	0.999648	0.005493	-0.001730	-0.025916
55396	0.041309	0.111192	9.832053	0.999648	0.005484	-0.001734	-0.025909
55397	0.019909	0.091072	9.835076	0.999648	0.005488	-0.001737	-0.025912
55398	0.031936	0.075441	9.814122	0.999648	0.005486	-0.001732	-0.025893
55399	0.035320	0.093959	9.823086	0.999648	0.005477	-0.001741	-0.025887
55400	0.020454	0.065613	9.815634	0.999648	0.005458	-0.001751	-0.025889
55401	0.034360	0.094295	9.823086	0.999649	0.005461	-0.001759	-0.025877
55402	0.027384	0.102561	9.833559	0.999649	0.005447	-0.001757	-0.025884
55403	0.026582	0.102699	9.833560	0.999649	0.005439	-0.001746	-0.025889
55404	0.040765	0.103894	9.800976	0.999649	0.005434	-0.001742	-0.025889
55405	0.023274	0.102106	9.812954	0.999648	0.005445	-0.001738	-0.025901
55406	0.009929	0.075214	9.826101	0.999648	0.005432	-0.001736	-0.025909
55407	0.025837	0.077836	9.814121	0.999648	0.005451	-0.001719	-0.025898
55408	0.024456	0.105930	9.854152	0.999649	0.005453	-0.001726	-0.025886
55409	0.028361	0.096937	9.823079	0.999648	0.005442	-0.001710	-0.025897
55410	0.027530	0.097149	9.823080	0.999648	0.005437	-0.001708	-0.025897
55411	0.021009	0.078072	9.793513	0.999648	0.005449	-0.001700	-0.025899
55412	0.015472	0.087807	9.824581	0.999648	0.005447	-0.001683	-0.025902
55413	0.014571	0.088266	9.824578	0.999648	0.005457	-0.001675	-0.025901
55414	0.026491	0.072742	9.803647	0.999648	0.005460	-0.001666	-0.025890
55415	0.041867	0.102768	9.831706	0.999648	0.005445	-0.001670	-0.025898
55416	0.016388	0.107788	9.833528	0.999648	0.005470	-0.001675	-0.025899
55417	0.030188	0.093569	9.833204	0.999648	0.005463	-0.001665	-0.025895
55418	0.027738	0.092484	9.812601	0.999648	0.005449	-0.001668	-0.025903
55419	0.028898	0.093970	9.833204	0.999648	0.005446	-0.001672	-0.025905
55420	0.020111	0.101017	9.823059	0.999648	0.005440	-0.001667	-0.025903
55421	0.044288	0.096772	9.821242	0.999648	0.005435	-0.001665	-0.025902
55422	0.025134	0.093579	9.812597	0.999648	0.005433	-0.001666	-0.025905
55423	0.032653	0.087180	9.822743	0.999649	0.005433	-0.001667	-0.025889
55424	0.029568	0.070606	9.834391	0.999648	0.005437	-0.001645	-0.025901
55425	0.037519	0.079994	9.812284	0.999648	0.005435	-0.001663	-0.025906
55426	0.015858	0.103046	9.823045	0.999649	0.005422	-0.001639	-0.025894
55427	0.021408	0.095272	9.812590	0.999649	0.005419	-0.001643	-0.025896
55428	0.022497	0.096868	9.833193	0.999649	0.005417	-0.001641	-0.025888
55429	0.023614	0.098390	9.853797	0.999649	0.005404	-0.001646	-0.025887
55430	0.036340	0.098363	9.800634	0.999649	0.005406	-0.001646	-0.025897
55431	0.028692	0.090950	9.843343	0.999649	0.005392	-0.001642	-0.025883
55432	0.007859	0.086177	9.814083	0.999650	0.005364	-0.001650	-0.025871
55433	0.028157	0.107001	9.811085	0.999650	0.005383	-0.001666	-0.025864
55434	0.027078	0.091807	9.843339	0.999650	0.005374	-0.001659	-0.025869
55435	0.041331	0.092998	9.810787	0.999650	0.005365	-0.001651	-0.025862
55436	0.015282	0.082020	9.844835	0.999650	0.005354	-0.001662	-0.025865
55437	0.013135	0.080952	9.824228	0.999650	0.005345	-0.001670	-0.025857
55438	0.033250	0.101696	9.821236	0.999650	0.005337	-0.001665	-0.025853
55439	0.024474	0.108895	9.811074	0.999650	0.005349	-0.001669	-0.025857
55440	0.025480	0.110694	9.831676	0.999650	0.005350	-0.001661	-0.025866
55441	0.037738	0.094986	9.810783	0.999650	0.005345	-0.001677	-0.025865
55442	0.026805	0.084954	9.812278	0.999649	0.005336	-0.001670	-0.025881
55443	0.030041	0.103469	9.821227	0.999649	0.005334	-0.001675	-0.025885
55444	0.033488	0.078830	9.822439	0.999649	0.005336	-0.001662	-0.025883
55445	0.028500	0.104082	9.821225	0.999649	0.005325	-0.001663	-0.025883
55446	0.040550	0.088294	9.800341	0.999649	0.005325	-0.001648	-0.025889
55447	0.037337	0.114922	9.819731	0.999649	0.005324	-0.001660	-0.025896
55448	0.020260	0.069639	9.823932	0.999649	0.005311	-0.001658	-0.025904
55449	0.029716	0.080087	9.822441	0.999649	0.005309	-0.001636	-0.025906
55450	0.037493	0.089370	9.800344	0.999649	0.005307	-0.001636	-0.025899
55451	0.021664	0.088791	9.832878	0.999649	0.005311	-0.001630	-0.025901
55452	0.029555	0.098088	9.810780	0.999649	0.005305	-0.001626	-0.025909
55453	0.012211	0.096082	9.822706	0.999649	0.005299	-0.001642	-0.025908
55454	0.026261	0.081643	9.822438	0.999649	0.005298	-0.001642	-0.025901
55455	0.029365	0.100318	9.831384	0.999649	0.005305	-0.001629	-0.025918
55456	0.024940	0.082383	9.822435	0.999649	0.005296	-0.001657	-0.025913
55457	0.013583	0.056725	9.856191	0.999649	0.005297	-0.001650	-0.025921
55458	0.029815	0.118347	9.819716	0.999649	0.005304	-0.001646	-0.025915
55459	0.037242	0.112105	9.829887	0.999649	0.005309	-0.001648	-0.025919
55460	0.034969	0.111223	9.809277	0.999649	0.005310	-0.001654	-0.025916
55461	0.021837	0.084324	9.822426	0.999649	0.005308	-0.001659	-0.025920
55462	0.039717	0.088195	9.831114	0.999648	0.005306	-0.001663	-0.025924
55463	0.018735	0.083482	9.801818	0.999649	0.005287	-0.001641	-0.025922
55464	0.039912	0.089915	9.851724	0.999649	0.005298	-0.001667	-0.025903
55465	0.033584	0.113935	9.829879	0.999649	0.005284	-0.001666	-0.025910
55466	0.015318	0.083089	9.781205	0.999649	0.005293	-0.001664	-0.025897
55467	0.044125	0.126262	9.848998	0.999649	0.005294	-0.001657	-0.025905
55468	0.040442	0.080740	9.800078	0.999649	0.005292	-0.001661	-0.025909
55469	0.032863	0.073422	9.842778	0.999649	0.005292	-0.001668	-0.025906
55470	0.027913	0.098809	9.841536	0.999649	0.005297	-0.001657	-0.025896
55471	0.029654	0.072828	9.822170	0.999649	0.005288	-0.001651	-0.025912
55472	0.036655	0.109522	9.840053	0.999649	0.005274	-0.001649	-0.025920
55473	0.020199	0.079979	9.811985	0.999649	0.005284	-0.001659	-0.025920
55474	0.027333	0.116888	9.829864	0.999649	0.005273	-0.001655	-0.025910
55475	0.037413	0.084218	9.820687	0.999649	0.005281	-0.001663	-0.025917
55476	0.011813	0.089194	9.822400	0.999649	0.005292	-0.001655	-0.025919
55477	0.035974	0.085211	9.820684	0.999649	0.005291	-0.001655	-0.025912
55478	0.012636	0.106937	9.810724	0.999649	0.005284	-0.001656	-0.025909
55479	0.020059	0.100489	9.820912	0.999649	0.005274	-0.001647	-0.025921
55480	0.015544	0.082500	9.811973	0.999649	0.005275	-0.001654	-0.025907
55481	0.033214	0.086509	9.820682	0.999649	0.005278	-0.001632	-0.025916
55482	0.057522	0.082476	9.818976	0.999649	0.005274	-0.001656	-0.025906
55483	0.025645	0.095295	9.831095	0.999649	0.005276	-0.001649	-0.025904
55484	0.023283	0.094255	9.810485	0.999649	0.005264	-0.001649	-0.025902
55485	0.033032	0.104585	9.809007	0.999649	0.005242	-0.001657	-0.025909
55486	0.022141	0.094379	9.810486	0.999649	0.005232	-0.001658	-0.025899
55487	0.029662	0.088104	9.820679	0.999649	0.005246	-0.001663	-0.025905
55488	0.018888	0.078347	9.822154	0.999649	0.005247	-0.001681	-0.025913
55489	0.028172	0.073266	9.852959	0.999649	0.005237	-0.001682	-0.025904
55490	0.034534	0.081208	9.810262	0.999649	0.005241	-0.001677	-0.025904
55491	0.022377	0.098880	9.851693	0.999649	0.005234	-0.001667	-0.025899
55492	0.019978	0.097840	9.831083	0.999650	0.005232	-0.001666	-0.025890
55493	0.034531	0.099113	9.798586	0.999650	0.005229	-0.001671	-0.025892
55494	0.034927	0.085261	9.851479	0.999650	0.005242	-0.001669	-0.025894
55495	0.022339	0.074017	9.832344	0.999649	0.005229	-0.001673	-0.025903
55496	0.031969	0.084554	9.830869	0.999649	0.005230	-0.001665	-0.025910
55497	0.014432	0.082552	9.842750	0.999649	0.005221	-0.001668	-0.025902
55498	0.030559	0.085036	9.830869	0.999649	0.005215	-0.001663	-0.025909
55499	0.021724	0.091993	9.820664	0.999650	0.005213	-0.001663	-0.025901
55500	0.022678	0.093717	9.841272	0.999649	0.005219	-0.001664	-0.025904
55501	0.037320	0.095179	9.808781	0.999649	0.005228	-0.001674	-0.025903
55502	0.028091	0.086609	9.830863	0.999650	0.005221	-0.001679	-0.025887
55503	0.029629	0.104023	9.819180	0.999650	0.005237	-0.001674	-0.025872
55504	0.022930	0.069252	9.821930	0.999650	0.005234	-0.001678	-0.025873
55505	0.011506	0.102501	9.831049	0.999650	0.005227	-0.001678	-0.025891
55506	0.032153	0.080145	9.820455	0.999650	0.005231	-0.001699	-0.025893
55507	0.025172	0.088536	9.830854	0.999650	0.005374	-0.001684	-0.025863
55508	0.043556	0.108207	9.807297	0.999650	0.005382	-0.001688	-0.025859
55509	0.007738	0.102635	9.810425	0.999650	0.005372	-0.001695	-0.025861
55510	0.011312	0.078039	9.811709	0.999650	0.005384	-0.001681	-0.025850
55511	0.029974	0.126662	9.848697	0.999650	0.005375	-0.001674	-0.025864
55512	0.030557	0.099348	9.808763	0.999650	0.005382	-0.001696	-0.025858
55513	0.031612	0.101053	9.829372	0.999650	0.005376	-0.001687	-0.025854
55514	0.035894	0.092026	9.798365	0.999650	0.005378	-0.001700	-0.025852
55515	0.020234	0.091456	9.830838	0.999650	0.005378	-0.001712	-0.025858
55516	0.013759	0.115421	9.808931	0.999650	0.005377	-0.001712	-0.025850
55517	0.019015	0.092093	9.830835	0.999650	0.005372	-0.001714	-0.025861
