// Start Time: Unknown
// Update Rate: 60.0Hz
// Filter Profile: human (46.1)
// Option Flags: AHS Disabled ICC Disabled 
// Firmware Version: 4.3.5
PacketCounter	Acc_X	Acc_Y	Acc_Z	Quat_q0	Quat_q1	Quat_q2	Quat_q3
34999	0.005115	-9.377280	3.178765	0.682607	-0.483692	-0.324911	0.441047
35000	0.093127	-9.344920	3.078604	0.682168	-0.483258	-0.325387	0.441850
35001	0.202671	-9.367402	2.963632	0.681823	-0.482654	-0.325837	0.442711
35002	0.189889	-9.141635	2.981376	0.681513	-0.482107	-0.326096	0.443592
35003	0.077439	-9.152614	3.007178	0.681160	-0.481713	-0.326319	0.444397
35004	-0.056025	-9.154014	3.120559	0.680697	-0.481381	-0.326671	0.445207
35005	-0.099535	-9.320725	3.205589	0.680230	-0.481001	-0.327049	0.446053
35006	0.013313	-9.298562	3.139560	0.679802	-0.480460	-0.327346	0.447071
35007	0.017414	-9.157997	3.116027	0.679271	-0.480119	-0.327728	0.447963
35008	-0.184938	-9.380524	3.222616	0.678660	-0.479892	-0.328257	0.448744
35009	-0.075233	-9.325372	3.028640	0.677928	-0.479526	-0.329078	0.449640
35010	-0.082283	-9.338483	2.911619	0.677192	-0.479192	-0.329887	0.450512
35011	0.067202	-9.286571	2.947163	0.676491	-0.478838	-0.330899	0.451199
35012	0.277551	-9.137085	2.919106	0.675923	-0.478617	-0.331796	0.451625
35013	0.206301	-9.157766	2.844514	0.675388	-0.478615	-0.332638	0.451807
35014	0.224729	-9.338263	2.717417	0.674732	-0.478607	-0.333718	0.452001
35015	0.273985	-9.336768	2.633876	0.674335	-0.478481	-0.334560	0.452104
35016	0.245338	-9.353377	2.773154	0.674078	-0.478422	-0.335186	0.452087
35017	0.059291	-9.308369	2.904837	0.673867	-0.478259	-0.335767	0.452141
35018	-0.019933	-9.113291	3.053854	0.673698	-0.477999	-0.336316	0.452260
35019	0.013044	-9.371350	2.902433	0.673078	-0.478147	-0.337404	0.452216
35020	0.076304	-9.650640	2.985337	0.672878	-0.477944	-0.338018	0.452271
35021	0.089791	-9.342514	3.216699	0.673073	-0.477502	-0.338148	0.452351
35022	-0.052000	-9.186168	3.258663	0.673261	-0.477182	-0.338217	0.452355
35023	0.028396	-9.198810	3.106308	0.673167	-0.477042	-0.338585	0.452369
35024	0.140728	-9.111059	3.033731	0.673152	-0.476785	-0.338749	0.452539
35025	0.249562	-9.096654	3.111058	0.672981	-0.476755	-0.338954	0.452671
35026	0.285915	-9.303494	3.183010	0.672914	-0.476786	-0.338920	0.452764
35027	0.232836	-9.068402	3.331810	0.673047	-0.476726	-0.338590	0.452877
35028	-0.042449	-9.011546	3.461530	0.672912	-0.476854	-0.338468	0.453033
35029	-0.116411	-9.007352	3.402934	0.672505	-0.476917	-0.338752	0.453359
35030	0.084415	-9.332919	3.240373	0.671943	-0.476920	-0.339221	0.453838
35031	0.174159	-9.431523	3.044539	0.671641	-0.476640	-0.339448	0.454409
35032	0.287855	-9.253148	2.949696	0.671309	-0.476364	-0.339788	0.454936
35033	0.273706	-9.003898	2.948902	0.671010	-0.476102	-0.340201	0.455341
35034	0.233267	-8.723117	2.954100	0.670491	-0.476133	-0.340792	0.455631
35035	0.174665	-8.846037	3.159263	0.669380	-0.476608	-0.341910	0.455931
35036	0.125870	-9.330736	2.983192	0.667736	-0.477317	-0.343574	0.456348
35037	-0.061281	-9.630615	2.829969	0.666285	-0.477736	-0.345101	0.456879
35038	-0.050314	-9.490762	2.663899	0.665203	-0.477482	-0.346567	0.457610
35039	0.199572	-9.272045	2.746592	0.664019	-0.477423	-0.348297	0.458078
35040	0.358421	-9.507718	2.597594	0.662634	-0.477514	-0.350408	0.458379
35041	0.524213	-9.612292	2.570807	0.661494	-0.477421	-0.352320	0.458656
35042	0.488559	-9.842484	2.386841	0.660654	-0.477188	-0.353934	0.458867
35043	0.444228	-9.820091	2.282033	0.660230	-0.476807	-0.355054	0.459009
35044	0.138923	-9.541665	2.527622	0.660763	-0.476106	-0.354954	0.459045
35045	-0.031039	-9.158866	2.923382	0.661384	-0.475408	-0.354893	0.458922
35046	0.003035	-9.179660	2.939937	0.661148	-0.475171	-0.356040	0.458619
35047	0.242852	-9.337382	2.639929	0.660766	-0.475224	-0.357322	0.458116
35048	0.196955	-9.594268	2.754541	0.660959	-0.475118	-0.357792	0.457582
35049	0.133746	-9.604442	2.771474	0.661323	-0.474796	-0.358063	0.457178
35050	-0.134621	-9.414074	3.202863	0.662174	-0.473976	-0.357882	0.456939
35051	-0.110759	-9.218363	3.293939	0.662225	-0.473398	-0.358924	0.456646
35052	-0.032022	-9.710839	2.976526	0.661549	-0.473281	-0.361162	0.455983
35053	0.431517	-9.945805	2.707611	0.661293	-0.472174	-0.363291	0.455810
35054	0.864757	-9.430286	2.792986	0.661766	-0.470460	-0.364338	0.456061
35055	1.024501	-8.704290	2.833015	0.662237	-0.469363	-0.364698	0.456219
35056	0.883218	-8.412226	2.791182	0.662238	-0.469588	-0.364861	0.455856
35057	0.715756	-8.815376	2.670199	0.661433	-0.470791	-0.365686	0.455122
35058	0.793963	-9.318073	2.683346	0.660592	-0.472044	-0.366638	0.454278
35059	0.570437	-9.176459	2.848986	0.660411	-0.472698	-0.366892	0.453657
35060	0.494959	-9.030777	3.085196	0.659648	-0.473513	-0.368044	0.452983
35061	0.383565	-9.445144	2.686886	0.658141	-0.475048	-0.370167	0.451836
35062	0.588012	-9.611033	2.633878	0.658025	-0.475146	-0.370788	0.451394
35063	0.662917	-9.279270	2.588273	0.657974	-0.475372	-0.371176	0.450910
35064	0.368123	-9.512251	2.363656	0.657704	-0.475834	-0.371886	0.450230
35065	0.419059	-9.604877	2.530172	0.657848	-0.475419	-0.372442	0.450001
35066	0.667967	-9.255119	2.859230	0.658028	-0.474628	-0.373043	0.450073
35067	1.012484	-9.133468	2.598402	0.657632	-0.474762	-0.373962	0.449748
35068	0.835089	-9.237587	2.585909	0.657927	-0.475014	-0.373701	0.449267
35069	0.680673	-8.864406	2.836705	0.658197	-0.475389	-0.373322	0.448791
35070	0.560334	-9.231404	2.612135	0.657645	-0.476599	-0.373768	0.447944
35071	0.450755	-9.646738	2.413142	0.657237	-0.477543	-0.373999	0.447345
35072	0.417818	-9.611005	2.540962	0.657311	-0.477778	-0.373796	0.447154
35073	0.482931	-9.425442	2.762914	0.657591	-0.477733	-0.373518	0.447023
35074	0.589080	-9.278441	2.767423	0.657631	-0.477913	-0.373460	0.446821
35075	0.548815	-9.317743	2.558459	0.657598	-0.478318	-0.373393	0.446490
35076	0.591778	-9.570827	2.483877	0.657634	-0.478809	-0.373207	0.446066
35077	0.508162	-9.491101	2.415646	0.657973	-0.479041	-0.372621	0.445809
35078	0.413896	-9.561376	2.571792	0.658421	-0.479232	-0.371904	0.445539
35079	0.464729	-9.419394	2.634850	0.658684	-0.479274	-0.371530	0.445419
35080	0.469514	-9.599884	2.564076	0.658778	-0.479491	-0.371310	0.445229
35081	0.404698	-9.462761	2.468478	0.659134	-0.479220	-0.370867	0.445363
35082	0.487892	-9.313022	2.640319	0.659488	-0.478942	-0.370417	0.445512
35083	0.470850	-9.307301	2.628900	0.659680	-0.478874	-0.370050	0.445607
35084	0.387917	-9.185423	2.581691	0.659695	-0.478855	-0.369906	0.445725
35085	0.461187	-9.173327	2.563923	0.659445	-0.479013	-0.370046	0.445808
35086	0.445287	-9.381092	2.587780	0.659160	-0.479220	-0.370235	0.445851
35087	0.544267	-9.501270	2.591471	0.658951	-0.479271	-0.370448	0.445928
35088	0.598421	-9.567771	2.450202	0.658771	-0.479437	-0.370522	0.445953
35089	0.432742	-9.453908	2.576468	0.658942	-0.479229	-0.370203	0.446188
35090	0.364102	-9.372799	2.649485	0.658957	-0.478972	-0.370118	0.446514
35091	0.517650	-9.318558	2.644127	0.658931	-0.478640	-0.370104	0.446919
35092	0.635586	-9.296917	2.623461	0.658808	-0.478626	-0.370045	0.447165
35093	0.527084	-9.458239	2.515758	0.658646	-0.478679	-0.369964	0.447414
35094	0.542484	-9.461277	2.606467	0.658529	-0.478555	-0.369863	0.447802
35095	0.441160	-9.420228	2.538089	0.658399	-0.478351	-0.369808	0.448255
35096	0.478150	-9.346503	2.640050	0.658325	-0.478089	-0.369682	0.448748
35097	0.413420	-9.319938	2.554661	0.658047	-0.478055	-0.369627	0.449236
35098	0.374533	-9.404941	2.534510	0.657761	-0.477987	-0.369578	0.449768
35099	0.406698	-9.382504	2.670167	0.657553	-0.477685	-0.369595	0.450378
35100	0.547205	-9.384697	2.764901	0.657435	-0.477348	-0.369513	0.450975
35101	0.552250	-9.306047	2.859552	0.657440	-0.477150	-0.369150	0.451475
35102	0.440827	-9.245374	2.802526	0.657477	-0.477062	-0.368713	0.451870
35103	0.449247	-9.333429	2.786978	0.657563	-0.476946	-0.368284	0.452217
35104	0.400358	-9.426861	2.756468	0.657432	-0.476840	-0.368174	0.452608
35105	0.462850	-9.503758	2.664498	0.657336	-0.476661	-0.368035	0.453050
35106	0.454879	-9.301591	2.675710	0.657564	-0.476245	-0.367450	0.453629
35107	0.446260	-9.105453	2.710705	0.657796	-0.475843	-0.366889	0.454170
35108	0.533169	-9.100079	2.711109	0.657752	-0.475761	-0.366669	0.454496
35109	0.508692	-9.462649	2.660229	0.657521	-0.476153	-0.366600	0.454477
35110	0.422077	-9.340190	2.751367	0.657584	-0.476178	-0.366288	0.454611
35111	0.458277	-9.135500	2.774973	0.657375	-0.476437	-0.366301	0.454631
35112	0.426056	-9.413179	2.693767	0.657016	-0.477014	-0.366482	0.454400
35113	0.405660	-9.595518	2.525119	0.656836	-0.477457	-0.366498	0.454182
35114	0.266396	-9.472006	2.682781	0.657114	-0.477509	-0.366060	0.454077
35115	0.245392	-9.337942	2.871585	0.657225	-0.477560	-0.365880	0.454009
35116	0.247276	-9.373149	2.936190	0.657173	-0.477636	-0.365919	0.453972
35117	0.219128	-9.304390	2.603345	0.656824	-0.477884	-0.366196	0.453994
35118	0.194956	-9.565096	2.554614	0.656728	-0.477940	-0.366115	0.454138
35119	0.375352	-9.422609	2.584890	0.656920	-0.477473	-0.365686	0.454698
35120	0.241709	-9.339187	2.800011	0.657372	-0.476987	-0.364807	0.455259
35121	0.227429	-9.282054	2.859844	0.657378	-0.476575	-0.364470	0.455952
35122	0.195925	-9.406718	2.755890	0.657269	-0.476339	-0.364157	0.456606
35123	0.131007	-9.443213	2.817146	0.657120	-0.476039	-0.363910	0.457329
35124	0.110399	-9.358712	2.727497	0.657088	-0.475507	-0.363609	0.458166
35125	0.130321	-9.228981	2.712054	0.657027	-0.474949	-0.363406	0.458993
35126	0.192835	-9.271183	2.665302	0.656944	-0.474228	-0.363320	0.459926
35127	0.362751	-9.232807	2.698328	0.657063	-0.473043	-0.363111	0.461138
35128	0.383556	-9.260606	2.879106	0.657423	-0.471783	-0.362554	0.462353
35129	0.272205	-9.256735	3.054412	0.657886	-0.470342	-0.361812	0.463742
35130	0.261338	-9.252842	2.875044	0.657819	-0.468991	-0.361710	0.465282
35131	0.319300	-9.375429	2.676561	0.657631	-0.467877	-0.361698	0.466677
35132	0.446044	-9.322083	2.627751	0.657465	-0.466554	-0.361720	0.468216
35133	0.493945	-9.239008	2.641518	0.657232	-0.465882	-0.361584	0.469315
35134	0.321697	-9.299271	2.772942	0.656902	-0.465912	-0.361324	0.469948
35135	0.285601	-9.285558	2.848251	0.656602	-0.465712	-0.361240	0.470629
35136	0.384869	-9.302944	2.928805	0.655973	-0.465712	-0.361751	0.471113
35137	0.368008	-9.513909	2.749145	0.655476	-0.465913	-0.362194	0.471267
35138	0.339985	-9.475250	2.736888	0.655296	-0.465834	-0.362338	0.471484
35139	0.306193	-9.313177	2.908866	0.655451	-0.465495	-0.362068	0.471811
35140	0.202642	-9.286409	2.947913	0.655269	-0.465184	-0.362245	0.472234
35141	0.192659	-9.354661	2.788302	0.655204	-0.464521	-0.362382	0.472870
35142	0.172283	-9.254783	2.901135	0.655259	-0.463680	-0.362412	0.473596
35143	0.172639	-9.367170	2.984404	0.655199	-0.462827	-0.362688	0.474303
35144	0.188807	-9.413728	2.860456	0.655110	-0.461700	-0.363077	0.475226
35145	0.267912	-9.387193	2.850487	0.655018	-0.460393	-0.363565	0.476246
35146	0.298468	-9.409022	2.868988	0.654988	-0.459199	-0.363968	0.477132
35147	0.317039	-9.352378	2.946742	0.654955	-0.457988	-0.364389	0.478019
35148	0.294546	-9.218435	2.868572	0.655068	-0.456497	-0.364665	0.479078
35149	0.330227	-9.072710	3.012406	0.655114	-0.455103	-0.365017	0.480073
35150	0.386738	-9.285422	3.041029	0.654878	-0.454054	-0.365700	0.480867
35151	0.376930	-9.327288	3.071164	0.654749	-0.452911	-0.366179	0.481756
35152	0.326827	-9.223042	3.044551	0.654480	-0.451612	-0.366749	0.482905
35153	0.326736	-9.335687	2.969396	0.654267	-0.450201	-0.367200	0.484167
35154	0.368944	-9.358406	3.044748	0.654054	-0.448603	-0.367672	0.485578
35155	0.452269	-9.252615	3.084962	0.653937	-0.447026	-0.367983	0.486953
35156	0.411251	-9.203298	3.175440	0.653623	-0.445737	-0.368441	0.488207
35157	0.446682	-9.298103	3.147986	0.653285	-0.444401	-0.368934	0.489504
35158	0.314302	-9.127230	3.128536	0.653061	-0.442871	-0.369389	0.490845
35159	0.447023	-9.259344	3.332725	0.652551	-0.441677	-0.370194	0.491992
35160	0.509809	-9.377524	3.184960	0.652137	-0.440176	-0.370886	0.493362
35161	0.525973	-9.142853	3.207509	0.651851	-0.438749	-0.371279	0.494713
35162	0.535546	-9.052427	3.250316	0.651464	-0.437491	-0.371708	0.496013
35163	0.521611	-8.935683	3.288559	0.650988	-0.436351	-0.372223	0.497255
35164	0.499138	-9.002193	3.244972	0.650230	-0.435499	-0.373000	0.498410
35165	0.455257	-9.104020	3.177613	0.649359	-0.434595	-0.373892	0.499664
35166	0.402182	-9.070386	3.174502	0.648519	-0.433642	-0.374677	0.500995
35167	0.446590	-9.057414	3.177111	0.647584	-0.432851	-0.375693	0.502125
35168	0.505501	-9.198216	3.204666	0.646685	-0.432098	-0.376745	0.503142
35169	0.486599	-9.052612	3.358356	0.645882	-0.431259	-0.377746	0.504144
35170	0.567627	-9.217929	3.296050	0.644753	-0.430866	-0.379041	0.504951
35171	0.418361	-9.230370	3.191066	0.643984	-0.430614	-0.379709	0.505645
35172	0.461859	-9.211597	3.360337	0.643101	-0.430323	-0.380692	0.506277
35173	0.595213	-9.129764	3.408641	0.642302	-0.429889	-0.381617	0.506964
35174	0.572964	-9.168108	3.219296	0.641487	-0.429710	-0.382409	0.507550
35175	0.405302	-9.222779	3.237794	0.640893	-0.429477	-0.382922	0.508111
35176	0.381527	-9.243505	3.243902	0.640308	-0.428966	-0.383573	0.508788
35177	0.477705	-9.197267	3.247260	0.639732	-0.428503	-0.384191	0.509437
35178	0.506818	-9.189673	3.214388	0.639137	-0.427920	-0.384769	0.510236
35179	0.568293	-9.233317	3.292962	0.638566	-0.427464	-0.385326	0.510913
35180	0.501515	-9.258054	3.316407	0.638208	-0.427028	-0.385712	0.511434
35181	0.440998	-9.083728	3.325035	0.637905	-0.426603	-0.386031	0.511924
35182	0.573895	-9.191331	3.210720	0.637444	-0.426371	-0.386556	0.512296
35183	0.649622	-9.224687	3.301056	0.637337	-0.425954	-0.386747	0.512632
35184	0.589154	-9.028320	3.417505	0.637323	-0.425471	-0.386860	0.512966
35185	0.620945	-9.011148	3.467690	0.637187	-0.425018	-0.387127	0.513308
35186	0.581382	-9.118184	3.256414	0.636958	-0.424981	-0.387269	0.513515
35187	0.562865	-9.102805	3.295020	0.636730	-0.424906	-0.387492	0.513692
35188	0.603224	-9.187098	3.339579	0.636516	-0.424802	-0.387744	0.513853
35189	0.739264	-9.198431	3.242756	0.636460	-0.424661	-0.387822	0.513979
35190	0.710893	-9.157747	3.206695	0.636607	-0.424651	-0.387602	0.513972
35191	0.639147	-9.067572	3.190881	0.636750	-0.424749	-0.387469	0.513814
35192	0.738912	-9.245381	3.025300	0.636856	-0.425144	-0.387283	0.513496
35193	0.724985	-9.249501	3.087466	0.637070	-0.425707	-0.387063	0.512931
35194	0.723053	-9.067406	3.171434	0.637371	-0.426253	-0.386830	0.512279
35195	0.651965	-8.919230	3.196711	0.637616	-0.427102	-0.386673	0.511384
35196	0.564271	-9.063249	3.129199	0.637779	-0.428257	-0.386570	0.510291
35197	0.485750	-9.293295	3.118185	0.637997	-0.429461	-0.386336	0.509183
35198	0.552460	-9.373275	3.215936	0.638466	-0.430408	-0.385912	0.508116
35199	0.356473	-9.068800	3.087869	0.639185	-0.431123	-0.385234	0.507119
35200	0.396460	-9.286299	3.003606	0.639329	-0.432637	-0.385219	0.505658
35201	0.474318	-9.318124	2.890775	0.639930	-0.434107	-0.384539	0.504153
35202	0.538438	-9.276477	3.124749	0.640491	-0.435344	-0.384064	0.502734
35203	0.590900	-9.313170	3.020947	0.641088	-0.436396	-0.383591	0.501420
35204	0.441048	-9.330277	3.065452	0.641760	-0.437545	-0.382861	0.500116
35205	0.337806	-9.359476	3.159604	0.642573	-0.438446	-0.381881	0.499031
35206	0.360202	-9.079172	3.290959	0.643287	-0.439076	-0.381014	0.498220
35207	0.393901	-9.055547	3.184768	0.643754	-0.439945	-0.380411	0.497310
35208	0.375945	-9.492572	2.774456	0.643982	-0.441234	-0.380055	0.496144
35209	0.410400	-9.633972	2.772628	0.644741	-0.442090	-0.379105	0.495122
35210	0.378158	-9.217943	3.000588	0.645742	-0.442446	-0.378013	0.494332
35211	0.475953	-9.038191	3.097701	0.646325	-0.443133	-0.377431	0.493398
35212	0.478178	-9.058314	3.088162	0.646913	-0.444000	-0.376722	0.492390
35213	0.286223	-9.196991	2.951081	0.647294	-0.445239	-0.376193	0.491173
35214	0.355621	-9.615808	2.920861	0.647832	-0.446262	-0.375581	0.490003
35215	0.444940	-9.425693	3.171539	0.648828	-0.446747	-0.374652	0.488953
35216	0.547498	-9.046686	3.258913	0.649696	-0.447220	-0.373929	0.487921
35217	0.438105	-8.953114	2.939526	0.650086	-0.448690	-0.373553	0.486337
35218	0.052059	-9.523902	2.813625	0.650215	-0.451070	-0.373323	0.484135
35219	0.036398	-9.630191	3.062870	0.650946	-0.452002	-0.372687	0.482770
35220	0.364472	-9.045213	3.269896	0.651568	-0.452067	-0.372654	0.481896
35221	0.488164	-9.117458	2.904598	0.651811	-0.452963	-0.372899	0.480534
35222	0.237710	-9.274555	2.790705	0.652157	-0.454344	-0.372800	0.478835
35223	0.161519	-9.447810	2.915649	0.652683	-0.455317	-0.372599	0.477348
35224	0.380924	-9.237834	3.176244	0.653304	-0.455675	-0.372611	0.476146
35225	0.701334	-9.181578	3.087032	0.653754	-0.456283	-0.372813	0.474786
35226	0.530605	-9.178486	2.948844	0.654226	-0.457606	-0.372627	0.473006
35227	0.211109	-9.302980	2.999549	0.654815	-0.458950	-0.372113	0.471289
35228	0.130104	-9.360506	2.892379	0.655214	-0.459660	-0.372091	0.470059
35229	0.414185	-9.367215	2.930513	0.655773	-0.459688	-0.372150	0.469205
35230	0.560611	-9.264435	2.959011	0.656267	-0.459966	-0.372254	0.468159
35231	0.635504	-9.335029	2.981244	0.656794	-0.460537	-0.372157	0.466933
35232	0.582657	-9.356115	2.833649	0.657230	-0.461446	-0.372077	0.465484
35233	0.592678	-9.412942	2.779727	0.657768	-0.462414	-0.371729	0.464039
35234	0.487709	-9.119067	2.781545	0.658546	-0.462829	-0.371198	0.462946
35235	0.555248	-9.177232	2.796675	0.658891	-0.463790	-0.371206	0.461484
35236	0.668421	-9.451007	2.724081	0.659148	-0.464980	-0.371329	0.459817
35237	0.584833	-9.575161	2.750949	0.659715	-0.466213	-0.370988	0.458028
35238	0.427971	-9.258304	2.725831	0.660584	-0.466743	-0.370457	0.456662
35239	0.341270	-9.360198	2.736857	0.661038	-0.467741	-0.370356	0.455065
35240	0.574101	-9.580820	2.740975	0.661429	-0.468349	-0.370520	0.453736
35241	0.643676	-9.618442	2.730185	0.662070	-0.468690	-0.370368	0.452570
35242	0.511740	-9.450489	2.804925	0.662935	-0.468663	-0.369865	0.451744
35243	0.194167	-9.265435	2.814266	0.663627	-0.468518	-0.369497	0.451178
35244	0.226607	-9.357582	2.755907	0.664015	-0.467872	-0.369670	0.451136
35245	0.429404	-9.316132	2.738188	0.664355	-0.466890	-0.369799	0.451546
35246	0.636633	-9.381699	2.573403	0.664455	-0.465944	-0.370108	0.452124
35247	0.911082	-9.176012	2.638024	0.664787	-0.464935	-0.369993	0.452768
35248	1.007418	-8.905171	2.955861	0.665003	-0.464473	-0.369766	0.453110
35249	0.924154	-8.958292	2.864997	0.664782	-0.464694	-0.369717	0.453248
35250	0.919419	-9.036166	2.908566	0.664389	-0.465538	-0.369543	0.453100
35251	0.757308	-9.436525	2.898417	0.663964	-0.466758	-0.369211	0.452737
35252	0.744361	-9.295666	3.006959	0.663949	-0.467302	-0.368652	0.452655
35253	0.688262	-9.183094	3.051304	0.663583	-0.468365	-0.368458	0.452250
35254	0.556346	-9.339024	2.903805	0.663159	-0.469423	-0.368427	0.451802
35255	0.472737	-9.292818	3.133027	0.663300	-0.469773	-0.367968	0.451605
35256	0.574631	-9.238762	3.151298	0.663207	-0.469815	-0.368245	0.451470
35257	0.667259	-9.339904	2.935360	0.663263	-0.469924	-0.368384	0.451162
35258	0.458998	-9.262797	2.933786	0.663859	-0.469700	-0.367862	0.450943
35259	0.422649	-9.271835	3.040448	0.664439	-0.469345	-0.367449	0.450796
35260	0.599412	-9.347999	2.869846	0.664838	-0.468892	-0.367327	0.450780
35261	0.617424	-9.456723	2.819523	0.665403	-0.468535	-0.366945	0.450627
35262	0.520182	-9.298105	2.990391	0.666310	-0.467901	-0.366220	0.450536
35263	0.422474	-9.062244	3.211401	0.667148	-0.467472	-0.365602	0.450243
35264	0.313278	-9.206397	3.159854	0.667757	-0.467295	-0.365296	0.449772
35265	0.331450	-9.352740	2.972330	0.668256	-0.467043	-0.365176	0.449390
35266	0.429483	-9.436483	2.866286	0.669038	-0.466484	-0.364766	0.449139
35267	0.358790	-9.304025	3.035607	0.669881	-0.466039	-0.364295	0.448727
35268	0.387166	-9.274272	2.827906	0.670596	-0.465488	-0.364177	0.448327
35269	0.568337	-9.219982	2.845814	0.671229	-0.465052	-0.364213	0.447802
35270	0.624783	-9.173811	2.879133	0.671914	-0.464831	-0.364092	0.447103
35271	0.496749	-9.166509	3.095182	0.672801	-0.464737	-0.363581	0.446282
35272	0.382865	-9.072918	3.081121	0.673722	-0.464351	-0.363106	0.445680
35273	0.487558	-8.961305	3.275914	0.674722	-0.463757	-0.362614	0.445186
35274	0.475372	-9.134014	3.446432	0.675499	-0.463631	-0.362316	0.444380
35275	0.420040	-9.468799	3.306511	0.676409	-0.463461	-0.361945	0.443477
35276	0.483352	-9.586031	3.035043	0.677157	-0.462905	-0.362074	0.442808
35277	0.605296	-9.661541	2.721336	0.678598	-0.462048	-0.361352	0.442088
35278	0.351986	-9.158108	3.071102	0.680978	-0.460745	-0.359499	0.441298
35279	0.264914	-9.043672	3.433351	0.682617	-0.460088	-0.358462	0.440293
35280	0.298819	-9.166133	3.427955	0.684256	-0.459224	-0.357573	0.439373
35281	0.210751	-8.871215	3.672437	0.685747	-0.458250	-0.357162	0.438399
35282	0.234394	-8.867391	3.894305	0.686728	-0.457578	-0.357263	0.437482
35283	0.704409	-9.070481	3.855377	0.687062	-0.456919	-0.358133	0.436933
35284	0.969879	-9.241419	3.150561	0.687057	-0.456628	-0.359084	0.436466
35285	0.646479	-9.161918	2.730120	0.687656	-0.457031	-0.358685	0.435427
35286	0.331455	-8.758572	3.451767	0.688561	-0.457049	-0.358121	0.434441
35287	1.063456	-8.832333	3.737084	0.689048	-0.455776	-0.358624	0.434591
35288	2.147252	-9.490154	2.720115	0.688292	-0.455904	-0.360213	0.434341
35289	2.464137	-10.339826	2.557808	0.689340	-0.457567	-0.357993	0.432762
35290	1.118443	-10.227183	2.193115	0.692067	-0.459879	-0.352744	0.430263
35291	-0.233931	-8.660145	3.031105	0.696301	-0.458797	-0.346548	0.429621
35292	0.633027	-7.619484	3.511960	0.697489	-0.457234	-0.345549	0.430165
35293	1.706783	-9.000153	2.548702	0.697169	-0.458472	-0.345995	0.429006
35294	1.639073	-9.872239	3.202659	0.698318	-0.460351	-0.343756	0.426920
35295	1.206713	-9.729114	2.471878	0.699073	-0.461697	-0.342552	0.425196
35296	0.871615	-9.142328	2.407319	0.700769	-0.462725	-0.340063	0.423279
35297	0.562269	-9.004596	3.129341	0.702200	-0.464147	-0.338213	0.420827
35298	0.490704	-9.165272	3.244033	0.703323	-0.465187	-0.337302	0.418527
35299	0.699647	-9.090523	3.823511	0.704437	-0.465865	-0.336421	0.416604
35300	1.049558	-9.014532	3.358393	0.705446	-0.465744	-0.335900	0.415451
35301	1.233405	-8.638429	3.116038	0.706469	-0.466049	-0.335130	0.413990
35302	0.985070	-8.623068	3.284246	0.707359	-0.467026	-0.334204	0.412113
35303	0.981195	-8.687567	3.350301	0.707654	-0.468312	-0.334252	0.410104
35304	1.093290	-9.189531	3.278117	0.707835	-0.469897	-0.334472	0.407794
35305	1.013856	-9.612921	3.276839	0.708361	-0.471008	-0.334323	0.405714
35306	1.309543	-9.510184	2.729977	0.709224	-0.470924	-0.334357	0.404273
35307	1.421933	-9.074425	2.880943	0.710359	-0.471061	-0.334073	0.402351
35308	1.327863	-9.165397	3.243350	0.711470	-0.471742	-0.333645	0.399938
35309	1.370267	-9.275733	3.392241	0.712551	-0.472510	-0.333099	0.397556
35310	1.443268	-9.547388	2.911966	0.713461	-0.473219	-0.332638	0.395461
35311	1.453864	-9.192398	2.713249	0.714927	-0.473370	-0.331551	0.393540
35312	1.333071	-8.884515	2.905651	0.716291	-0.473877	-0.330475	0.391349
35313	1.289451	-8.962345	3.291862	0.717261	-0.474900	-0.329541	0.389113
35314	1.250870	-9.384824	3.107896	0.717864	-0.475996	-0.328974	0.387136
35315	1.222938	-9.408655	3.140683	0.719185	-0.476449	-0.327445	0.385421
35316	1.201155	-9.499342	3.153705	0.720495	-0.476685	-0.326049	0.383862
35317	1.505275	-9.359819	2.910260	0.722164	-0.476240	-0.324530	0.382563
35318	1.427319	-9.203231	3.098000	0.724107	-0.476350	-0.322296	0.380637
35319	1.118282	-9.265483	2.977709	0.725899	-0.476725	-0.320224	0.378497
35320	1.244237	-9.151632	3.256120	0.727986	-0.476589	-0.317935	0.376586
35321	1.193017	-8.798087	3.260287	0.730093	-0.476113	-0.315779	0.374919
35322	1.153353	-9.038051	3.250765	0.732049	-0.476470	-0.313158	0.372843
35323	1.174141	-9.655667	3.130913	0.734074	-0.476825	-0.310399	0.370709
35324	1.195503	-9.414402	3.318107	0.736912	-0.476153	-0.306966	0.368798
35325	1.012973	-8.917949	3.645069	0.739806	-0.475410	-0.303422	0.366889
35326	0.930362	-8.910740	3.626534	0.742433	-0.474628	-0.300242	0.365207
35327	1.016685	-8.890949	3.457383	0.745050	-0.473585	-0.297167	0.363743
35328	0.967065	-8.874047	3.391363	0.747530	-0.472649	-0.294262	0.362233
35329	0.905928	-8.807644	3.709896	0.750020	-0.471752	-0.291117	0.360791
35330	0.957697	-8.766162	3.793563	0.752355	-0.470686	-0.288193	0.359669
35331	0.859544	-8.942409	3.884010	0.754824	-0.469625	-0.284940	0.358472
35332	0.790333	-9.207569	4.072020	0.757435	-0.468319	-0.281601	0.357310
35333	0.687212	-8.981590	4.181504	0.760156	-0.466503	-0.278301	0.356490
35334	0.676982	-8.715512	4.139183	0.762956	-0.464380	-0.274980	0.355859
35335	0.677770	-8.841416	3.925919	0.765158	-0.462979	-0.272216	0.355082
35336	0.684678	-9.055746	3.768126	0.767149	-0.461849	-0.269931	0.353999
35337	0.415887	-9.250053	3.794095	0.769180	-0.460642	-0.267557	0.352965
35338	0.476598	-8.302205	4.214592	0.771396	-0.458735	-0.265326	0.352297
35339	0.491640	-8.263119	4.368194	0.773062	-0.457502	-0.263559	0.351573
35340	0.620686	-9.017478	4.129379	0.774269	-0.456924	-0.261995	0.350838
35341	0.678545	-9.194680	4.007392	0.775909	-0.455792	-0.259926	0.350226
35342	0.483256	-8.994680	4.434301	0.777637	-0.454655	-0.257848	0.349406
35343	0.456440	-9.034504	4.433020	0.779256	-0.453598	-0.256128	0.348435
35344	0.478380	-8.521938	4.334178	0.781114	-0.451802	-0.254463	0.347828
35345	0.397493	-8.581443	4.506801	0.782366	-0.450990	-0.253286	0.346925
35346	0.594230	-8.790228	4.203676	0.783650	-0.449984	-0.252172	0.346146
35347	0.500227	-8.655354	4.372166	0.784912	-0.449279	-0.250716	0.345259
35348	0.242752	-8.359381	4.516163	0.786353	-0.448319	-0.248945	0.344508
35349	0.149410	-8.314102	4.622846	0.787491	-0.447585	-0.247667	0.343783
35350	0.486334	-8.492012	4.323650	0.788316	-0.446935	-0.246858	0.343319
35351	0.364826	-8.400838	4.506836	0.788921	-0.446518	-0.246189	0.342953
35352	0.328060	-8.332989	4.683415	0.789238	-0.446328	-0.245849	0.342716
35353	0.245086	-8.442202	4.784464	0.789359	-0.446346	-0.245732	0.342496
35354	0.184742	-8.551743	4.701776	0.789309	-0.446238	-0.245981	0.342573
35355	0.248322	-8.320579	4.786475	0.789122	-0.446126	-0.246394	0.342853
35356	0.173781	-8.333976	4.767943	0.788598	-0.446232	-0.247177	0.343356
35357	0.283108	-8.067891	4.677032	0.787749	-0.446451	-0.248305	0.344207
35358	0.269563	-8.259636	4.796105	0.786522	-0.446972	-0.249821	0.345237
35359	0.492417	-8.429505	4.607530	0.784911	-0.447509	-0.251955	0.346653
35360	0.429660	-8.694561	4.493572	0.782872	-0.448410	-0.254645	0.348132
35361	0.419726	-8.894523	4.274587	0.780457	-0.449538	-0.257997	0.349627
35362	0.372145	-8.796835	4.472835	0.778091	-0.450769	-0.261114	0.351000
35363	0.310867	-8.374963	4.463708	0.775380	-0.451718	-0.264851	0.352974
35364	0.624144	-8.319987	4.351268	0.772324	-0.453122	-0.268776	0.354903
35365	0.477199	-8.712319	4.275798	0.769033	-0.454689	-0.272958	0.356848
35366	0.623729	-8.876165	4.048847	0.765142	-0.456581	-0.278017	0.358885
35367	0.590631	-9.061901	3.789138	0.760814	-0.459067	-0.283353	0.360736
35368	0.622913	-8.834884	3.737007	0.756490	-0.461315	-0.288830	0.362614
35369	0.629341	-8.829924	3.750002	0.751500	-0.464112	-0.294923	0.364511
35370	0.664799	-8.931562	3.837165	0.746707	-0.466354	-0.300697	0.366775
35371	0.694382	-8.888301	3.874994	0.741368	-0.468920	-0.306981	0.369120
35372	0.769256	-9.025887	3.600873	0.735239	-0.472470	-0.313705	0.371195
35373	0.651247	-8.869062	3.286233	0.728389	-0.476148	-0.321490	0.373332
35374	0.811874	-8.852478	3.086045	0.719629	-0.481302	-0.331332	0.375101
35375	0.903213	-9.148910	2.862041	0.709429	-0.488032	-0.342120	0.376150
35376	0.960659	-9.318065	2.575354	0.700139	-0.493255	-0.351750	0.377859
35377	0.987942	-9.179167	2.598621	0.691266	-0.497190	-0.361178	0.380137
35378	0.926223	-9.457747	2.350145	0.680457	-0.502358	-0.372515	0.381899
35379	0.884662	-10.099619	1.598545	0.668985	-0.507172	-0.384552	0.383870
35380	0.527574	-9.927315	1.139519	0.656572	-0.511118	-0.397892	0.386463
35381	0.847725	-10.192645	0.992962	0.645158	-0.512600	-0.410906	0.390086
35382	0.995776	-10.185448	0.927770	0.636264	-0.512240	-0.420975	0.394408
35383	0.943311	-9.971176	0.697658	0.628640	-0.510745	-0.429500	0.399351
35384	1.142721	-9.564111	0.654574	0.622946	-0.507430	-0.436291	0.405096
35385	1.251008	-9.592569	0.733463	0.617620	-0.503259	-0.443515	0.410573
35386	1.475702	-10.216404	0.566354	0.612138	-0.498988	-0.450866	0.415954
35387	1.214915	-10.534171	0.424441	0.608576	-0.494219	-0.455388	0.421906
35388	0.737641	-10.146736	0.275439	0.607513	-0.486649	-0.457503	0.429874
35389	1.789562	-8.685426	1.578205	0.605498	-0.477913	-0.460081	0.439655
35390	3.158142	-8.453756	1.466665	0.601828	-0.472773	-0.463004	0.447119
35391	2.669764	-9.790183	0.488892	0.599021	-0.469837	-0.464529	0.452372
35392	1.907769	-10.110576	1.019710	0.598073	-0.467578	-0.463845	0.456648
35393	1.944916	-9.379062	1.534310	0.597122	-0.465902	-0.463624	0.459820
35394	2.042949	-9.514505	0.929205	0.596129	-0.465290	-0.463621	0.461726
35395	1.955373	-9.581660	1.023235	0.596418	-0.464768	-0.462605	0.462895
35396	1.716814	-9.761372	1.239219	0.596725	-0.464163	-0.461992	0.463719
35397	1.746060	-9.534015	1.272329	0.597215	-0.463814	-0.461448	0.463979
35398	1.627296	-9.807173	1.057215	0.598083	-0.463891	-0.460472	0.463753
35399	1.633852	-9.474965	1.449854	0.599692	-0.463563	-0.458630	0.463830
35400	1.382431	-9.306047	1.802056	0.601005	-0.463469	-0.457115	0.463720
35401	1.188287	-9.234906	1.931973	0.601956	-0.463328	-0.456026	0.463698
35402	1.175234	-8.970976	2.012596	0.602631	-0.463029	-0.455067	0.464063
35403	1.322589	-9.031706	1.874274	0.602606	-0.463089	-0.454587	0.464505
35404	1.532671	-9.701187	1.301326	0.602423	-0.463570	-0.454185	0.464657
35405	1.624969	-9.961278	1.352089	0.603168	-0.463691	-0.453131	0.464598
35406	1.125759	-10.062593	1.707594	0.604529	-0.463339	-0.451970	0.464310
35407	0.835482	-9.265879	2.206622	0.605893	-0.462352	-0.451098	0.464365
35408	0.940086	-9.476356	1.928200	0.606016	-0.462145	-0.451446	0.464073
35409	1.219297	-9.568875	1.625208	0.606129	-0.461967	-0.451660	0.463893
35410	1.201727	-9.573334	1.728073	0.606204	-0.461951	-0.452217	0.463268
35411	1.198530	-9.613621	1.569473	0.606018	-0.461948	-0.453501	0.462259
35412	1.375074	-9.833364	1.751994	0.606206	-0.462377	-0.454303	0.460793
35413	1.396110	-9.579867	1.620118	0.607194	-0.462517	-0.453923	0.459726
35414	1.222295	-8.905763	1.680932	0.608389	-0.462964	-0.452957	0.458647
35415	1.153358	-9.106568	1.735323	0.608811	-0.464121	-0.452530	0.457337
35416	1.119828	-9.253603	1.522950	0.609215	-0.465068	-0.451817	0.456542
35417	0.940618	-9.118906	1.612323	0.609230	-0.466110	-0.451223	0.456046
35418	1.160602	-9.487578	1.536229	0.608730	-0.467102	-0.451081	0.455839
35419	1.318081	-9.736642	1.250390	0.608523	-0.468182	-0.450210	0.455869
35420	1.255746	-9.533214	1.325483	0.608763	-0.469107	-0.448741	0.456045
35421	1.171724	-9.687094	1.323461	0.608886	-0.470683	-0.447246	0.455726
35422	1.030799	-9.761449	1.274670	0.609392	-0.471897	-0.445523	0.455482
35423	1.097435	-9.762678	1.387149	0.610076	-0.473133	-0.443591	0.455169
35424	0.994015	-9.701208	1.279973	0.610819	-0.474010	-0.441803	0.454998
35425	0.963841	-9.481165	1.426808	0.611585	-0.474600	-0.440284	0.454828
35426	1.000668	-9.688800	1.490933	0.612124	-0.475606	-0.439095	0.454201
35427	0.962631	-9.794135	1.359809	0.613325	-0.476611	-0.437122	0.453430
35428	1.139318	-9.574490	1.326320	0.615224	-0.477497	-0.434235	0.452698
35429	1.264216	-9.302396	1.307808	0.617150	-0.479044	-0.430983	0.451548
35430	0.910535	-9.347472	1.125879	0.618801	-0.480960	-0.427964	0.450123
35431	0.596193	-9.658391	1.059071	0.619572	-0.482687	-0.426407	0.448687
35432	0.844895	-10.131394	1.195282	0.620621	-0.483783	-0.425520	0.446897
35433	0.848109	-10.169836	1.676158	0.622746	-0.483803	-0.424714	0.444680
35434	0.464938	-9.969763	1.945961	0.625029	-0.483308	-0.424430	0.442279
35435	0.325299	-9.747730	2.039176	0.626812	-0.482516	-0.425070	0.440000
35436	0.580082	-9.388550	2.038919	0.628029	-0.481805	-0.426268	0.437880
35437	0.796805	-9.481614	1.848214	0.628751	-0.481992	-0.427751	0.435184
35438	0.839573	-9.376481	1.850633	0.629521	-0.481635	-0.429601	0.432635
35439	1.060287	-9.254933	2.137275	0.629590	-0.481724	-0.432211	0.429829
35440	1.185559	-9.156023	2.129090	0.628888	-0.482051	-0.435619	0.427041
35441	1.143462	-9.161799	1.932991	0.627581	-0.482715	-0.439614	0.424108
35442	1.123972	-8.870151	1.808363	0.625388	-0.483774	-0.444553	0.420981
35443	1.417147	-8.824089	1.972783	0.622465	-0.486065	-0.449651	0.417243
35444	1.539723	-8.819947	2.146648	0.619571	-0.489252	-0.454141	0.412941
35445	1.391632	-9.061650	2.055266	0.616257	-0.493397	-0.458752	0.407839
35446	1.036114	-9.787632	1.297077	0.611721	-0.497884	-0.464574	0.402591
35447	1.303395	-10.759130	0.604187	0.608026	-0.499739	-0.470904	0.398515
35448	1.478885	-9.484143	1.185551	0.606062	-0.499172	-0.475980	0.396181
35449	1.718293	-8.090781	1.820037	0.603368	-0.499398	-0.481288	0.393587
35450	1.992735	-7.798855	1.602813	0.598637	-0.501417	-0.487884	0.390107
35451	2.312055	-8.949131	0.352223	0.591592	-0.504513	-0.496119	0.386461
35452	2.220799	-10.258817	-1.053312	0.584710	-0.507477	-0.503423	0.383598
35453	2.192741	-10.933685	-1.876109	0.581351	-0.507806	-0.508009	0.382219
35454	2.257962	-10.442463	-1.140333	0.582692	-0.503957	-0.508968	0.383991
35455	2.497188	-9.697844	0.147039	0.584109	-0.500741	-0.509015	0.385977
35456	2.241706	-9.146756	0.177825	0.582678	-0.500197	-0.510798	0.386490
35457	1.771840	-9.790962	-0.797616	0.579345	-0.501497	-0.514097	0.385441
35458	1.585144	-10.487520	-1.633320	0.577505	-0.501906	-0.516178	0.384887
35459	2.086233	-10.499898	-1.309667	0.577372	-0.499620	-0.517168	0.386728
35460	2.772436	-9.711610	-0.782035	0.577826	-0.495315	-0.517708	0.390843
35461	2.412157	-9.028481	-0.612557	0.576614	-0.493473	-0.518797	0.393510
35462	1.094037	-10.109323	-1.547224	0.575723	-0.495237	-0.518606	0.392850
35463	0.827267	-10.396723	-1.410348	0.577566	-0.493652	-0.516398	0.395042
35464	1.628574	-9.821385	-0.278110	0.578741	-0.489083	-0.515944	0.399573
35465	2.440127	-9.204055	-0.001112	0.578654	-0.484839	-0.516637	0.403952
35466	1.950549	-9.587749	-0.442359	0.577404	-0.483833	-0.517582	0.405733
35467	1.340056	-10.084546	-0.698408	0.577428	-0.482964	-0.517317	0.407069
35468	1.617528	-9.384347	0.100705	0.577342	-0.480510	-0.517567	0.409769
35469	2.302670	-9.501828	-0.281898	0.576612	-0.477944	-0.518763	0.412279
35470	2.596419	-8.853691	-0.132802	0.576159	-0.476068	-0.519137	0.414603
35471	2.267294	-9.076371	-0.134248	0.575720	-0.476219	-0.519128	0.415052
35472	1.909820	-9.110241	0.165860	0.575426	-0.476199	-0.519011	0.415629
35473	2.058750	-9.725660	-0.146217	0.574221	-0.477243	-0.519644	0.415306
35474	2.082126	-9.898294	-0.492854	0.573932	-0.477821	-0.519386	0.415363
35475	1.916996	-9.629863	-0.046332	0.573806	-0.479119	-0.518934	0.414607
35476	1.781682	-9.185207	-0.058318	0.573144	-0.479809	-0.518956	0.414697
35477	1.681347	-9.628642	-0.486954	0.571731	-0.481468	-0.519835	0.413623
35478	1.682416	-9.835742	-0.540328	0.571195	-0.482838	-0.520026	0.412525
35479	1.722541	-9.815292	-0.269440	0.570277	-0.484635	-0.520737	0.410786
35480	1.831553	-10.071636	-0.823660	0.569608	-0.486208	-0.521393	0.409020
35481	2.304810	-9.448543	-0.801010	0.569226	-0.486224	-0.521744	0.409086
35482	2.297101	-9.137823	-0.429995	0.569540	-0.487193	-0.520890	0.408585
35483	1.447952	-9.637969	-0.489360	0.570014	-0.490629	-0.519346	0.405768
35484	0.957056	-10.714028	-0.846640	0.570427	-0.493997	-0.518219	0.402527
35485	1.290908	-11.006286	-0.947938	0.572225	-0.494094	-0.516625	0.401905
35486	2.380533	-8.842099	-0.275771	0.574786	-0.490483	-0.514578	0.405288
35487	3.389328	-7.992930	0.310232	0.575707	-0.488770	-0.513174	0.407821
35488	2.738168	-8.963029	-0.242049	0.576123	-0.491847	-0.510490	0.406901
35489	1.257733	-10.623925	-0.635083	0.577844	-0.496608	-0.505927	0.404370
35490	0.889280	-11.221987	-0.240222	0.581739	-0.498392	-0.500275	0.403621
35491	1.398962	-9.831355	0.066380	0.585506	-0.495930	-0.495757	0.406768
35492	2.289459	-8.447177	0.252901	0.587748	-0.491912	-0.492983	0.411755
35493	2.561090	-8.964157	0.249063	0.588975	-0.491389	-0.490363	0.413750
35494	1.771759	-10.339672	0.165151	0.590631	-0.494574	-0.486464	0.412196
35495	1.263534	-11.239227	0.407910	0.593574	-0.496829	-0.481569	0.411001
35496	1.607660	-9.927593	0.676407	0.598385	-0.494163	-0.475301	0.414520
35497	2.061992	-7.910341	0.547226	0.600533	-0.489779	-0.471828	0.420543
35498	2.541630	-8.658706	0.150198	0.600883	-0.489328	-0.469358	0.423322
35499	1.600766	-10.071542	0.252548	0.601959	-0.493205	-0.465388	0.421672
35500	0.509383	-11.194680	0.996877	0.603602	-0.497345	-0.461406	0.418829
35501	1.424693	-11.445923	1.447657	0.607387	-0.495969	-0.456807	0.420028
35502	1.806076	-8.641258	0.478254	0.611598	-0.490630	-0.452060	0.425289
35503	1.752960	-7.522775	0.965313	0.614751	-0.488250	-0.447934	0.427841
35504	0.413659	-8.772543	1.438306	0.615260	-0.490524	-0.445724	0.426816
35505	0.425616	-10.602162	1.279675	0.614762	-0.490571	-0.445921	0.427273
35506	1.960515	-10.325638	1.656952	0.617594	-0.486652	-0.442648	0.431057
35507	1.926813	-8.809424	0.550399	0.620705	-0.483471	-0.438203	0.434693
35508	1.257634	-8.199000	1.439340	0.623404	-0.482784	-0.433282	0.436525
35509	0.348803	-8.461418	1.791863	0.624150	-0.482332	-0.431116	0.438100
35510	0.985036	-9.611240	1.340972	0.622141	-0.481974	-0.432971	0.439520
35511	1.963017	-10.562613	1.718451	0.622553	-0.481438	-0.431451	0.441016
35512	1.447552	-9.670377	2.861641	0.627098	-0.480229	-0.423988	0.443128
35513	-0.167701	-8.154934	2.506139	0.630742	-0.479571	-0.416782	0.445498
35514	-0.010357	-8.386726	1.876889	0.630072	-0.478872	-0.416047	0.447880
35515	1.260603	-9.785441	1.221147	0.628781	-0.477878	-0.416497	0.450330
35516	1.508660	-9.812500	0.601266	0.629741	-0.475845	-0.413846	0.453574
35517	1.557399	-9.445386	3.141477	0.633307	-0.473352	-0.407107	0.457300
35518	0.800591	-9.104713	3.200763	0.635942	-0.472894	-0.400100	0.460293
35519	-0.055569	-9.861270	2.545611	0.636611	-0.471650	-0.396273	0.463940
35520	0.383298	-9.774616	2.702592	0.637624	-0.469293	-0.392940	0.467758
35521	0.427855	-9.525935	2.207782	0.639100	-0.466739	-0.389355	0.471283
35522	0.544930	-8.877939	2.614209	0.641030	-0.464226	-0.385488	0.474315
35523	0.351999	-8.560675	4.223503	0.642993	-0.463696	-0.380700	0.476040
35524	-0.202976	-9.458508	2.779855	0.641977	-0.464300	-0.379559	0.477729
35525	0.488621	-10.417341	2.308156	0.640797	-0.463471	-0.379518	0.480146
35526	0.810065	-10.438675	2.261694	0.641667	-0.461602	-0.377738	0.482185
35527	0.501821	-9.569833	2.456703	0.643708	-0.459086	-0.375071	0.483944
35528	-0.071178	-8.820926	3.357692	0.645562	-0.456495	-0.372684	0.485765
35529	0.102819	-8.529556	5.171093	0.645729	-0.455386	-0.371432	0.487541
35530	0.196260	-8.739821	3.111184	0.643477	-0.456189	-0.372506	0.488946
35531	0.572732	-9.768953	2.386214	0.642392	-0.456077	-0.372603	0.490401
35532	0.782676	-9.455466	2.186517	0.642864	-0.455444	-0.371066	0.491535
35533	0.347798	-9.202983	2.352003	0.643867	-0.454523	-0.368865	0.492730
35534	-0.124180	-9.308245	3.148315	0.645301	-0.452915	-0.366153	0.494354
35535	-0.003104	-9.157482	4.707935	0.646383	-0.452471	-0.362878	0.495760
35536	-0.139481	-9.211940	3.144187	0.645655	-0.453865	-0.361252	0.496622
35537	-0.091541	-9.347620	2.847530	0.646184	-0.454110	-0.358631	0.497608
35538	-0.157535	-9.367961	3.105148	0.646708	-0.454226	-0.356777	0.498155
35539	-0.056517	-9.583685	2.937822	0.647397	-0.453800	-0.355287	0.498712
35540	-0.195073	-9.111654	3.040884	0.648769	-0.452625	-0.353338	0.499381
35541	-0.333606	-8.844643	3.090420	0.649777	-0.451078	-0.352379	0.500148
35542	-0.181455	-8.895973	2.882196	0.650360	-0.449308	-0.352247	0.501074
35543	0.011885	-9.009553	2.847141	0.650716	-0.447271	-0.352430	0.502305
35544	0.259553	-8.879790	3.019625	0.650860	-0.445557	-0.352666	0.503475
35545	0.571869	-8.967343	3.088567	0.650597	-0.444944	-0.353090	0.504060
35546	0.626702	-9.402494	2.786309	0.650594	-0.444880	-0.353225	0.504025
35547	0.329158	-9.271826	3.141720	0.651857	-0.444327	-0.351681	0.503961
35548	-0.003416	-9.085333	3.542459	0.653104	-0.444344	-0.349980	0.503515
35549	-0.214665	-8.968932	3.411064	0.653919	-0.444508	-0.348724	0.503184
35550	-0.221042	-9.029604	3.680711	0.654362	-0.445144	-0.347713	0.502745
35551	-0.442192	-8.941448	3.836330	0.654874	-0.445743	-0.346619	0.502303
35552	-0.459959	-8.668577	4.189188	0.655133	-0.446645	-0.345929	0.501640
35553	-0.329105	-9.177939	4.022013	0.654464	-0.448263	-0.346525	0.500658
35554	-0.245145	-9.543088	3.787118	0.654365	-0.449652	-0.346150	0.499800
35555	-0.292161	-9.276399	3.741950	0.654395	-0.450967	-0.345535	0.499000
35556	-0.276585	-9.164028	3.512304	0.654364	-0.451971	-0.345034	0.498479
35557	-0.358639	-9.031251	3.633291	0.654296	-0.452808	-0.344571	0.498129
35558	-0.345524	-9.100653	3.736233	0.654101	-0.453419	-0.344375	0.497964
35559	-0.195966	-9.088765	3.787827	0.654019	-0.453860	-0.344028	0.497911
35560	-0.153046	-9.144690	3.621290	0.653967	-0.454324	-0.343619	0.497838
35561	-0.089005	-9.130261	3.592769	0.654124	-0.454630	-0.343056	0.497741
35562	-0.171553	-9.139232	3.601179	0.654265	-0.455092	-0.342554	0.497479
35563	-0.267487	-9.151425	3.608482	0.654486	-0.455412	-0.342010	0.497269
35564	-0.382008	-9.017525	3.633581	0.654758	-0.455645	-0.341444	0.497087
35565	-0.255182	-9.025236	3.495648	0.654875	-0.455785	-0.341215	0.496963
35566	-0.273882	-9.001981	3.652218	0.655120	-0.455962	-0.340888	0.496701
35567	-0.299368	-9.045989	3.927675	0.655292	-0.456329	-0.340815	0.496187
35568	-0.331979	-9.102719	3.928682	0.655484	-0.456753	-0.340803	0.495551
35569	-0.357620	-9.249101	3.724863	0.655589	-0.456952	-0.340947	0.495130
35570	-0.266233	-9.482155	3.687039	0.655857	-0.456710	-0.340987	0.494969
35571	-0.188596	-9.359304	3.785081	0.656668	-0.455894	-0.340453	0.495014
35572	-0.178138	-9.143649	3.915513	0.657643	-0.454905	-0.339792	0.495084
35573	-0.204142	-9.179957	3.707734	0.658647	-0.453705	-0.339085	0.495335
35574	-0.261208	-9.260469	3.668073	0.659856	-0.452016	-0.338040	0.495985
35575	-0.178162	-9.153962	3.802086	0.661189	-0.450104	-0.336799	0.496791
35576	-0.238765	-9.362098	3.408605	0.662583	-0.447707	-0.335621	0.497896
35577	-0.229307	-9.725260	3.264506	0.664407	-0.444349	-0.334098	0.499496
35578	-0.003011	-10.071269	3.290748	0.666572	-0.440162	-0.332240	0.501554
35579	0.233262	-9.969274	3.433807	0.669374	-0.435539	-0.329582	0.503607
35580	0.078610	-10.141792	3.456831	0.672314	-0.430621	-0.326979	0.505613
35581	0.223601	-10.265391	3.046438	0.675761	-0.424884	-0.323703	0.507973
35582	0.369141	-9.583371	3.152496	0.680127	-0.418774	-0.318787	0.510324
35583	0.341247	-8.444143	3.825336	0.684816	-0.412943	-0.313194	0.512264
35584	-0.063608	-7.849134	4.280253	0.688843	-0.408489	-0.308268	0.513423
35585	-0.240410	-8.170696	4.300247	0.691930	-0.404952	-0.304762	0.514167
35586	0.013549	-8.641695	4.335139	0.694779	-0.401563	-0.301335	0.515002
35587	0.153498	-8.466470	4.539381	0.697630	-0.398221	-0.297475	0.515985
35588	0.095389	-8.284586	4.568011	0.700053	-0.395407	-0.293849	0.516945
35589	0.016344	-8.241838	4.726165	0.701801	-0.393239	-0.290827	0.517936
35590	-0.008453	-8.272808	4.631696	0.703202	-0.391224	-0.287999	0.519142
35591	-0.140711	-7.941385	4.927962	0.704654	-0.388726	-0.285051	0.520673
35592	-0.097021	-7.838176	5.021022	0.705162	-0.386639	-0.283578	0.522341
35593	0.128709	-7.723439	5.039091	0.706041	-0.384442	-0.281406	0.523947
35594	-0.018688	-7.383002	5.390813	0.707200	-0.382293	-0.278672	0.525415
35595	-0.073664	-7.398362	5.564440	0.708058	-0.380603	-0.276393	0.526690
35596	-0.147910	-7.296632	5.875171	0.708824	-0.379310	-0.274332	0.527669
35597	-0.199125	-7.378030	5.932644	0.709131	-0.378672	-0.273213	0.528295
35598	-0.214086	-7.472342	5.926853	0.709350	-0.378424	-0.272394	0.528601
35599	-0.283061	-7.469197	5.943738	0.709433	-0.378444	-0.271926	0.528716
35600	-0.331181	-7.478526	5.922424	0.709276	-0.378692	-0.271913	0.528756
35601	-0.327404	-7.386644	5.905625	0.708873	-0.379287	-0.272336	0.528654
35602	-0.314079	-7.438150	5.723798	0.708214	-0.380274	-0.273162	0.528401
35603	-0.314637	-7.689394	5.573596	0.707442	-0.381419	-0.274157	0.528094
35604	-0.265797	-7.652979	5.488124	0.706694	-0.382548	-0.275157	0.527759
35605	-0.287332	-7.763221	5.437242	0.705760	-0.383754	-0.276474	0.527445
35606	-0.251160	-7.851676	5.352605	0.704683	-0.385036	-0.278058	0.527118
35607	-0.276502	-7.936703	5.303423	0.703533	-0.386458	-0.279797	0.526692
35608	-0.241268	-8.072936	5.164526	0.702221	-0.388214	-0.281868	0.526047
35609	-0.178217	-8.218662	5.111810	0.700954	-0.390290	-0.283826	0.525147
35610	-0.237746	-8.286860	4.991516	0.699556	-0.392510	-0.286037	0.524157
35611	-0.189756	-8.531362	4.784637	0.697840	-0.394856	-0.288778	0.523178
35612	-0.172084	-8.581224	4.592492	0.696172	-0.397150	-0.291423	0.522197
35613	-0.202944	-8.574257	4.537925	0.694453	-0.399435	-0.294151	0.521211
35614	-0.279888	-8.642776	4.609458	0.692504	-0.401777	-0.297202	0.520273
35615	-0.173527	-8.754515	4.520655	0.690458	-0.404095	-0.300431	0.519341
35616	-0.158038	-8.887545	4.197422	0.688423	-0.406312	-0.303643	0.518446
35617	-0.091594	-8.803954	4.367892	0.686498	-0.408274	-0.306554	0.517742
35618	-0.073131	-8.823577	4.358992	0.684281	-0.410899	-0.309581	0.516798
35619	-0.048770	-8.902124	4.038397	0.682357	-0.413366	-0.312130	0.515840
35620	-0.109825	-8.759110	4.253529	0.680654	-0.415386	-0.314544	0.515001
35621	-0.113190	-8.796426	4.136281	0.678726	-0.417379	-0.317278	0.514257
35622	-0.147011	-8.835292	4.073288	0.676993	-0.419014	-0.319730	0.513692
35623	-0.093860	-8.687342	4.160231	0.675304	-0.420384	-0.322072	0.513334
35624	-0.002089	-8.618748	4.109263	0.673352	-0.422067	-0.324719	0.512850
35625	-0.013085	-8.632043	4.048922	0.671233	-0.424115	-0.327485	0.512178
35626	-0.037510	-8.659532	3.969563	0.668965	-0.426424	-0.330376	0.511371
35627	-0.086066	-8.780282	3.892486	0.666697	-0.428656	-0.333237	0.510609
35628	-0.127440	-8.932927	3.897431	0.664601	-0.430344	-0.336009	0.510105
35629	-0.049471	-8.892784	4.068744	0.662471	-0.431800	-0.338905	0.509730
35630	0.004987	-8.920794	4.098810	0.660265	-0.433527	-0.341929	0.509107
35631	0.034908	-8.956439	4.018204	0.658067	-0.435264	-0.345031	0.508376
35632	0.030399	-9.026997	3.867421	0.656012	-0.436920	-0.347960	0.507616
35633	0.030802	-9.070085	3.809552	0.654019	-0.438563	-0.350647	0.506921
35634	0.031408	-9.177948	3.620064	0.651973	-0.440315	-0.353248	0.506231
35635	0.088799	-9.408844	3.376660	0.649907	-0.442002	-0.355697	0.505702
35636	0.162995	-9.609641	3.286157	0.648395	-0.443185	-0.357294	0.505482
35637	0.229588	-9.597032	3.267828	0.647518	-0.443783	-0.358010	0.505574
35638	0.285964	-9.616044	3.323594	0.647093	-0.444022	-0.358133	0.505822
35639	0.173050	-9.495548	3.445722	0.647128	-0.443912	-0.357615	0.506240
35640	0.046994	-9.252543	3.576032	0.647261	-0.443617	-0.356976	0.506780
35641	0.054553	-9.122793	3.587222	0.647227	-0.443417	-0.356513	0.507324
35642	0.088545	-9.309306	3.641096	0.646901	-0.443337	-0.356502	0.507817
35643	0.246153	-9.358487	3.562925	0.646731	-0.443033	-0.356410	0.508363
35644	0.352230	-9.190882	3.716070	0.646768	-0.442610	-0.356066	0.508925
35645	0.297191	-9.099445	3.772704	0.646842	-0.442282	-0.355716	0.509361
35646	0.290095	-9.153446	3.804080	0.647045	-0.441785	-0.355196	0.509896
35647	0.356251	-9.070028	3.892302	0.647404	-0.441164	-0.354421	0.510518
35648	0.418391	-8.966745	3.958323	0.647914	-0.440311	-0.353476	0.511262
35649	0.556864	-8.811623	4.165382	0.648566	-0.439417	-0.352295	0.512019
35650	0.611017	-8.687628	4.292544	0.649101	-0.438797	-0.351094	0.512698
35651	0.616138	-8.535261	4.062331	0.649469	-0.438344	-0.349937	0.513409
35652	0.570295	-8.570504	3.914374	0.649529	-0.437922	-0.349159	0.514221
35653	0.621333	-9.241023	3.628008	0.649254	-0.437072	-0.348957	0.515428
35654	1.028845	-9.561164	3.585626	0.649365	-0.435803	-0.348208	0.516867
35655	1.094652	-9.342154	3.428025	0.650264	-0.434148	-0.346312	0.518403
35656	0.851986	-9.292001	3.335784	0.651404	-0.431802	-0.344297	0.520269
35657	0.893102	-9.430048	3.202344	0.652512	-0.429055	-0.342503	0.522333
35658	1.314228	-9.239706	3.338448	0.653818	-0.425992	-0.340266	0.524663
35659	1.612612	-8.829395	3.667901	0.655178	-0.423315	-0.337736	0.526764
35660	1.760277	-8.560181	3.776840	0.656324	-0.420816	-0.335556	0.528729
35661	1.812767	-8.702915	3.665927	0.657516	-0.418284	-0.333325	0.530666
35662	1.794813	-8.943094	3.752602	0.659074	-0.415312	-0.330475	0.532845
35663	1.811812	-8.765563	3.998570	0.660819	-0.412320	-0.327226	0.535008
35664	1.804707	-8.628050	4.141548	0.662472	-0.409732	-0.324093	0.536856
35665	1.667206	-8.588516	4.330749	0.664171	-0.407594	-0.320968	0.538259
35666	1.474316	-8.655421	4.416207	0.665714	-0.405949	-0.318174	0.539255
35667	1.368033	-8.862080	4.444408	0.667242	-0.404498	-0.315510	0.540021
35668	1.168762	-8.980729	4.395237	0.669080	-0.402948	-0.312368	0.540733
35669	0.826563	-8.892212	4.773172	0.671186	-0.401458	-0.308844	0.541254
35670	0.506210	-8.858946	5.046158	0.673217	-0.400369	-0.305455	0.541461
35671	0.065066	-8.917231	5.365552	0.675392	-0.399813	-0.301921	0.541147
35672	-0.408558	-9.044314	5.127528	0.677586	-0.399665	-0.298617	0.540346
35673	-0.616862	-9.042782	4.821283	0.679860	-0.399976	-0.295654	0.538886
35674	-0.520939	-8.805472	4.720985	0.682646	-0.400369	-0.292715	0.536672
35675	-0.754192	-8.412490	4.796278	0.686375	-0.400826	-0.288882	0.533643
35676	-1.321463	-7.981318	5.059760	0.690634	-0.401489	-0.284550	0.529965
35677	-1.916589	-7.660776	5.191807	0.694692	-0.402441	-0.280504	0.526082
35678	-2.165198	-7.810672	5.132760	0.697945	-0.403749	-0.277480	0.522364
35679	-2.038190	-8.077404	5.076752	0.700712	-0.404988	-0.274938	0.519034
35680	-1.905631	-8.136743	5.179426	0.703196	-0.406141	-0.272627	0.515985
35681	-1.874857	-8.218952	5.296991	0.705482	-0.407205	-0.270481	0.513146
35682	-2.031985	-8.246860	5.330358	0.707546	-0.408262	-0.268454	0.510523
35683	-2.121007	-8.241852	5.042974	0.709239	-0.409480	-0.266938	0.507987
35684	-2.009388	-8.250418	4.817333	0.710601	-0.410736	-0.266161	0.505471
35685	-1.560169	-8.385364	4.642284	0.711732	-0.412109	-0.266017	0.502831
35686	-1.297086	-8.581642	4.559338	0.713079	-0.413526	-0.265657	0.499941
35687	-1.302771	-8.710819	4.698287	0.714905	-0.414717	-0.264692	0.496848
35688	-1.516298	-8.407692	4.859006	0.717135	-0.415592	-0.263215	0.493679
35689	-1.686533	-8.283322	4.909468	0.719150	-0.416571	-0.262152	0.490477
35690	-1.594522	-8.293145	4.885528	0.721027	-0.417399	-0.261412	0.487404
35691	-1.322029	-8.124420	4.873108	0.722656	-0.418412	-0.260919	0.484377
35692	-1.239303	-8.034341	4.801186	0.723724	-0.420320	-0.260882	0.481141
35693	-1.320712	-8.275345	4.589752	0.724546	-0.422387	-0.261143	0.477940
35694	-1.389145	-8.432463	4.550355	0.725313	-0.424205	-0.261449	0.474991
35695	-1.371020	-8.574073	4.536910	0.725939	-0.425786	-0.261905	0.472361
35696	-1.110246	-9.062117	4.456721	0.726240	-0.427311	-0.262795	0.470021
35697	-0.665121	-9.158784	4.272503	0.726997	-0.428413	-0.263060	0.467693
35698	-0.570157	-8.679515	4.298572	0.728260	-0.429222	-0.262803	0.465125
35699	-0.419283	-8.315899	4.213181	0.729480	-0.430109	-0.262683	0.462452
35700	-0.497748	-8.097989	4.002583	0.730567	-0.431211	-0.262590	0.459756
35701	-0.628359	-8.005532	4.011532	0.731403	-0.432313	-0.262715	0.457315
35702	-0.584742	-8.240079	4.070472	0.732105	-0.433166	-0.263011	0.455208
35703	-0.399132	-8.499910	4.101470	0.732832	-0.433747	-0.263195	0.453375
35704	-0.262867	-8.649366	4.134910	0.733864	-0.433695	-0.262931	0.451907
35705	-0.156359	-8.594842	4.229367	0.735135	-0.433119	-0.262365	0.450721
35706	-0.250546	-8.496397	4.386363	0.736410	-0.432322	-0.261625	0.449833
35707	-0.483995	-8.418794	4.477801	0.737547	-0.431400	-0.260892	0.449281
35708	-0.555533	-8.527435	4.621867	0.738412	-0.430488	-0.260442	0.448997
35709	-0.394311	-8.620104	4.766254	0.739204	-0.429408	-0.260164	0.448889
35710	-0.024460	-8.623069	5.211249	0.740050	-0.428229	-0.259823	0.448819
35711	0.137734	-8.700861	5.413190	0.740848	-0.427112	-0.259392	0.448815
35712	-0.122263	-8.525105	5.460362	0.741856	-0.425777	-0.258561	0.448899
35713	-0.153363	-8.466768	5.515208	0.742368	-0.424673	-0.258397	0.449192
35714	0.234347	-8.452826	5.686102	0.742672	-0.423633	-0.258465	0.449632
35715	0.321853	-8.325368	5.725126	0.742867	-0.422745	-0.258498	0.450127
35716	0.029421	-8.124131	5.690682	0.742965	-0.422084	-0.258420	0.450630
35717	-0.109382	-8.005008	5.563034	0.742473	-0.421978	-0.259047	0.451179
35718	-0.195952	-8.145802	5.129729	0.741605	-0.422230	-0.259924	0.451867
35719	-0.183034	-8.081187	4.998293	0.740529	-0.422607	-0.260885	0.452725
35720	-0.113783	-8.172136	4.754672	0.739130	-0.423253	-0.262111	0.453698
35721	-0.289046	-8.078966	4.767522	0.737713	-0.423977	-0.263037	0.454790
35722	-0.523075	-8.085002	4.834270	0.735893	-0.425090	-0.264330	0.455949
35723	-0.736891	-8.122943	4.665214	0.733838	-0.426378	-0.265680	0.457273
35724	-0.688549	-8.283160	4.551994	0.731352	-0.428005	-0.267592	0.458617
35725	-0.417348	-8.649268	4.518854	0.728838	-0.429609	-0.269662	0.459907
35726	-0.177314	-8.674418	4.648193	0.726689	-0.431094	-0.271407	0.460889
35727	-0.302735	-8.562146	4.846545	0.724901	-0.432503	-0.272843	0.461537
35728	-0.613699	-8.442432	4.956710	0.723068	-0.434069	-0.274512	0.461952
35729	-0.993900	-8.470724	4.595232	0.720890	-0.435675	-0.276689	0.462545
35730	-1.125920	-8.508832	4.261213	0.718232	-0.437481	-0.279601	0.463224
35731	-0.877409	-8.931930	3.848759	0.715265	-0.439155	-0.283107	0.464100
35732	-0.590269	-8.968589	3.698076	0.712605	-0.440502	-0.286236	0.464996
35733	-0.530313	-8.844120	3.883909	0.710196	-0.441664	-0.289019	0.465856
35734	-0.825978	-8.944310	4.011139	0.707869	-0.442816	-0.291558	0.466721
35735	-1.033175	-9.121203	3.716241	0.705281	-0.444055	-0.294353	0.467707
35736	-0.888959	-9.238748	3.224608	0.702608	-0.445051	-0.297453	0.468821
35737	-0.582996	-9.264792	3.123124	0.700155	-0.445758	-0.300474	0.469892
35738	-0.194637	-9.472189	3.252640	0.697953	-0.446339	-0.303398	0.470737
35739	-0.338249	-9.520505	3.695007	0.696714	-0.446536	-0.304924	0.471399
35740	-0.971770	-9.108018	3.988874	0.695719	-0.446615	-0.306034	0.472074
35741	-1.179686	-9.122577	3.741401	0.694156	-0.446805	-0.307987	0.472924
35742	-0.973422	-9.417297	3.386301	0.692274	-0.447061	-0.310503	0.473795
35743	-0.684708	-9.626198	3.271044	0.690739	-0.447090	-0.312671	0.474582
35744	-0.650339	-9.431193	3.473041	0.689875	-0.446667	-0.314168	0.475248
35745	-0.849214	-9.290097	3.617853	0.689326	-0.446033	-0.315360	0.475848
35746	-1.289332	-8.896417	3.421520	0.688998	-0.445223	-0.316170	0.476544
35747	-1.409303	-8.745797	3.136874	0.688042	-0.444680	-0.317905	0.477277
35748	-0.839909	-9.147605	2.938599	0.686730	-0.444362	-0.320132	0.477974
35749	-0.631464	-9.458205	3.008637	0.686130	-0.443819	-0.321360	0.478516
35750	-0.540592	-9.421191	3.320319	0.686196	-0.442836	-0.321887	0.478979
35751	-0.375781	-9.234618	3.445567	0.686932	-0.441528	-0.321650	0.479290
35752	-0.532370	-8.836091	3.626134	0.688220	-0.439912	-0.320748	0.479532
35753	-0.624380	-8.536497	3.753627	0.689566	-0.438119	-0.319950	0.479774
35754	-0.437123	-8.311319	3.750231	0.690762	-0.436588	-0.319463	0.479773
35755	0.010140	-8.378286	3.626554	0.691750	-0.435519	-0.319186	0.479506
35756	0.497833	-8.548710	3.671668	0.692756	-0.434761	-0.318690	0.479071
35757	1.010239	-8.560968	4.039411	0.693946	-0.434516	-0.317554	0.478324
35758	1.117443	-8.987440	4.191716	0.695009	-0.434784	-0.316236	0.477410
35759	1.305967	-9.409570	4.427309	0.696380	-0.434560	-0.314759	0.476591
35760	1.621724	-9.473944	4.392983	0.698131	-0.434349	-0.312717	0.475565
35761	1.666263	-9.283913	4.353913	0.700521	-0.433758	-0.309960	0.474393
35762	1.667063	-8.703835	4.395231	0.703397	-0.432634	-0.306675	0.473298
35763	1.319608	-7.783642	4.683062	0.706629	-0.431390	-0.302823	0.472097
35764	0.765037	-7.391023	5.102650	0.709082	-0.430537	-0.299832	0.471106
35765	0.659507	-7.582017	5.273212	0.710615	-0.429847	-0.297818	0.470704
35766	0.534574	-7.915341	5.437578	0.711593	-0.429164	-0.296133	0.470912
35767	0.377686	-8.166676	5.406865	0.712005	-0.428497	-0.295001	0.471608
35768	0.342926	-8.475321	5.279966	0.711822	-0.427936	-0.294544	0.472677
35769	0.419427	-8.939485	5.126747	0.711214	-0.427476	-0.294682	0.473922
35770	0.353870	-9.159134	5.020827	0.710768	-0.426835	-0.294554	0.475245
35771	0.268305	-9.086725	5.014821	0.710399	-0.425962	-0.294585	0.476560
35772	0.378256	-8.988980	4.904511	0.710173	-0.424913	-0.294711	0.477754
35773	0.279693	-8.830184	4.755763	0.710322	-0.423563	-0.294573	0.478814
35774	0.006637	-8.289851	4.912828	0.710814	-0.421981	-0.294109	0.479766
35775	0.074545	-8.018342	4.949209	0.710956	-0.420701	-0.294280	0.480574
35776	0.174862	-8.056771	4.820290	0.710926	-0.419718	-0.294679	0.481233
35777	0.040247	-8.000411	4.740060	0.710843	-0.418998	-0.295118	0.481714
35778	-0.255853	-8.138968	4.674714	0.710553	-0.418609	-0.295815	0.482053
35779	-0.498321	-8.324044	4.655124	0.710032	-0.418421	-0.296815	0.482369
35780	-0.647000	-8.475692	4.514475	0.709244	-0.418485	-0.298157	0.482644
35781	-0.715362	-8.583594	4.357745	0.708372	-0.418658	-0.299696	0.482821
35782	-0.710544	-8.671426	4.181092	0.707362	-0.419098	-0.301568	0.482756
35783	-0.716020	-8.751695	4.079820	0.706257	-0.419909	-0.303567	0.482415
35784	-0.906843	-8.758419	4.087440	0.705332	-0.420660	-0.305428	0.481940
35785	-0.889452	-8.626516	4.095498	0.704526	-0.421178	-0.307430	0.481393
35786	-0.791894	-8.397693	4.133099	0.703932	-0.421638	-0.309356	0.480625
35787	-0.723725	-8.206615	4.109376	0.703373	-0.422637	-0.311310	0.479303
35788	-0.982086	-8.221201	3.919071	0.702916	-0.424232	-0.313033	0.477438
35789	-1.520713	-8.163473	3.847219	0.702704	-0.425666	-0.314545	0.475476
35790	-1.645327	-8.296464	4.402797	0.702310	-0.426787	-0.316424	0.473803
35791	-1.432809	-8.527323	4.818088	0.701849	-0.427726	-0.318220	0.472434
35792	-1.320983	-8.454902	5.263023	0.701465	-0.429033	-0.319573	0.470903
35793	-1.397712	-8.692049	5.075588	0.700798	-0.431074	-0.321148	0.468958
35794	-1.209228	-9.099814	4.948366	0.699957	-0.432793	-0.323274	0.467166
35795	-0.819611	-9.444043	5.038449	0.698968	-0.434000	-0.325998	0.465632
35796	-0.372735	-9.644202	5.153086	0.697833	-0.434815	-0.329227	0.464300
35797	-0.107600	-10.202713	5.242655	0.696456	-0.435252	-0.332924	0.463322
35798	0.085970	-10.705481	5.174358	0.694797	-0.435425	-0.336889	0.462783
35799	0.236365	-10.577459	4.890289	0.693287	-0.435146	-0.340380	0.462755
35800	0.367441	-9.900196	4.503798	0.691652	-0.434462	-0.343790	0.463323
35801	0.769269	-9.386772	3.835057	0.689810	-0.433322	-0.347256	0.464551
35802	1.136920	-8.849705	3.570506	0.688099	-0.431390	-0.350174	0.466691
35803	1.719983	-8.447972	3.392188	0.686185	-0.428909	-0.352968	0.469683
35804	2.065236	-8.127519	3.396129	0.684158	-0.426190	-0.355531	0.473168
35805	2.085385	-8.295879	3.407051	0.681709	-0.423656	-0.358418	0.476785
35806	2.105072	-8.910039	3.355294	0.678958	-0.421363	-0.361480	0.480418
35807	2.059832	-9.377676	3.143509	0.676319	-0.419083	-0.364325	0.483972
35808	2.190137	-9.592564	3.062719	0.673991	-0.416659	-0.366888	0.487365
35809	2.435868	-9.638907	2.990827	0.672004	-0.414306	-0.369011	0.490502
35810	2.071730	-9.293050	2.937376	0.670523	-0.411793	-0.370397	0.493591
35811	1.725728	-8.840707	3.009168	0.669051	-0.409130	-0.371829	0.496715
35812	2.059652	-8.815076	3.060152	0.667297	-0.406566	-0.373597	0.499844
35813	2.321318	-8.698021	3.139527	0.665761	-0.404036	-0.374904	0.502955
35814	2.356248	-8.468795	3.324312	0.664388	-0.401750	-0.375963	0.505804
35815	2.081132	-8.518260	3.332253	0.663146	-0.399808	-0.376784	0.508354
35816	1.775397	-8.519303	3.346236	0.662116	-0.397915	-0.377322	0.510779
35817	1.675816	-8.574322	3.478898	0.661131	-0.396160	-0.377875	0.513004
35818	1.636037	-8.493909	3.670190	0.660298	-0.394516	-0.378303	0.515024
35819	1.680744	-8.198580	3.703462	0.659335	-0.393136	-0.379076	0.516742
35820	1.684415	-8.091802	3.670342	0.658306	-0.391997	-0.380156	0.518126
35821	1.737981	-8.034819	3.488039	0.657196	-0.391079	-0.381614	0.519155
35822	1.828097	-7.987094	3.324922	0.656106	-0.390324	-0.383218	0.519919
35823	1.692578	-8.089650	3.240128	0.655139	-0.389643	-0.384765	0.520507
35824	1.528944	-8.418848	3.323357	0.654272	-0.389038	-0.386268	0.520937
35825	1.522896	-8.570034	3.479952	0.653585	-0.388390	-0.387510	0.521359
35826	1.652562	-8.957440	3.577019	0.652820	-0.387669	-0.388882	0.521833
35827	1.799993	-9.200420	3.632686	0.652207	-0.386937	-0.390010	0.522300
35828	1.903735	-8.964841	3.653082	0.651924	-0.386273	-0.390845	0.522521
35829	1.876598	-8.911494	3.556576	0.651789	-0.385930	-0.391647	0.522343
35830	1.693852	-9.030976	3.424121	0.651966	-0.385651	-0.392106	0.521984
35831	1.515216	-9.087171	3.626170	0.652361	-0.385344	-0.392264	0.521598
35832	1.371810	-8.983244	3.748250	0.652812	-0.384981	-0.392148	0.521389
35833	1.137612	-8.843787	3.861519	0.653153	-0.384558	-0.392003	0.521382
35834	0.988516	-8.772152	3.777878	0.653243	-0.384254	-0.391923	0.521554
35835	0.927523	-8.760772	3.667775	0.653085	-0.383830	-0.392023	0.521989
35836	1.095642	-9.005999	3.605387	0.652856	-0.383273	-0.392099	0.522627
35837	1.226887	-8.868251	3.765839	0.652844	-0.382688	-0.391794	0.523299
35838	1.159999	-8.666267	3.959937	0.652919	-0.382287	-0.391485	0.523729
35839	1.096322	-9.242163	4.156671	0.652764	-0.382262	-0.391611	0.523846
35840	1.167884	-10.190503	4.363820	0.652808	-0.382035	-0.391448	0.524080
35841	1.135248	-10.356965	4.759161	0.653286	-0.381620	-0.390676	0.524363
35842	1.202584	-9.901183	4.873871	0.653933	-0.381142	-0.389838	0.524527
35843	1.216022	-9.227436	4.634457	0.654565	-0.380956	-0.389242	0.524317
35844	0.984632	-8.723811	4.223030	0.654683	-0.381307	-0.389534	0.523698
35845	0.801849	-8.675179	3.905472	0.654312	-0.382123	-0.390487	0.522855
35846	0.915314	-8.766819	3.815542	0.653686	-0.382998	-0.391688	0.522100
35847	1.371190	-9.084172	3.756147	0.652922	-0.383838	-0.393004	0.521449
35848	1.455939	-9.545223	3.572605	0.652439	-0.384598	-0.394063	0.520694
35849	1.466424	-9.770579	3.284070	0.652393	-0.385342	-0.394946	0.519531
35850	1.294441	-9.648811	3.004545	0.652942	-0.386147	-0.395489	0.517828
35851	1.435560	-9.363286	3.020420	0.654112	-0.386742	-0.395577	0.515837
35852	1.680219	-9.019886	3.289906	0.655897	-0.386869	-0.395038	0.513884
35853	1.597069	-8.937705	3.383747	0.657855	-0.386910	-0.394322	0.511896
35854	1.205751	-8.931981	3.236704	0.659922	-0.386816	-0.393605	0.509855
35855	1.211340	-9.040022	2.983967	0.661812	-0.386986	-0.393264	0.507533
35856	1.391857	-9.055901	3.038725	0.664008	-0.387030	-0.392712	0.505052
35857	1.938205	-9.044756	3.283579	0.666329	-0.387056	-0.392193	0.502372
35858	1.956621	-9.155978	3.397428	0.668952	-0.386991	-0.391162	0.499733
35859	1.441434	-9.032725	3.204804	0.671714	-0.386667	-0.390022	0.497163
35860	1.151111	-8.880169	3.015919	0.674323	-0.386274	-0.389232	0.494550
35861	1.618388	-8.846402	3.071429	0.677166	-0.385624	-0.388304	0.491894
35862	2.562229	-8.368054	3.478968	0.680487	-0.384915	-0.386767	0.489070
35863	2.686630	-8.140398	3.690384	0.684091	-0.384373	-0.384698	0.486091
35864	2.055011	-8.224671	3.832061	0.687659	-0.383891	-0.382620	0.483069
35865	1.417019	-8.757491	4.070118	0.690514	-0.383910	-0.381350	0.479975
35866	1.352799	-8.943345	3.903089	0.693390	-0.383712	-0.379902	0.477127
35867	1.905569	-8.251449	3.948875	0.696395	-0.383328	-0.378093	0.474488
35868	2.592891	-7.804356	4.028914	0.699479	-0.383032	-0.376119	0.471752
35869	2.599214	-7.853129	3.878997	0.702437	-0.382803	-0.374227	0.469039
35870	2.270222	-8.034419	3.909843	0.705132	-0.382653	-0.372699	0.466327
35871	2.292470	-8.533873	3.928817	0.707539	-0.382597	-0.371592	0.463603
35872	2.487082	-8.667137	3.997270	0.710231	-0.382436	-0.370023	0.460866
35873	2.604645	-8.116779	4.263694	0.713239	-0.381931	-0.367908	0.458326
35874	2.471506	-7.638539	4.682918	0.716178	-0.381601	-0.365683	0.455791
35875	2.384906	-7.779087	4.614996	0.718357	-0.381866	-0.364136	0.453372
35876	2.403629	-8.198844	4.352623	0.720194	-0.382121	-0.362875	0.451249
35877	2.523407	-8.361593	4.085151	0.721901	-0.382254	-0.361710	0.449340
35878	2.451552	-8.201851	4.104532	0.723619	-0.382155	-0.360504	0.447628
35879	2.324182	-7.703078	4.144641	0.725205	-0.381951	-0.359368	0.446146
35880	2.167655	-7.263952	4.291440	0.726607	-0.381586	-0.358258	0.445068
35881	2.426085	-6.904521	4.468935	0.727626	-0.381282	-0.357414	0.444342
35882	2.746018	-7.012000	4.568672	0.728326	-0.381253	-0.356586	0.443884
35883	3.154035	-7.584090	4.747112	0.728645	-0.381547	-0.356039	0.443547
35884	3.274394	-8.337437	4.763360	0.728923	-0.381842	-0.355258	0.443463
35885	2.893785	-8.570836	4.985286	0.729430	-0.381926	-0.354150	0.443444
35886	2.736716	-8.882117	4.895420	0.729874	-0.382058	-0.353210	0.443349
35887	2.563759	-8.855762	4.686692	0.730552	-0.382038	-0.352076	0.443152
35888	2.604000	-8.483101	4.585459	0.731167	-0.382113	-0.351194	0.442772
35889	2.638216	-8.605718	4.573954	0.731731	-0.382362	-0.350312	0.442324
35890	2.327561	-8.650682	4.624372	0.732317	-0.382498	-0.349271	0.442060
35891	2.089768	-8.646640	4.649318	0.732720	-0.382592	-0.348250	0.442116
35892	1.953987	-8.663973	4.670856	0.732859	-0.382723	-0.347283	0.442533
35893	1.657302	-8.580487	4.668456	0.732751	-0.382972	-0.346393	0.443193
35894	1.632311	-8.715435	4.641391	0.732426	-0.383336	-0.345658	0.443989
35895	1.838386	-8.882306	4.703855	0.732034	-0.383776	-0.344909	0.444837
35896	1.896836	-9.496135	4.836763	0.731658	-0.384199	-0.344026	0.445774
35897	1.618132	-10.321810	5.109366	0.731480	-0.384477	-0.342677	0.446863
35898	0.972444	-10.803651	5.124482	0.731644	-0.384452	-0.340618	0.448188
35899	0.328993	-9.733450	4.899883	0.732097	-0.384174	-0.338292	0.449448
35900	0.726512	-8.741185	4.490316	0.732195	-0.384510	-0.336725	0.450176
35901	1.085753	-8.316865	4.017168	0.732471	-0.385187	-0.334978	0.450451
35902	1.083599	-7.906475	3.880392	0.733015	-0.385931	-0.332794	0.450548
35903	1.058582	-7.695844	3.894449	0.733634	-0.386864	-0.330201	0.450648
35904	0.861156	-7.661744	4.160809	0.734320	-0.388014	-0.327040	0.450849
35905	0.535079	-7.844478	4.433913	0.734841	-0.389555	-0.323657	0.451112
35906	0.382819	-8.099037	4.733161	0.735154	-0.391497	-0.320203	0.451386
35907	0.232120	-8.147881	4.801509	0.735261	-0.394151	-0.316637	0.451417
35908	-0.005655	-8.308504	4.814824	0.735256	-0.397286	-0.312963	0.451238
35909	-0.046893	-8.317704	4.720705	0.735235	-0.400802	-0.309064	0.450851
35910	-0.275728	-8.117611	4.707185	0.735063	-0.404666	-0.305268	0.450266
35911	-0.584815	-8.092149	4.610160	0.734716	-0.408720	-0.301734	0.449552
35912	-0.731533	-8.190407	4.611484	0.734038	-0.412892	-0.298687	0.448881
35913	-0.757494	-8.292327	4.661417	0.733226	-0.416974	-0.295840	0.448321
35914	-0.984187	-8.296278	4.758807	0.732217	-0.421006	-0.293295	0.447873
35915	-1.147844	-8.309158	4.783411	0.730795	-0.425028	-0.291400	0.447634
35916	-1.120988	-8.436222	4.679050	0.729121	-0.428897	-0.289927	0.447630
35917	-0.974755	-8.521578	4.551670	0.727236	-0.432548	-0.288925	0.447830
35918	-0.722525	-8.672739	4.418245	0.725107	-0.436192	-0.288402	0.448086
35919	-0.593993	-8.802241	4.246023	0.722980	-0.439787	-0.288017	0.448257
35920	-0.567844	-9.009446	4.184832	0.720890	-0.443274	-0.287728	0.448373
35921	-0.509468	-9.062723	4.116950	0.718912	-0.446545	-0.287510	0.448444
35922	-0.449957	-9.126248	3.922401	0.716971	-0.449623	-0.287445	0.448516
35923	-0.311508	-9.119630	3.636768	0.715246	-0.452428	-0.287219	0.448596
35924	-0.125880	-9.306400	3.503433	0.713771	-0.455297	-0.286616	0.448426
35925	-0.147472	-9.230331	3.383180	0.712758	-0.458104	-0.285407	0.447950
35926	-0.303307	-9.092392	3.531761	0.711991	-0.460929	-0.284026	0.447150
35927	-0.341525	-9.168992	3.580788	0.711462	-0.463800	-0.282474	0.446004
35928	-0.458163	-9.199481	3.582738	0.711259	-0.466497	-0.280752	0.444601
35929	-0.430155	-9.222942	3.646510	0.711330	-0.469033	-0.278937	0.442958
35930	-0.539420	-9.174382	3.753240	0.711668	-0.471498	-0.276976	0.441023
35931	-0.833463	-8.986180	3.946610	0.712254	-0.473719	-0.274963	0.438953
35932	-0.864310	-8.891531	3.961848	0.712836	-0.475755	-0.273240	0.436878
35933	-0.800631	-8.821423	3.959285	0.713330	-0.477722	-0.271795	0.434821
35934	-0.758454	-8.947567	3.969690	0.713724	-0.479549	-0.270638	0.432881
35935	-0.779840	-8.890524	3.913803	0.714147	-0.481214	-0.269594	0.430982
35936	-0.864050	-8.781529	3.982782	0.714511	-0.482802	-0.268793	0.429100
35937	-0.788318	-8.865599	3.974588	0.714736	-0.484333	-0.268267	0.427325
35938	-0.682593	-8.899273	3.981408	0.714818	-0.485841	-0.267969	0.425659
35939	-0.649964	-8.902522	3.889841	0.714881	-0.487211	-0.267824	0.424076
35940	-0.647163	-8.870692	3.873157	0.714821	-0.488530	-0.267962	0.422571
35941	-0.634594	-8.948414	3.781713	0.714767	-0.489749	-0.268156	0.421124
35942	-0.573965	-9.052469	3.773312	0.714685	-0.490864	-0.268408	0.419803
35943	-0.444393	-9.127609	3.722551	0.714509	-0.491958	-0.268772	0.418588
35944	-0.415545	-9.136236	3.573150	0.714298	-0.493042	-0.269167	0.417416
35945	-0.362609	-9.141280	3.550748	0.714127	-0.494054	-0.269571	0.416251
35946	-0.335896	-9.154194	3.520278	0.713927	-0.495077	-0.270015	0.415089
35947	-0.343788	-9.217391	3.448789	0.713814	-0.495990	-0.270412	0.413933
35948	-0.325251	-9.259426	3.379378	0.713746	-0.496832	-0.270762	0.412810
35949	-0.277389	-9.284440	3.357514	0.713859	-0.497466	-0.270941	0.411732
35950	-0.271297	-9.328997	3.391262	0.714096	-0.497898	-0.271020	0.410746
35951	-0.297992	-9.372616	3.432379	0.714454	-0.498136	-0.270989	0.409854
35952	-0.266900	-9.317806	3.404762	0.714866	-0.498287	-0.270915	0.409001
35953	-0.134171	-9.264660	3.414912	0.715305	-0.498438	-0.270862	0.408082
35954	-0.008012	-9.265817	3.399439	0.715829	-0.498730	-0.270661	0.406941
35955	-0.015415	-9.266120	3.348723	0.716419	-0.499076	-0.270404	0.405647
35956	-0.017174	-9.262475	3.381673	0.717356	-0.499056	-0.269846	0.404384
35957	-0.066822	-9.188335	3.445838	0.718359	-0.499070	-0.269111	0.403075
35958	-0.162688	-9.109378	3.446629	0.719457	-0.498962	-0.268169	0.401877
35959	-0.122909	-8.981893	3.476026	0.720543	-0.498792	-0.267214	0.400776
35960	-0.050180	-8.988370	3.440886	0.721588	-0.498603	-0.266207	0.399800
35961	0.012807	-9.007551	3.490674	0.722760	-0.498366	-0.265014	0.398770
35962	0.002374	-9.020896	3.557124	0.724010	-0.498141	-0.263635	0.397695
35963	0.055302	-9.137043	3.675447	0.725360	-0.497981	-0.262023	0.396498
35964	0.065974	-9.161945	3.549773	0.726716	-0.497968	-0.260276	0.395180
35965	-0.085619	-9.073483	3.446192	0.728179	-0.497987	-0.258326	0.393741
35966	-0.049930	-9.030518	3.582546	0.729347	-0.498217	-0.256737	0.392325
35967	0.093575	-9.125574	3.592916	0.730331	-0.498789	-0.255227	0.390750
35968	0.171076	-9.222192	3.555418	0.731213	-0.499623	-0.253827	0.388943
35969	0.237545	-9.351166	3.450290	0.732261	-0.500448	-0.252232	0.386942
35970	0.039472	-9.273568	3.375728	0.733466	-0.501204	-0.250489	0.384810
35971	-0.052455	-9.163131	3.386179	0.734710	-0.501841	-0.248899	0.382630
35972	-0.025048	-9.144413	3.436216	0.735950	-0.502412	-0.247457	0.380427
35973	-0.085741	-9.170736	3.455950	0.737095	-0.503109	-0.246090	0.378170
35974	-0.129111	-9.064422	3.551953	0.738099	-0.503951	-0.244878	0.375869
35975	-0.107010	-9.095023	3.676299	0.738757	-0.505398	-0.243846	0.373296
35976	-0.119405	-9.198098	3.652189	0.739295	-0.507115	-0.242724	0.370625
35977	-0.135093	-9.179575	3.644330	0.739956	-0.508604	-0.241499	0.368056
35978	-0.219851	-9.132824	3.507383	0.740520	-0.509969	-0.240470	0.365699
35979	-0.190358	-9.095473	3.253091	0.741162	-0.510937	-0.239623	0.363598
35980	-0.164331	-9.088114	3.084499	0.741839	-0.511605	-0.238907	0.361744
35981	-0.193529	-9.168112	3.148193	0.742420	-0.512167	-0.238341	0.360126
35982	-0.139809	-9.143775	3.350572	0.743002	-0.512541	-0.237825	0.358732
35983	-0.115105	-9.029119	3.431435	0.743627	-0.512818	-0.237199	0.357454
35984	-0.242082	-9.000152	3.504371	0.744301	-0.512899	-0.236602	0.356330
35985	-0.291868	-8.974030	3.742440	0.744814	-0.513024	-0.236320	0.355264
35986	-0.207240	-9.095492	3.818935	0.745061	-0.513530	-0.236218	0.354078
35987	-0.257914	-9.091681	3.675030	0.745316	-0.514048	-0.236137	0.352843
35988	-0.321460	-9.109767	3.575421	0.745460	-0.514640	-0.236214	0.351622
35989	-0.280734	-9.042322	3.685847	0.745584	-0.515204	-0.236329	0.350453
35990	-0.186694	-9.065840	3.518830	0.745585	-0.515794	-0.236589	0.349408
35991	-0.318409	-9.080101	3.552448	0.745667	-0.516173	-0.236770	0.348549
35992	-0.383822	-8.836736	3.313770	0.745635	-0.516685	-0.236978	0.347716
35993	-0.369536	-9.037381	3.204198	0.745351	-0.517351	-0.237597	0.346913
35994	-0.259443	-9.326947	3.289338	0.745124	-0.517906	-0.238213	0.346147
