// Start Time: Unknown
// Update Rate: 60.0Hz
// Filter Profile: human (46.1)
// Option Flags: AHS Disabled ICC Disabled 
// Firmware Version: 4.3.5
PacketCounter	Acc_X	Acc_Y	Acc_Z	Quat_q0	Quat_q1	Quat_q2	Quat_q3
34999	-0.407633	-1.564204	9.743623	0.794541	-0.090266	-0.039872	0.599139
35000	-0.302533	-1.618840	9.691980	0.793922	-0.090420	-0.039484	0.599960
35001	-0.413710	-1.857638	9.630848	0.793126	-0.090801	-0.039233	0.600971
35002	-0.364582	-2.102434	9.633805	0.792377	-0.091100	-0.038895	0.601936
35003	-0.488156	-2.229467	9.605592	0.791772	-0.090850	-0.038259	0.602810
35004	-0.613964	-2.038291	9.599394	0.791311	-0.090012	-0.037557	0.603585
35005	-0.586322	-1.897077	9.503290	0.790900	-0.089528	-0.037165	0.604220
35006	-0.544874	-1.966321	9.537152	0.790450	-0.089847	-0.036945	0.604774
35007	-0.599898	-1.976719	9.740958	0.790066	-0.090389	-0.036509	0.605221
35008	-0.536375	-1.878599	9.919765	0.789812	-0.090610	-0.035975	0.605552
35009	-0.485901	-1.845379	10.044774	0.789669	-0.090669	-0.035262	0.605771
35010	-0.541236	-1.653179	10.208944	0.789615	-0.090945	-0.034468	0.605846
35011	-0.543371	-1.428560	10.279064	0.789550	-0.091659	-0.034188	0.605839
35012	-0.479484	-1.228961	10.192861	0.789328	-0.092768	-0.034772	0.605926
35013	-0.281936	-1.483066	10.040470	0.788655	-0.093802	-0.035608	0.606594
35014	-0.203521	-1.669673	9.863218	0.787484	-0.094660	-0.035983	0.607959
35015	-0.459737	-2.136231	9.701466	0.786115	-0.095443	-0.036106	0.609599
35016	-0.745883	-2.481967	9.588606	0.784802	-0.095444	-0.036082	0.611290
35017	-0.743993	-2.615331	9.507614	0.783774	-0.094711	-0.036030	0.612724
35018	-0.758206	-2.760052	9.437029	0.782962	-0.093704	-0.035755	0.613932
35019	-0.898329	-2.821917	9.477176	0.782376	-0.092931	-0.035558	0.614807
35020	-0.952629	-2.762605	9.394984	0.781959	-0.092544	-0.035869	0.615377
35021	-0.861232	-2.579624	9.135757	0.781677	-0.092633	-0.036739	0.615670
35022	-0.651176	-2.673546	8.939851	0.781361	-0.092817	-0.037543	0.615995
35023	-0.406729	-2.822071	8.986966	0.781181	-0.092885	-0.037350	0.616225
35024	-0.552538	-2.752400	9.411869	0.781267	-0.092691	-0.036421	0.616201
35025	-0.705387	-2.500029	9.773478	0.781598	-0.092440	-0.035531	0.615871
35026	-0.819089	-2.282367	9.801816	0.782010	-0.092399	-0.035501	0.615355
35027	-0.663150	-2.176600	9.586403	0.782564	-0.092777	-0.036447	0.614538
35028	-0.433159	-2.080302	9.318196	0.783308	-0.093040	-0.037408	0.613492
35029	-0.288314	-1.883186	9.416180	0.784221	-0.092762	-0.037428	0.612366
35030	-0.364274	-1.507269	9.733753	0.785189	-0.092408	-0.036572	0.611230
35031	-0.501251	-1.221402	10.079772	0.786090	-0.092746	-0.035860	0.610061
35032	-0.560157	-0.984251	10.258144	0.786925	-0.093495	-0.035993	0.608862
35033	-0.343001	-0.719701	10.495919	0.787638	-0.093723	-0.036786	0.607856
35034	-0.105947	-0.300325	10.570506	0.788226	-0.093055	-0.037787	0.607134
35035	0.062284	0.018445	10.699686	0.788504	-0.091644	-0.038315	0.606956
35036	0.059667	0.378505	10.817481	0.788324	-0.090662	-0.038538	0.607323
35037	-0.149082	0.334424	10.742414	0.787616	-0.091081	-0.039486	0.608117
35038	-0.297012	-0.178121	10.511495	0.786533	-0.092464	-0.041201	0.609195
35039	-0.238582	-0.628477	10.269126	0.785370	-0.093466	-0.042897	0.610424
35040	-0.034347	-0.975198	10.218980	0.784237	-0.092673	-0.043612	0.611949
35041	0.057047	-0.815931	10.327927	0.782989	-0.090780	-0.042959	0.613875
35042	-0.062581	-0.808416	10.428469	0.781315	-0.089490	-0.041635	0.616283
35043	-0.491314	-1.160076	10.655824	0.779084	-0.089712	-0.040673	0.619132
35044	-0.740985	-1.874987	11.064047	0.776453	-0.090487	-0.040517	0.622328
35045	-0.453172	-2.721531	11.527029	0.773818	-0.090365	-0.040042	0.625649
35046	-0.586314	-3.331598	12.065736	0.771558	-0.088439	-0.038331	0.628815
35047	-0.869327	-3.398113	12.389101	0.769823	-0.085444	-0.035988	0.631488
35048	-1.216160	-3.408223	12.357631	0.768505	-0.082854	-0.034728	0.633506
35049	-1.416317	-3.369254	11.868526	0.767536	-0.080658	-0.035161	0.634938
35050	-1.447876	-3.107371	11.109996	0.766885	-0.078488	-0.038289	0.635815
35051	-1.176808	-3.329953	10.109932	0.766656	-0.075699	-0.043082	0.636123
35052	-0.993806	-3.287945	8.763023	0.766643	-0.072378	-0.048183	0.636158
35053	-0.496994	-3.331045	7.588474	0.766806	-0.069214	-0.052472	0.635976
35054	-0.331728	-2.854627	7.031406	0.767437	-0.066697	-0.055833	0.635197
35055	0.056904	-2.290473	6.869127	0.768820	-0.064642	-0.058219	0.633521
35056	-0.039066	-1.707140	6.848719	0.770553	-0.062264	-0.059743	0.631508
35057	0.209255	-1.063765	6.874177	0.771886	-0.059395	-0.060365	0.630096
35058	0.569621	-0.286832	6.924587	0.772416	-0.057551	-0.060800	0.629575
35059	0.740792	-0.471328	7.139987	0.772055	-0.057398	-0.061281	0.629985
35060	0.529262	-0.985745	7.475716	0.771133	-0.058118	-0.061502	0.631026
35061	0.027432	-1.496165	7.423946	0.770023	-0.059305	-0.061578	0.632262
35062	0.065262	-1.888033	7.693136	0.769114	-0.061218	-0.061996	0.633145
35063	0.021633	-2.187810	8.164797	0.768691	-0.062635	-0.061587	0.633559
35064	0.135040	-1.696100	8.660813	0.768602	-0.062635	-0.060640	0.633759
35065	0.272976	-1.104127	8.866473	0.768507	-0.062244	-0.059853	0.633988
35066	0.509574	-1.280986	9.079440	0.768147	-0.062688	-0.059078	0.634453
35067	0.513588	-1.569255	9.520005	0.767520	-0.063583	-0.057779	0.635241
35068	0.338136	-1.673059	9.826434	0.766686	-0.064670	-0.056731	0.636233
35069	-0.011593	-2.204911	9.774196	0.765801	-0.066082	-0.056451	0.637177
35070	-0.225711	-2.631928	9.629401	0.765156	-0.067426	-0.056702	0.637788
35071	-0.355487	-2.845913	9.470032	0.765013	-0.068142	-0.057125	0.637847
35072	-0.150664	-2.591323	9.525295	0.765370	-0.068069	-0.057235	0.637416
35073	0.043222	-2.117525	9.556315	0.766035	-0.067846	-0.056991	0.636662
35074	0.168297	-1.787437	9.717630	0.766751	-0.068213	-0.056538	0.635802
35075	0.134498	-1.636864	9.939721	0.767272	-0.069031	-0.055815	0.635149
35076	-0.200015	-1.646130	10.070707	0.767677	-0.070093	-0.055427	0.634576
35077	-0.180129	-1.735004	10.024243	0.768080	-0.070653	-0.055534	0.634017
35078	0.034510	-1.584260	9.787289	0.768580	-0.070534	-0.055807	0.633400
35079	0.078746	-1.461676	9.652624	0.769114	-0.070334	-0.055934	0.632762
35080	0.079285	-1.597554	9.693710	0.769678	-0.070330	-0.055552	0.632111
35081	-0.011582	-1.461226	9.732537	0.770341	-0.070473	-0.054740	0.631357
35082	-0.135156	-1.166344	9.805531	0.771057	-0.070831	-0.054311	0.630479
35083	-0.165167	-0.966787	9.656232	0.771689	-0.071290	-0.054543	0.629634
35084	0.029586	-0.905086	9.525983	0.772059	-0.071496	-0.055010	0.629116
35085	0.160802	-0.913631	9.474668	0.772203	-0.071581	-0.055080	0.628924
35086	0.047142	-0.887942	9.422843	0.772190	-0.071821	-0.054929	0.628925
35087	0.025577	-1.080761	9.371183	0.772044	-0.072501	-0.054857	0.629033
35088	0.023491	-1.500422	9.472805	0.771855	-0.073237	-0.054415	0.629217
35089	-0.134669	-1.643550	9.613883	0.771745	-0.073592	-0.053547	0.629386
35090	-0.130165	-1.394715	9.602335	0.771675	-0.073825	-0.053011	0.629490
35091	0.011918	-1.545779	9.529344	0.771459	-0.074262	-0.052882	0.629714
35092	0.078831	-1.748035	9.620766	0.771189	-0.074762	-0.052258	0.630038
35093	-0.069984	-1.821076	9.834331	0.770954	-0.075010	-0.051060	0.630393
35094	-0.160746	-1.794931	9.997107	0.770775	-0.075103	-0.050006	0.630686
35095	-0.197118	-1.808278	9.993351	0.770631	-0.075125	-0.049416	0.630905
35096	-0.288619	-1.847386	9.849153	0.770526	-0.075330	-0.049315	0.631017
35097	-0.211160	-2.063304	9.821372	0.770546	-0.075569	-0.049299	0.630966
35098	-0.110392	-1.927697	9.766744	0.770792	-0.075463	-0.048996	0.630702
35099	-0.074411	-1.686796	9.818992	0.771044	-0.074954	-0.048376	0.630503
35100	-0.129781	-1.506105	9.764645	0.771165	-0.074621	-0.047856	0.630433
35101	-0.240170	-1.587319	9.621271	0.771111	-0.074877	-0.047827	0.630472
35102	-0.166136	-1.863734	9.517063	0.771066	-0.075631	-0.047997	0.630423
35103	-0.190285	-1.997645	9.506056	0.771161	-0.076440	-0.048043	0.630206
35104	-0.221653	-2.117587	9.601716	0.771289	-0.076907	-0.047804	0.630011
35105	-0.308741	-2.059016	9.688854	0.771601	-0.076950	-0.047346	0.629658
35106	-0.299021	-1.938137	9.684028	0.772127	-0.077031	-0.047006	0.629029
35107	-0.165014	-1.645186	9.763480	0.772785	-0.077289	-0.046876	0.628197
35108	-0.160509	-1.405930	9.814837	0.773388	-0.077422	-0.046925	0.627435
35109	-0.123910	-1.291177	9.806503	0.773823	-0.077371	-0.047040	0.626896
35110	0.048549	-1.199340	9.723325	0.774011	-0.077594	-0.047248	0.626621
35111	-0.048066	-1.511980	9.716491	0.773951	-0.078206	-0.047427	0.626606
35112	-0.214473	-1.756476	9.759703	0.773955	-0.078804	-0.047212	0.626542
35113	-0.430402	-1.688566	9.827998	0.774065	-0.079196	-0.047095	0.626366
35114	-0.296834	-1.537286	9.700616	0.774169	-0.079501	-0.047446	0.626172
35115	-0.229387	-1.716343	9.523155	0.774217	-0.079933	-0.047855	0.626026
35116	-0.244230	-1.891278	9.463994	0.774293	-0.080273	-0.047743	0.625897
35117	-0.220960	-1.745883	9.677789	0.774451	-0.080784	-0.047191	0.625677
35118	-0.397109	-1.599765	9.838825	0.774614	-0.081813	-0.047048	0.625353
35119	-0.474129	-1.711710	9.809992	0.774787	-0.082795	-0.047628	0.624965
35120	-0.414850	-1.777080	9.521311	0.775082	-0.083071	-0.048280	0.624512
35121	-0.214617	-1.632870	9.360130	0.775445	-0.082849	-0.048465	0.624077
35122	-0.212474	-1.476296	9.409425	0.775829	-0.082769	-0.048145	0.623635
35123	-0.373813	-1.297690	9.548802	0.776059	-0.083260	-0.047816	0.623308
35124	-0.446996	-1.356628	9.645403	0.776159	-0.084405	-0.047878	0.623026
35125	-0.438936	-1.550249	9.749570	0.776278	-0.085583	-0.048104	0.622699
35126	-0.247862	-1.553307	9.747877	0.776392	-0.086211	-0.048210	0.622462
35127	-0.199757	-1.420729	9.638542	0.776390	-0.086747	-0.048320	0.622382
35128	-0.220980	-1.502222	9.427686	0.776170	-0.087612	-0.048694	0.622505
35129	-0.348202	-1.782549	9.342064	0.775779	-0.088902	-0.049188	0.622771
35130	-0.353013	-2.100464	9.278225	0.775391	-0.090266	-0.049385	0.623043
35131	-0.330774	-2.317935	9.368087	0.775114	-0.091372	-0.049190	0.623241
35132	-0.504042	-2.392432	9.447908	0.775102	-0.092053	-0.048885	0.623180
35133	-0.522798	-2.332049	9.522918	0.775295	-0.092196	-0.048602	0.622942
35134	-0.380856	-1.939072	9.507357	0.775592	-0.092280	-0.048596	0.622559
35135	-0.250110	-1.756529	9.332292	0.775757	-0.092920	-0.049034	0.622224
35136	-0.104239	-1.897662	9.297963	0.775731	-0.093930	-0.049278	0.622086
35137	-0.107116	-2.145663	9.448368	0.775626	-0.094710	-0.048444	0.622163
35138	-0.326456	-2.159341	9.782687	0.775463	-0.095096	-0.046670	0.622443
35139	-0.501760	-2.142068	10.076031	0.775263	-0.095322	-0.045141	0.622770
35140	-0.612483	-2.251945	10.149656	0.775033	-0.095615	-0.044459	0.623060
35141	-0.618948	-2.321139	10.103985	0.774845	-0.096262	-0.044639	0.623182
35142	-0.549966	-2.482004	10.038395	0.774739	-0.097102	-0.045167	0.623146
35143	-0.530716	-2.553816	9.940568	0.774813	-0.097504	-0.045491	0.622968
35144	-0.452386	-2.338197	9.919420	0.775106	-0.097394	-0.045411	0.622627
35145	-0.518649	-1.952852	9.872999	0.775447	-0.097391	-0.045362	0.622205
35146	-0.527645	-1.907009	9.860209	0.775589	-0.097729	-0.045701	0.621950
35147	-0.373122	-2.013738	9.851528	0.775614	-0.098051	-0.045973	0.621849
35148	-0.367486	-2.024217	9.790364	0.775668	-0.098111	-0.046141	0.621759
35149	-0.422577	-1.933813	9.696401	0.775661	-0.098031	-0.046484	0.621755
35150	-0.411380	-1.932062	9.434492	0.775503	-0.098106	-0.047111	0.621893
35151	-0.361102	-2.200939	9.219793	0.775319	-0.098525	-0.047779	0.622005
35152	-0.440180	-2.442535	9.194244	0.775304	-0.098912	-0.048020	0.621944
35153	-0.388530	-2.305262	9.364550	0.775525	-0.098925	-0.047750	0.621687
35154	-0.528589	-1.872281	9.422776	0.775808	-0.098878	-0.047751	0.621341
35155	-0.412998	-1.808876	9.270209	0.775895	-0.099062	-0.048447	0.621149
35156	-0.377789	-2.066700	9.099209	0.775936	-0.099468	-0.049094	0.620982
35157	-0.292574	-2.131164	9.118243	0.776092	-0.099565	-0.048858	0.620790
35158	-0.320188	-1.822214	9.348548	0.776319	-0.099569	-0.048065	0.620568
35159	-0.397951	-1.535497	9.451899	0.776373	-0.100008	-0.047550	0.620470
35160	-0.473187	-1.725721	9.488317	0.776161	-0.101031	-0.047476	0.620575
35161	-0.415925	-2.141399	9.534293	0.775836	-0.101734	-0.047383	0.620873
35162	-0.284940	-2.123300	9.573289	0.775677	-0.101858	-0.046982	0.621082
35163	-0.310609	-1.916479	9.661114	0.775595	-0.102005	-0.046510	0.621196
35164	-0.426665	-1.826050	9.725205	0.775364	-0.102562	-0.046193	0.621417
35165	-0.541580	-1.991636	9.773993	0.775129	-0.103368	-0.046054	0.621586
35166	-0.560416	-2.006323	9.789387	0.775049	-0.103887	-0.045941	0.621607
35167	-0.495784	-1.869591	9.836923	0.775026	-0.104067	-0.045757	0.621619
35168	-0.400320	-1.630007	9.812420	0.774868	-0.104019	-0.045753	0.621825
35169	-0.467511	-1.637379	9.654509	0.774459	-0.104041	-0.045843	0.622324
35170	-0.590532	-1.783599	9.518896	0.773767	-0.104636	-0.046118	0.623065
35171	-0.599866	-2.174699	9.502558	0.772910	-0.105648	-0.046376	0.623937
35172	-0.570571	-2.463998	9.469903	0.772105	-0.106523	-0.046477	0.624778
35173	-0.627426	-2.603643	9.457699	0.771474	-0.106995	-0.046495	0.625474
35174	-0.673545	-2.597904	9.366604	0.770985	-0.107271	-0.046504	0.626028
35175	-0.693798	-2.626169	9.433997	0.770650	-0.107484	-0.046398	0.626413
35176	-0.548220	-2.500585	9.568151	0.770491	-0.107832	-0.046006	0.626578
35177	-0.683746	-2.314822	9.594663	0.770370	-0.108501	-0.045872	0.626620
35178	-0.742364	-2.314430	9.593835	0.770228	-0.109268	-0.046189	0.626639
35179	-0.680815	-2.320011	9.491372	0.770086	-0.109687	-0.046536	0.626714
35180	-0.618339	-2.170849	9.309009	0.769951	-0.109998	-0.046851	0.626803
35181	-0.498355	-2.341169	9.347677	0.769706	-0.110475	-0.046869	0.627017
35182	-0.575501	-2.480843	9.567831	0.769481	-0.110736	-0.046263	0.627293
35183	-0.606771	-2.416457	9.677855	0.769341	-0.110797	-0.045512	0.627508
35184	-0.636905	-2.387789	9.689512	0.769124	-0.111124	-0.045136	0.627744
35185	-0.749175	-2.724032	9.625417	0.768902	-0.111696	-0.045130	0.627915
35186	-0.807465	-2.777841	9.640035	0.768925	-0.111963	-0.045063	0.627844
35187	-0.727669	-2.561228	9.625273	0.769251	-0.111998	-0.045043	0.627440
35188	-0.611514	-2.365509	9.535410	0.769666	-0.112349	-0.045273	0.626852
35189	-0.654065	-2.285277	9.469893	0.770144	-0.113053	-0.045720	0.626105
35190	-0.626752	-2.229513	9.493240	0.770705	-0.113514	-0.046059	0.625305
35191	-0.498599	-1.967974	9.630446	0.771260	-0.113267	-0.045840	0.624682
35192	-0.373731	-1.693380	9.769909	0.771600	-0.112856	-0.045215	0.624382
35193	-0.449793	-1.674533	9.897123	0.771629	-0.112846	-0.044834	0.624375
35194	-0.535718	-1.936949	9.770277	0.771415	-0.113033	-0.044947	0.624598
35195	-0.640015	-2.318331	9.565220	0.771144	-0.113236	-0.045207	0.624877
35196	-0.696844	-2.661997	9.422917	0.770958	-0.113278	-0.045139	0.625104
35197	-0.825618	-2.661505	9.406171	0.770966	-0.113186	-0.044876	0.625129
35198	-0.831323	-2.538497	9.288325	0.771061	-0.113147	-0.045012	0.625009
35199	-0.855301	-2.543428	9.199032	0.771124	-0.113421	-0.045586	0.624840
35200	-0.739331	-2.661195	9.104900	0.771159	-0.113780	-0.045854	0.624712
35201	-0.579867	-2.760139	9.201246	0.771306	-0.113801	-0.045497	0.624553
35202	-0.672477	-2.706540	9.383567	0.771648	-0.113419	-0.044537	0.624270
35203	-0.790040	-2.408896	9.543211	0.772059	-0.113103	-0.043891	0.623864
35204	-0.895485	-2.400554	9.553308	0.772465	-0.113269	-0.043848	0.623334
35205	-0.772528	-2.522831	9.462609	0.772868	-0.113545	-0.043881	0.622782
35206	-0.711360	-2.373872	9.389768	0.773372	-0.113677	-0.043881	0.622131
35207	-0.763016	-2.287321	9.358078	0.773797	-0.113827	-0.043854	0.621577
35208	-0.732044	-2.272042	9.394356	0.774214	-0.114367	-0.043614	0.620976
35209	-0.730832	-2.249895	9.519514	0.774677	-0.115260	-0.043309	0.620254
35210	-0.757958	-2.191216	9.668450	0.775180	-0.115860	-0.043143	0.619525
35211	-0.704422	-2.095478	9.684587	0.775677	-0.115799	-0.043173	0.618912
35212	-0.664475	-2.005270	9.724099	0.776150	-0.115143	-0.042838	0.618464
35213	-0.712755	-1.775062	9.831345	0.776481	-0.114696	-0.042245	0.618173
35214	-0.819430	-1.862302	9.892479	0.776615	-0.115180	-0.042010	0.617930
35215	-0.761699	-2.086705	9.707976	0.776632	-0.116020	-0.042383	0.617727
35216	-0.664311	-2.320138	9.414624	0.776658	-0.116541	-0.043039	0.617550
35217	-0.940784	-2.414104	9.184760	0.776751	-0.116593	-0.043197	0.617412
35218	-0.734018	-2.385122	9.464812	0.776938	-0.116264	-0.042254	0.617304
35219	-0.796839	-2.016696	9.796139	0.777123	-0.116265	-0.041171	0.617145
35220	-0.928438	-2.102404	10.007678	0.777140	-0.116812	-0.041129	0.617023
35221	-0.948510	-2.305546	9.947239	0.777133	-0.117063	-0.041536	0.616957
35222	-0.810641	-2.320351	9.938888	0.777263	-0.116806	-0.041494	0.616845
35223	-0.732549	-2.090908	9.941732	0.777314	-0.116592	-0.041227	0.616839
35224	-0.790647	-2.300536	9.905800	0.777261	-0.116725	-0.041444	0.616865
35225	-0.860965	-2.543486	9.664820	0.777267	-0.116777	-0.041940	0.616815
35226	-0.882981	-2.439608	9.504327	0.777441	-0.116804	-0.042611	0.616544
35227	-0.815207	-2.419503	9.445771	0.777681	-0.116993	-0.043169	0.616166
35228	-0.776522	-2.372832	9.580533	0.778069	-0.117013	-0.043331	0.615661
35229	-0.824375	-2.146213	9.638976	0.778581	-0.116606	-0.043444	0.615083
35230	-0.725379	-1.822133	9.512734	0.778938	-0.116145	-0.043960	0.614681
35231	-0.738041	-1.856985	9.204733	0.779033	-0.116256	-0.044813	0.614478
35232	-0.697364	-2.138882	9.005436	0.779007	-0.116766	-0.045501	0.614364
35233	-0.573806	-2.305722	9.104019	0.779128	-0.117042	-0.045650	0.614147
35234	-0.539697	-2.307377	9.417989	0.779411	-0.116993	-0.045142	0.613836
35235	-0.673370	-2.085904	9.594647	0.779798	-0.116399	-0.044333	0.613515
35236	-0.826282	-1.828859	9.599284	0.780031	-0.115903	-0.044223	0.613321
35237	-0.810888	-2.004159	9.339338	0.780050	-0.115749	-0.044747	0.613287
35238	-0.627662	-2.283642	9.237757	0.780074	-0.115690	-0.044940	0.613254
35239	-0.562506	-2.189388	9.393207	0.780127	-0.115464	-0.044365	0.613271
35240	-0.644382	-2.051542	9.627762	0.780118	-0.115503	-0.043549	0.613334
35241	-0.853775	-2.270100	9.772930	0.780030	-0.115828	-0.043132	0.613414
35242	-0.851131	-2.495603	9.751154	0.780140	-0.115526	-0.043032	0.613338
35243	-0.632790	-2.241658	9.648548	0.780542	-0.114624	-0.042881	0.613007
35244	-0.577128	-1.995946	9.715195	0.781025	-0.113761	-0.042351	0.612588
35245	-0.695662	-1.777387	9.879135	0.781528	-0.112814	-0.041522	0.612178
35246	-0.611830	-1.300691	9.947296	0.782007	-0.111814	-0.041052	0.611782
35247	-0.532657	-1.205131	9.757349	0.782278	-0.111042	-0.041556	0.611542
35248	-0.407165	-1.311734	9.293217	0.782215	-0.110061	-0.042312	0.611749
35249	-0.271173	-1.421989	8.845037	0.781959	-0.108912	-0.042663	0.612257
35250	-0.430226	-1.559934	8.583611	0.781455	-0.107870	-0.042275	0.613111
35251	-0.447848	-1.698558	8.521197	0.780790	-0.107337	-0.041594	0.614098
35252	-0.660500	-1.890335	8.577831	0.780107	-0.107391	-0.041046	0.614992
35253	-0.608415	-2.050012	8.734187	0.779454	-0.107815	-0.040518	0.615781
35254	-0.631386	-2.249910	8.938191	0.778876	-0.108042	-0.039416	0.616543
35255	-0.598566	-2.177155	9.208983	0.778426	-0.107962	-0.037739	0.617230
35256	-0.649890	-2.029690	9.513719	0.778005	-0.108389	-0.036160	0.617781
35257	-0.786871	-2.087395	9.887606	0.777581	-0.109380	-0.034936	0.618209
35258	-0.817238	-2.185085	10.168585	0.777139	-0.110133	-0.033927	0.618688
35259	-0.748714	-2.284102	10.339341	0.776724	-0.110305	-0.032728	0.619243
35260	-0.818202	-2.241995	10.399040	0.776333	-0.110231	-0.031415	0.619814
35261	-0.928078	-2.247452	10.443499	0.775895	-0.110312	-0.030593	0.620389
35262	-0.942638	-2.426279	10.354419	0.775428	-0.110622	-0.030322	0.620931
35263	-1.033375	-2.760842	10.218555	0.775009	-0.110840	-0.030217	0.621419
35264	-1.106927	-2.917338	10.066262	0.774752	-0.110971	-0.030076	0.621724
35265	-1.188449	-3.094957	10.086068	0.774784	-0.111300	-0.030062	0.621626
35266	-1.259273	-3.008090	10.079012	0.775041	-0.111835	-0.030431	0.621191
35267	-1.260946	-3.049241	9.975974	0.775517	-0.112260	-0.031201	0.620482
35268	-1.007607	-3.171670	9.891438	0.776259	-0.112215	-0.031800	0.619531
35269	-0.965123	-3.074556	9.941558	0.777163	-0.111607	-0.031904	0.618501
35270	-1.019012	-3.047669	9.976525	0.778048	-0.110867	-0.032029	0.617515
35271	-1.049208	-3.486489	9.871272	0.778871	-0.110196	-0.032448	0.616575
35272	-1.019653	-4.128430	9.724736	0.779927	-0.109266	-0.032635	0.615393
35273	-1.203399	-4.341740	9.764586	0.781357	-0.107981	-0.032425	0.613816
35274	-1.391344	-4.272929	9.791290	0.783044	-0.107207	-0.032578	0.611790
35275	-1.625683	-4.731513	9.874254	0.784909	-0.107092	-0.033369	0.609373
35276	-1.649433	-5.352313	9.978091	0.787346	-0.106921	-0.033977	0.606218
35277	-1.677888	-5.276674	9.994702	0.790601	-0.106213	-0.034450	0.602065
35278	-1.823988	-5.050839	9.942277	0.794595	-0.104896	-0.035128	0.596977
35279	-1.718459	-4.783899	9.528962	0.799147	-0.103315	-0.036160	0.591086
35280	-1.784258	-4.751666	8.747900	0.804102	-0.101829	-0.037510	0.584503
35281	-1.614692	-4.889907	7.700729	0.809362	-0.101147	-0.038494	0.577252
35282	-1.788559	-5.140316	6.711865	0.815305	-0.101430	-0.038636	0.568768
35283	-1.904547	-5.390531	6.489982	0.822206	-0.102064	-0.036893	0.558747
35284	-1.883691	-5.150862	6.684643	0.830087	-0.101611	-0.032348	0.547342
35285	-2.844260	-2.846790	7.309006	0.837522	-0.098755	-0.026175	0.536768
35286	1.423775	6.580834	6.190756	0.835139	-0.103005	-0.018487	0.539992
35287	-1.458274	-7.138453	4.699303	0.839136	-0.117272	-0.012340	0.530986
35288	-4.663655	-11.566083	6.028959	0.850675	-0.116953	0.002556	0.512511
35289	-4.086355	-3.163093	8.957692	0.857851	-0.100932	0.027589	0.503133
35290	-2.394881	3.855609	9.416099	0.858818	-0.082300	0.054556	0.502675
35291	-1.225553	6.732433	9.272076	0.856932	-0.078375	0.071986	0.504324
35292	-1.915670	4.019902	9.899309	0.855435	-0.085067	0.080832	0.504441
35293	-2.677671	0.448733	9.845878	0.855106	-0.093936	0.086736	0.502440
35294	-3.157680	-1.300222	10.108467	0.855898	-0.101018	0.093170	0.498551
35295	-3.320104	-1.957825	10.708353	0.858351	-0.104779	0.101457	0.491896
35296	-3.891894	-1.687819	11.457331	0.862793	-0.106346	0.110397	0.481759
35297	-5.077031	-1.961606	12.191478	0.869674	-0.105284	0.117048	0.467848
35298	-6.078472	-1.645224	12.414452	0.878036	-0.100729	0.119688	0.452306
35299	-5.672419	-1.365779	12.425353	0.885956	-0.092886	0.118363	0.438684
35300	-4.174980	-0.524254	11.676187	0.892745	-0.087028	0.115646	0.426683
35301	-3.761136	-0.783381	11.067653	0.898760	-0.086060	0.113425	0.414680
35302	-3.840718	-1.145078	10.479659	0.904100	-0.088177	0.112258	0.402774
35303	-3.890581	-1.684874	9.829625	0.909136	-0.090334	0.112243	0.390786
35304	-4.153172	-2.198807	9.155382	0.914116	-0.090812	0.113540	0.378488
35305	-3.920656	-2.077258	8.852012	0.918938	-0.089039	0.116054	0.366275
35306	-3.813659	-1.174852	8.990843	0.923644	-0.086625	0.119042	0.353845
35307	-3.962013	-0.928902	8.940880	0.928589	-0.084625	0.120347	0.340701
35308	-4.111818	-1.074976	8.599691	0.933965	-0.082583	0.119040	0.326678
35309	-3.861810	-1.221386	8.184962	0.939720	-0.080377	0.115307	0.311723
35310	-3.278616	-1.305192	8.001571	0.945612	-0.077936	0.110690	0.295790
35311	-3.059560	-1.155321	7.928036	0.951246	-0.075857	0.106898	0.279196
35312	-3.305350	-1.247773	7.873640	0.956437	-0.074042	0.104026	0.262535
35313	-3.497755	-1.300901	7.760438	0.961205	-0.071182	0.101582	0.246373
35314	-3.516045	-1.268369	7.672328	0.965590	-0.067686	0.099491	0.230555
35315	-3.310444	-1.121428	7.748157	0.969508	-0.064233	0.097744	0.215346
35316	-3.020721	-1.038478	8.003842	0.973102	-0.061561	0.096446	0.199950
35317	-3.086536	-0.920052	8.407956	0.976467	-0.059424	0.095561	0.183981
35318	-3.242061	-0.192598	8.744462	0.979564	-0.057697	0.094475	0.167929
35319	-3.359883	0.285052	8.796862	0.982325	-0.056469	0.092501	0.152616
35320	-3.297568	0.182731	8.579521	0.984762	-0.055394	0.089765	0.138265
35321	-3.011641	-0.035013	8.459842	0.986931	-0.053787	0.087241	0.124352
35322	-2.680370	-0.170320	8.695112	0.988805	-0.052467	0.085947	0.110118
35323	-2.696061	0.181422	9.140136	0.990312	-0.052753	0.085957	0.095448
35324	-3.171177	0.599677	9.349042	0.991515	-0.054745	0.086021	0.080629
35325	-3.352798	0.421618	9.373740	0.992513	-0.057596	0.084872	0.066317
35326	-3.165472	-0.450755	9.355528	0.993453	-0.058159	0.082982	0.052750
35327	-2.927112	-0.200354	9.471918	0.994336	-0.055796	0.081300	0.039650
35328	-2.850264	0.416016	9.366057	0.994936	-0.053778	0.080572	0.026796
35329	-2.861950	0.504105	9.231237	0.995129	-0.054595	0.080822	0.014357
35330	-2.818245	-0.593795	9.327750	0.995057	-0.056268	0.081785	0.002412
35331	-3.089340	-1.112841	9.740536	0.994947	-0.055349	0.083278	-0.008998
35332	-3.538691	-0.523605	9.845824	0.994821	-0.053371	0.084117	-0.020164
35333	-3.349846	-0.086518	9.441551	0.994552	-0.053879	0.083589	-0.031242
35334	-2.906245	-1.103874	9.225948	0.993999	-0.056959	0.083323	-0.042167
35335	-2.823629	-2.187860	9.278330	0.993216	-0.059245	0.084448	-0.053669
35336	-3.042690	-1.342151	9.670087	0.992265	-0.059920	0.086125	-0.066348
35337	-3.183337	0.168045	9.864074	0.991209	-0.060363	0.086775	-0.079564
35338	-3.222484	0.914618	9.485070	0.990181	-0.060627	0.085873	-0.092147
35339	-2.856787	0.790657	8.894871	0.989221	-0.059897	0.083882	-0.104008
35340	-2.024846	0.560357	8.598125	0.988201	-0.057911	0.082103	-0.115600
35341	-1.806647	1.178437	8.994986	0.986952	-0.055367	0.082067	-0.126989
35342	-1.824126	1.766950	9.541518	0.985530	-0.053196	0.083578	-0.137535
35343	-2.316712	2.250234	9.789030	0.984085	-0.051914	0.085015	-0.147152
35344	-2.154008	2.250812	9.818582	0.982735	-0.051369	0.085588	-0.155782
35345	-2.074911	1.995746	9.819051	0.981563	-0.050534	0.085748	-0.163179
35346	-1.663504	1.817138	10.163003	0.980500	-0.048667	0.086479	-0.169625
35347	-1.832027	2.357993	10.812011	0.979428	-0.046116	0.088200	-0.175539
35348	-2.378226	2.820136	11.298917	0.978429	-0.044198	0.089687	-0.180773
35349	-2.475798	3.270711	11.196230	0.977666	-0.043626	0.089354	-0.185156
35350	-2.013266	3.539737	10.781925	0.977165	-0.044117	0.087704	-0.188443
35351	-1.731379	3.787113	10.244648	0.976827	-0.045326	0.086163	-0.190605
35352	-1.626210	3.611189	10.138642	0.976645	-0.046441	0.085473	-0.191576
35353	-1.849880	3.569274	10.098021	0.976809	-0.046292	0.085228	-0.190888
35354	-1.994775	3.824911	9.927932	0.977267	-0.046109	0.084816	-0.188756
35355	-2.041342	3.372761	9.850742	0.977933	-0.046551	0.084517	-0.185305
35356	-2.290260	3.104010	9.644817	0.978760	-0.047079	0.083937	-0.181017
35357	-2.249554	3.136360	9.378110	0.979689	-0.047867	0.083419	-0.175950
35358	-2.279572	2.799060	9.134052	0.980710	-0.049027	0.083312	-0.169894
35359	-2.217718	2.419695	9.053124	0.981787	-0.050389	0.083728	-0.162925
35360	-2.322452	2.042531	9.110503	0.982911	-0.051507	0.084441	-0.155250
35361	-2.335030	1.918311	9.269982	0.984002	-0.052227	0.085336	-0.147413
35362	-2.577479	2.227865	9.394471	0.985095	-0.052463	0.085982	-0.139438
35363	-2.811695	2.451495	9.623504	0.986359	-0.051725	0.085961	-0.130505
35364	-2.864029	2.385904	9.710723	0.987874	-0.049184	0.085297	-0.120044
35365	-2.682233	2.756874	9.764283	0.989356	-0.046726	0.085102	-0.108393
35366	-2.988205	2.586821	9.844360	0.990543	-0.047177	0.086193	-0.095760
35367	-3.323711	1.799940	10.045677	0.991423	-0.050192	0.088019	-0.082548
35368	-3.760829	1.003346	10.125087	0.992173	-0.052887	0.089388	-0.069316
35369	-3.939413	1.082621	10.214635	0.992981	-0.053276	0.089523	-0.055995
35370	-4.012526	1.795067	10.151979	0.993782	-0.052452	0.088745	-0.042087
35371	-4.074087	1.915085	9.792860	0.994433	-0.052137	0.087448	-0.027168
35372	-3.971571	1.532347	9.458992	0.994766	-0.052836	0.086725	-0.011342
35373	-4.298292	0.958305	9.323216	0.994746	-0.054598	0.086450	0.004997
35374	-4.559021	0.482434	9.234710	0.994437	-0.056763	0.086081	0.021529
35375	-4.610975	0.148923	9.373632	0.993905	-0.058499	0.085334	0.038070
35376	-4.604615	0.324343	9.404194	0.993130	-0.059584	0.084515	0.054779
35377	-4.642643	0.350656	9.267060	0.992036	-0.061000	0.083556	0.071854
35378	-4.772163	0.099107	8.993425	0.990553	-0.063304	0.082393	0.089487
35379	-4.865105	-0.455450	8.888012	0.988687	-0.066404	0.081198	0.107218
35380	-4.851152	-0.668503	8.809469	0.986541	-0.069833	0.079868	0.124425
35381	-5.044803	-0.692085	8.786350	0.984121	-0.073814	0.078413	0.141098
35382	-5.242597	-0.680247	8.820433	0.981372	-0.078454	0.076651	0.157730
35383	-5.163652	-0.776328	8.348229	0.978324	-0.083785	0.073834	0.174385
35384	-4.647013	-1.500404	8.398987	0.974999	-0.089246	0.070779	0.190796
35385	-4.394616	-2.325104	8.744774	0.971427	-0.093950	0.068918	0.206768
35386	-4.841588	-2.323288	9.211276	0.967697	-0.097232	0.067908	0.222477
35387	-5.460612	-2.058666	9.123072	0.963894	-0.099821	0.066125	0.237847
35388	-5.330367	-1.811061	8.430272	0.960038	-0.103375	0.061791	0.252631
35389	-3.838037	-2.395205	7.967883	0.955779	-0.109215	0.056460	0.267153
35390	-2.850145	-3.572331	8.370571	0.951224	-0.114628	0.052761	0.281513
35391	-2.820680	-3.282180	8.942875	0.946805	-0.115987	0.051756	0.295683
35392	-3.072042	-2.550449	9.374177	0.942295	-0.114385	0.052533	0.310221
35393	-3.511524	-1.587160	8.983881	0.937053	-0.113261	0.052537	0.326103
35394	-3.450998	-1.786278	8.527081	0.930884	-0.114876	0.050367	0.343105
35395	-3.709625	-2.395913	7.935679	0.924020	-0.119016	0.046357	0.360380
35396	-3.289559	-3.259376	7.434528	0.916567	-0.124382	0.042151	0.377701
35397	-3.399247	-4.185127	7.253143	0.908560	-0.130837	0.039306	0.394786
35398	-3.335449	-4.988629	7.554109	0.900344	-0.136897	0.037735	0.411359
35399	-3.709801	-5.381060	7.746230	0.891960	-0.142901	0.036758	0.427358
35400	-3.800346	-6.527494	8.225989	0.883600	-0.148356	0.035711	0.442681
35401	-3.663439	-7.381338	8.536461	0.875497	-0.152044	0.034708	0.457365
35402	-3.346500	-8.135531	8.869725	0.867787	-0.154433	0.034083	0.471098
35403	-2.887976	-8.948533	9.488536	0.860816	-0.155906	0.034977	0.483183
35404	-2.601032	-9.180639	10.347458	0.855156	-0.155954	0.037637	0.492920
35405	-2.890940	-8.035990	11.119884	0.851068	-0.154394	0.040958	0.500168
35406	-3.327106	-6.754782	11.505270	0.848083	-0.152278	0.042936	0.505691
35407	-3.114678	-6.251598	11.867590	0.845275	-0.149841	0.043230	0.511066
35408	-2.775675	-6.389126	11.623953	0.842508	-0.146640	0.042665	0.516582
35409	-2.495021	-5.955535	11.003354	0.839902	-0.144265	0.040917	0.521612
35410	-2.501560	-5.271905	10.130367	0.837585	-0.145396	0.036238	0.525355
35411	-2.631373	-5.251526	8.870940	0.835671	-0.150129	0.028021	0.527570
35412	-2.598135	-4.985847	7.564948	0.834511	-0.155842	0.017282	0.528210
35413	-1.769094	-4.609060	6.650390	0.834265	-0.160051	0.006362	0.527584
35414	-1.074695	-3.968702	6.167424	0.834562	-0.161832	-0.001599	0.526606
35415	-0.922320	-2.740727	5.932010	0.834838	-0.161071	-0.006156	0.526369
35416	-0.922321	-1.748316	5.912531	0.834423	-0.160619	-0.008981	0.527124
35417	-0.991171	-2.009416	5.802234	0.833191	-0.161886	-0.011001	0.528645
35418	-1.158744	-3.016893	5.748528	0.831565	-0.164700	-0.012033	0.530310
35419	-1.206080	-3.686904	6.282300	0.830382	-0.168182	-0.011783	0.531076
35420	-1.590225	-3.518972	6.912370	0.829993	-0.170722	-0.010507	0.530901
35421	-1.453764	-2.907411	7.622555	0.830206	-0.171793	-0.008370	0.530259
35422	-1.733002	-2.199392	8.124931	0.830439	-0.171953	-0.005576	0.529879
35423	-1.588391	-2.007751	8.529053	0.830327	-0.171999	-0.002464	0.530064
35424	-1.297807	-1.957420	9.251729	0.830049	-0.171750	0.001890	0.530582
35425	-1.615338	-1.785769	10.147809	0.829726	-0.171832	0.007517	0.531011
35426	-2.083470	-1.642929	11.087029	0.828881	-0.172989	0.013323	0.531840
35427	-2.688868	-2.130398	12.447275	0.827601	-0.174712	0.018345	0.533120
35428	-2.987508	-2.900497	14.133189	0.826315	-0.175762	0.021897	0.534633
35429	-3.082551	-4.086415	16.575315	0.825582	-0.173027	0.025184	0.536509
35430	-2.890437	-3.970725	18.706383	0.825624	-0.164731	0.029928	0.538807
35431	-3.155085	-2.795027	19.911663	0.826178	-0.152362	0.035472	0.541256
35432	-3.867671	-0.853950	19.997194	0.826358	-0.140434	0.037479	0.544065
35433	-4.213997	0.041095	19.226094	0.825376	-0.132955	0.032526	0.547740
35434	-4.234206	-1.832518	18.449216	0.823237	-0.128965	0.022387	0.552402
35435	-4.108710	-3.536621	17.534375	0.820631	-0.123706	0.010776	0.557803
35436	-4.332140	-4.227804	16.395695	0.818376	-0.114900	-0.000697	0.563079
35437	-4.367965	-3.910796	15.384271	0.816302	-0.104907	-0.012919	0.567871
35438	-3.951607	-4.486406	14.903037	0.813606	-0.095273	-0.026428	0.572949
35439	-4.236736	-4.845334	14.223273	0.810271	-0.083922	-0.040510	0.578599
35440	-4.172793	-4.693730	13.029329	0.807386	-0.068519	-0.055259	0.583420
35441	-3.385753	-3.771690	11.636832	0.805277	-0.052881	-0.071419	0.586201
35442	-2.873888	-3.611053	10.507071	0.803635	-0.040542	-0.089560	0.586946
35443	-3.517823	-4.210632	9.883741	0.802094	-0.031840	-0.108727	0.586353
35444	-4.057652	-5.805293	9.249978	0.800048	-0.021900	-0.127052	0.585919
35445	-2.902327	-5.283457	8.471463	0.797898	-0.006579	-0.143268	0.585482
35446	-1.366120	-3.119756	7.855642	0.796838	0.012333	-0.158195	0.582985
35447	-0.834921	-1.290290	7.644667	0.797107	0.030916	-0.173060	0.577680
35448	-0.635229	-0.471056	7.442845	0.796896	0.047867	-0.189350	0.571675
35449	-0.216846	0.302892	7.263324	0.795583	0.062169	-0.206341	0.566221
35450	-0.131367	0.498520	6.974891	0.793330	0.073554	-0.224413	0.561121
35451	0.595947	1.333926	5.906695	0.790732	0.081769	-0.245945	0.554588
35452	2.105127	0.620851	4.637802	0.788567	0.087514	-0.268470	0.546284
35453	2.481309	-0.358454	3.739470	0.787223	0.092957	-0.288826	0.536860
35454	2.753485	-1.224874	3.271982	0.785143	0.101176	-0.305970	0.528863
35455	3.128470	0.085500	3.276486	0.781756	0.112674	-0.319135	0.523750
35456	5.109893	2.513438	2.383220	0.777606	0.123738	-0.331861	0.519506
35457	5.860003	2.951428	2.017117	0.773588	0.131241	-0.344662	0.515311
35458	6.118322	2.571564	1.630067	0.770610	0.134771	-0.356363	0.510884
35459	6.437868	1.968506	0.944016	0.768865	0.134187	-0.368439	0.505068
35460	7.266600	0.921058	0.392736	0.768443	0.131109	-0.380876	0.497231
35461	7.050503	-0.304704	0.657068	0.767805	0.130163	-0.390820	0.490707
35462	6.867331	-0.419387	0.964467	0.765602	0.133014	-0.397140	0.488303
35463	6.816992	-0.239254	1.028808	0.762292	0.136612	-0.401236	0.489139
35464	7.301656	0.023153	0.652458	0.759086	0.138082	-0.405154	0.490481
35465	7.859581	-0.374362	0.028492	0.757048	0.137558	-0.409820	0.489902
35466	8.257819	-0.929122	-0.004590	0.756363	0.136525	-0.413329	0.488297
35467	8.192304	-1.497980	0.434372	0.756296	0.136053	-0.413828	0.488112
35468	8.024664	-1.516351	1.199363	0.755838	0.136489	-0.411126	0.490974
35469	8.040154	-0.706516	1.784930	0.755377	0.136200	-0.406910	0.495256
35470	7.960783	-0.448197	2.186376	0.755610	0.133119	-0.403450	0.498559
35471	7.863314	-1.253210	2.237962	0.756257	0.127874	-0.400884	0.501014
35472	7.400379	-2.252638	2.643489	0.757373	0.121939	-0.397370	0.503601
35473	6.693340	-2.810516	2.866193	0.758673	0.116877	-0.392233	0.506862
35474	6.182949	-2.593021	2.754656	0.759787	0.112803	-0.386905	0.510200
35475	6.365167	-2.078575	2.163734	0.761002	0.108640	-0.383130	0.512138
35476	6.861033	-1.870432	2.250675	0.762897	0.103656	-0.380429	0.512364
35477	6.786885	-1.901511	2.576900	0.765106	0.098300	-0.376244	0.513216
35478	6.290931	-1.808644	2.953441	0.767404	0.091923	-0.370046	0.515467
35479	5.296624	-2.129826	2.883553	0.769776	0.083903	-0.363022	0.518286
35480	4.815030	-2.510014	2.418654	0.772309	0.075212	-0.356832	0.520146
35481	5.080993	-2.443761	2.472374	0.775621	0.067313	-0.351136	0.520178
35482	5.053599	-2.065481	2.967414	0.779910	0.060949	-0.344314	0.519108
35483	4.214907	-2.514254	3.605749	0.784368	0.056977	-0.334781	0.519078
35484	2.678341	-1.813111	4.169078	0.788129	0.054601	-0.322462	0.521430
35485	3.016858	-0.513917	4.546653	0.790948	0.049754	-0.310592	0.524841
35486	3.406704	-0.476348	5.277556	0.794019	0.038652	-0.300246	0.527154
35487	3.104973	-1.610632	6.016184	0.797332	0.024357	-0.289879	0.528809
35488	1.746962	-2.562819	6.614325	0.800235	0.011460	-0.278103	0.531179
35489	0.500046	-2.262007	6.552116	0.802293	0.001055	-0.267011	0.533882
35490	0.784550	-1.111242	6.225745	0.804038	-0.012148	-0.259684	0.534733
35491	2.007488	-1.452832	6.660844	0.805886	-0.033173	-0.255201	0.533216
35492	1.114305	-5.211089	7.979712	0.807433	-0.054846	-0.246974	0.532961
35493	-0.926867	-5.240339	9.317643	0.809153	-0.068226	-0.233825	0.534736
35494	-2.216027	-3.600661	9.634738	0.811156	-0.075598	-0.222056	0.535725
35495	-1.852027	-1.182921	9.340520	0.812051	-0.086738	-0.217385	0.534597
35496	0.956574	-3.091467	9.219213	0.811333	-0.105633	-0.218020	0.532022
35497	0.979671	-7.002474	9.718337	0.810807	-0.123146	-0.213122	0.531042
35498	-0.766827	-7.779772	10.221912	0.812176	-0.130888	-0.200265	0.532102
35499	-1.906059	-4.297972	9.984472	0.814817	-0.133187	-0.185097	0.532986
35500	-2.836074	-1.159360	9.379062	0.816112	-0.140489	-0.176072	0.532186
35501	-2.582149	-1.589956	8.909075	0.815493	-0.155181	-0.176643	0.528854
35502	-0.810249	-5.734838	8.400292	0.814528	-0.167512	-0.178204	0.526048
35503	-0.920441	-6.683813	7.676676	0.814772	-0.170565	-0.172719	0.526519
35504	0.142751	-4.502077	7.583172	0.816644	-0.169217	-0.159112	0.528339
35505	-1.467470	-0.834392	7.899112	0.818082	-0.173618	-0.142892	0.529321
35506	-2.402513	-0.269074	8.127297	0.816392	-0.188615	-0.130244	0.530062
35507	-1.970985	-3.221775	8.220818	0.811781	-0.207677	-0.118200	0.532833
35508	-2.695959	-6.655030	8.254956	0.807243	-0.222278	-0.100706	0.537410
35509	-3.288862	-7.760393	7.592040	0.805188	-0.227208	-0.075199	0.542581
35510	-2.964811	-5.199729	8.482364	0.805256	-0.228402	-0.042895	0.545486
35511	-6.123463	-1.207632	9.403627	0.803848	-0.233804	-0.011567	0.546836
35512	-7.187541	-1.290156	9.827609	0.798387	-0.245042	0.012932	0.549877
35513	-6.114103	-4.547878	9.514184	0.789559	-0.257980	0.033896	0.555782
35514	-5.872187	-7.892044	8.770085	0.781242	-0.266629	0.057333	0.561500
35515	-4.807864	-6.259591	9.721726	0.776144	-0.271944	0.085069	0.562503
35516	-8.174847	-3.875901	9.070610	0.772139	-0.278244	0.109702	0.560666
35517	-9.036899	-3.196478	8.719694	0.766445	-0.287561	0.126901	0.560149
35518	-8.424049	-5.671465	8.225838	0.758561	-0.299562	0.141266	0.561152
35519	-8.395473	-7.694415	7.519263	0.751395	-0.308874	0.157011	0.561560
35520	-7.155893	-6.781151	7.955878	0.747831	-0.314056	0.175970	0.557810
35521	-7.783211	-3.973125	7.944261	0.746246	-0.319483	0.195148	0.550423
35522	-9.376941	-2.305719	7.883877	0.743259	-0.327485	0.211091	0.543838
35523	-9.877120	-3.645807	8.051845	0.737706	-0.337049	0.224885	0.540013
35524	-10.324199	-5.940515	7.440605	0.732441	-0.343217	0.240753	0.536442
35525	-10.152665	-6.207978	6.913154	0.730228	-0.344449	0.259027	0.530120
35526	-9.906931	-3.397363	7.054800	0.730659	-0.345212	0.277322	0.519672
35527	-10.108163	-0.474225	6.659178	0.730365	-0.350197	0.290398	0.509507
35528	-10.022184	-0.111714	6.086557	0.726504	-0.360601	0.297524	0.503625
35529	-9.789782	-2.686597	5.681556	0.719785	-0.372576	0.303275	0.501119
35530	-8.878764	-5.550131	5.771774	0.713882	-0.380793	0.314539	0.496422
35531	-9.138582	-4.410751	6.771359	0.711161	-0.383990	0.331753	0.486561
35532	-9.704585	-2.076175	7.438173	0.710354	-0.384834	0.349933	0.474180
35533	-10.122232	-0.184039	8.083306	0.708489	-0.386814	0.365155	0.463768
35534	-10.253834	-0.490769	8.218809	0.704080	-0.391540	0.376759	0.457187
35535	-10.580626	-1.719274	8.807887	0.697840	-0.397926	0.386564	0.453037
35536	-10.705938	-3.311779	9.152772	0.692012	-0.403099	0.396234	0.449031
35537	-10.435047	-3.377912	9.254484	0.688031	-0.406031	0.405923	0.443823
35538	-10.409314	-2.746722	9.619262	0.685725	-0.408140	0.414751	0.437247
35539	-10.427942	-1.849997	10.033745	0.684866	-0.409842	0.421843	0.430158
35540	-10.308705	-1.300183	10.000620	0.685119	-0.410370	0.427037	0.424084
35541	-10.094097	-1.528777	9.457173	0.686099	-0.409451	0.430483	0.419883
35542	-9.832943	-2.204056	8.388743	0.687866	-0.407380	0.432351	0.417078
35543	-9.721155	-2.655924	7.095155	0.690850	-0.404281	0.432855	0.414631
35544	-9.573154	-3.091543	5.845023	0.695775	-0.399704	0.432427	0.411268
35545	-9.105239	-2.963546	4.763927	0.702383	-0.393505	0.432440	0.405965
35546	-8.911693	-2.288096	3.924398	0.710455	-0.385696	0.433108	0.398636
35547	-8.701694	-1.089527	3.303520	0.719240	-0.376962	0.433758	0.390444
35548	-8.173890	-0.081164	2.867004	0.726861	-0.368805	0.434862	0.382820
35549	-8.083542	0.385710	2.463391	0.731860	-0.362603	0.436557	0.377250
35550	-8.560469	0.213934	2.212581	0.733893	-0.358806	0.439056	0.374019
35551	-9.331989	-0.990315	2.163155	0.734169	-0.356470	0.442085	0.372138
35552	-9.754208	-2.248281	1.726529	0.734546	-0.353186	0.445757	0.370137
35553	-9.527976	-2.365680	1.429343	0.735734	-0.348315	0.449792	0.367504
35554	-9.242809	-1.695741	1.479943	0.736476	-0.344593	0.453800	0.364589
35555	-9.340251	-1.305247	1.602305	0.735941	-0.343943	0.456537	0.362861
35556	-9.384671	-1.517905	1.535548	0.734474	-0.345562	0.457622	0.362930
35557	-9.186028	-2.460425	1.378244	0.732857	-0.347614	0.458117	0.363611
35558	-9.183883	-2.734092	1.072333	0.732030	-0.348151	0.459176	0.363429
35559	-9.106621	-2.286057	1.072997	0.732299	-0.346908	0.461169	0.361547
35560	-8.974526	-1.530943	1.258932	0.732673	-0.345671	0.464077	0.358239
35561	-9.019694	-0.997426	1.420924	0.732018	-0.346123	0.467358	0.354859
35562	-9.272222	-1.091077	1.771015	0.730239	-0.348066	0.470748	0.352132
35563	-9.494774	-1.251828	2.097213	0.728166	-0.350241	0.473972	0.349937
35564	-9.411590	-1.425193	2.307002	0.726209	-0.351977	0.477188	0.347885
35565	-9.482069	-1.322951	2.389226	0.724333	-0.353572	0.480321	0.345860
35566	-9.505693	-1.594038	2.503840	0.722458	-0.355395	0.483428	0.343578
35567	-9.616776	-1.607126	2.632526	0.720750	-0.357022	0.486600	0.340992
35568	-9.691223	-1.662858	2.781458	0.719101	-0.358231	0.489966	0.338376
35569	-9.693785	-1.831661	2.892094	0.717543	-0.358802	0.493635	0.335734
35570	-9.811500	-2.027937	3.050997	0.716203	-0.358656	0.497700	0.332737
35571	-9.837865	-1.877755	3.093388	0.715283	-0.358080	0.501667	0.329362
35572	-9.814476	-1.683338	3.144435	0.714657	-0.357592	0.505045	0.326070
35573	-9.630854	-1.675444	3.183066	0.714375	-0.357136	0.507850	0.322815
35574	-9.508964	-1.780490	2.992811	0.714487	-0.356477	0.510432	0.319203
35575	-9.605384	-1.866613	2.907382	0.714990	-0.355200	0.513136	0.315140
35576	-9.731002	-1.813307	2.778586	0.715916	-0.352973	0.516256	0.310409
35577	-9.857907	-1.448783	2.691236	0.717257	-0.349901	0.519567	0.305224
35578	-9.945305	-1.257560	2.539612	0.718844	-0.346319	0.522754	0.300091
35579	-9.936150	-0.896697	2.502071	0.720703	-0.342628	0.525462	0.295099
35580	-9.854025	-0.402525	2.368200	0.722375	-0.339487	0.527769	0.290487
35581	-9.711641	-0.053470	2.371808	0.723542	-0.336980	0.529738	0.286895
35582	-9.413224	-0.075774	2.190252	0.724214	-0.334771	0.531598	0.284336
35583	-9.261159	-0.250835	1.914823	0.724480	-0.332606	0.533722	0.282212
35584	-9.220337	-0.447854	1.852324	0.724650	-0.329758	0.536469	0.279899
35585	-9.131190	-0.217796	2.016803	0.724767	-0.325765	0.540192	0.277098
35586	-9.124306	0.098935	2.315410	0.724339	-0.321164	0.544825	0.274503
35587	-9.290777	0.193961	2.543675	0.722845	-0.317250	0.549592	0.273490
35588	-9.510903	-0.435639	2.682517	0.720672	-0.314538	0.553522	0.274429
35589	-9.510156	-1.182008	2.531375	0.718450	-0.312678	0.556544	0.276262
35590	-9.635729	-1.572609	2.370424	0.716700	-0.311092	0.558896	0.277845
35591	-9.570089	-1.610970	2.282347	0.715636	-0.309214	0.560933	0.278579
35592	-9.412650	-1.088144	2.326873	0.714815	-0.307033	0.562966	0.278997
35593	-9.405828	-0.499184	2.300673	0.713647	-0.305612	0.564701	0.280039
35594	-9.392504	-0.624388	2.215501	0.712122	-0.305226	0.565735	0.282248
35595	-9.479061	-0.947257	2.213112	0.710475	-0.305126	0.566418	0.285122
35596	-9.582586	-1.231194	2.114187	0.708808	-0.304849	0.567182	0.288034
35597	-9.723267	-1.644714	2.060927	0.707113	-0.304265	0.568325	0.290551
35598	-9.817555	-1.845566	2.112730	0.705553	-0.303122	0.570002	0.292250
35599	-9.871508	-1.586194	2.229229	0.704091	-0.302120	0.571674	0.293543
35600	-9.934453	-1.429031	2.438531	0.702515	-0.302122	0.572775	0.295167
35601	-9.883189	-1.751456	2.584755	0.701196	-0.302498	0.573123	0.297236
35602	-9.678990	-1.998125	2.632364	0.700356	-0.302692	0.572998	0.299251
35603	-9.607777	-2.143877	2.505495	0.699873	-0.303050	0.572442	0.301079
35604	-9.560943	-2.031747	2.377026	0.699575	-0.304014	0.571459	0.302664
35605	-9.497732	-1.998127	2.322182	0.699482	-0.305528	0.570071	0.303970
35606	-9.543980	-1.970450	2.267997	0.699569	-0.306984	0.568705	0.304859
35607	-9.620838	-1.810430	2.262035	0.699891	-0.308285	0.567310	0.305406
35608	-9.673622	-1.563392	2.261468	0.700321	-0.309790	0.565610	0.306049
35609	-9.807096	-1.624062	2.269107	0.700690	-0.311788	0.563447	0.307162
35610	-9.782052	-1.828539	2.232755	0.701285	-0.313465	0.561097	0.308398
35611	-9.643367	-1.840269	2.081793	0.702000	-0.315299	0.558593	0.309446
35612	-9.527041	-1.812302	1.975211	0.702626	-0.317546	0.556093	0.310229
35613	-9.641692	-1.799493	2.049773	0.703190	-0.320065	0.553606	0.310811
35614	-9.666396	-1.612048	2.128167	0.703898	-0.322359	0.551125	0.311247
35615	-9.623658	-1.471455	2.067120	0.704682	-0.324605	0.548525	0.311729
35616	-9.566843	-1.475938	2.063672	0.705546	-0.326777	0.545777	0.312329
35617	-9.590402	-1.347027	2.038176	0.706423	-0.328877	0.543011	0.312962
35618	-9.618039	-1.166988	2.066996	0.707226	-0.331054	0.540144	0.313814
35619	-9.614659	-1.177819	2.067079	0.707867	-0.333479	0.537160	0.314921
35620	-9.576185	-1.326448	2.023984	0.708426	-0.336099	0.534110	0.316064
35621	-9.465651	-1.277742	2.041040	0.708985	-0.338777	0.531101	0.317021
35622	-9.417738	-1.191773	2.075381	0.709509	-0.341350	0.528286	0.317790
35623	-9.418437	-1.011503	2.104362	0.709977	-0.343802	0.525526	0.318678
35624	-9.348428	-0.899754	2.147073	0.710255	-0.346333	0.522750	0.319881
35625	-9.424985	-0.892549	2.072575	0.710223	-0.349055	0.519854	0.321707
35626	-9.426527	-1.202886	1.992600	0.710166	-0.351651	0.516828	0.323876
35627	-9.371380	-1.418733	1.883369	0.710255	-0.353930	0.513924	0.325812
35628	-9.402640	-1.466034	1.838389	0.710299	-0.355921	0.511469	0.327405
35629	-9.572861	-1.653798	1.941635	0.710182	-0.357714	0.509535	0.328718
35630	-9.637886	-1.849881	2.024083	0.710046	-0.359613	0.507724	0.329741
35631	-9.618078	-1.838699	2.087799	0.710079	-0.361727	0.505523	0.330738
35632	-9.375897	-1.564176	2.106594	0.710266	-0.364230	0.502685	0.331913
35633	-9.197001	-1.400153	2.084813	0.710351	-0.367013	0.499540	0.333411
35634	-9.057744	-1.618783	1.917023	0.710204	-0.369717	0.496614	0.335103
35635	-9.129016	-2.010273	1.771766	0.710186	-0.371822	0.494211	0.336363
35636	-9.174571	-2.072543	1.692307	0.710560	-0.373130	0.492332	0.336881
35637	-9.253788	-1.971704	1.603513	0.711201	-0.373848	0.490919	0.336794
35638	-9.302628	-1.665790	1.569921	0.711916	-0.374417	0.489741	0.336366
35639	-9.293537	-1.560453	1.567156	0.712474	-0.374974	0.488854	0.335854
35640	-9.409853	-1.563693	1.581405	0.712823	-0.375308	0.488435	0.335349
35641	-9.483609	-1.675151	1.640507	0.713038	-0.375524	0.488327	0.334806
35642	-9.550723	-1.709937	1.751758	0.713182	-0.375779	0.488364	0.334159
35643	-9.511436	-1.636923	1.787524	0.713215	-0.376387	0.488243	0.333581
35644	-9.378746	-1.606826	1.854013	0.713089	-0.377352	0.488007	0.333106
35645	-9.312759	-1.598462	1.981516	0.712736	-0.378554	0.487936	0.332600
35646	-9.288853	-1.646627	2.077725	0.712233	-0.379710	0.488168	0.332018
35647	-9.322882	-1.885104	2.224376	0.711795	-0.380526	0.488696	0.331246
35648	-9.408921	-1.998071	2.345047	0.711698	-0.380828	0.489398	0.330068
35649	-9.260313	-2.007611	2.410361	0.711952	-0.380771	0.490159	0.328454
35650	-9.063737	-1.845299	2.580630	0.712344	-0.380681	0.491062	0.326354
35651	-8.994237	-1.752737	2.826244	0.712900	-0.380092	0.492482	0.323674
35652	-9.092223	-1.698604	3.098853	0.713682	-0.378623	0.494438	0.320677
35653	-9.094250	-1.678170	3.500044	0.714596	-0.376525	0.496751	0.317520
35654	-9.254457	-1.451817	3.755940	0.715425	-0.374759	0.498786	0.314539
35655	-9.453745	-1.337422	3.787106	0.716269	-0.373862	0.499648	0.312312
35656	-9.342687	-1.280620	3.656917	0.717244	-0.373431	0.499576	0.310700
35657	-9.035103	-1.208497	3.471434	0.718387	-0.372779	0.499494	0.308969
35658	-8.848784	-0.967193	3.248601	0.719708	-0.371518	0.499847	0.306834
35659	-8.703077	-0.918052	3.093828	0.721174	-0.369314	0.500857	0.304398
35660	-8.566717	-0.864151	3.044983	0.722643	-0.366114	0.502717	0.301701
35661	-8.540000	-0.765162	3.096070	0.723886	-0.362332	0.505344	0.298883
35662	-8.621142	-0.828686	3.300759	0.724880	-0.358388	0.508281	0.296240
35663	-8.879205	-1.043291	3.360448	0.725684	-0.354433	0.511185	0.294023
35664	-9.119513	-1.431524	3.254838	0.726391	-0.350803	0.513816	0.292036
35665	-9.280801	-1.726966	3.029949	0.727179	-0.347341	0.516260	0.289898
35666	-9.257641	-1.870042	2.853960	0.727943	-0.344129	0.518681	0.287478
35667	-9.150486	-1.819285	2.854083	0.728438	-0.341317	0.521263	0.284896
35668	-9.198714	-1.592038	2.815472	0.728323	-0.339348	0.523934	0.282633
35669	-9.355372	-1.811034	2.831317	0.727683	-0.338187	0.526459	0.280977
35670	-9.533055	-2.457340	2.628846	0.726985	-0.336721	0.529178	0.279432
35671	-9.999799	-2.904805	2.586298	0.726662	-0.333964	0.532434	0.277388
35672	-10.385721	-3.129193	2.573182	0.726819	-0.329795	0.536346	0.274413
35673	-10.388252	-3.112043	2.557735	0.727221	-0.325133	0.540478	0.270779
35674	-10.012922	-3.094259	2.539880	0.727626	-0.321038	0.544222	0.267052
35675	-9.501209	-3.294991	2.504229	0.728112	-0.317566	0.547437	0.263282
35676	-9.433151	-3.507310	2.506652	0.729209	-0.313541	0.550483	0.258679
35677	-9.434008	-3.414437	2.511777	0.731113	-0.308086	0.553732	0.252860
35678	-9.587218	-2.844617	2.655139	0.733472	-0.301774	0.557009	0.246359
35679	-9.735224	-2.314564	2.685369	0.735783	-0.296046	0.559505	0.240695
35680	-9.827618	-2.482117	2.584216	0.737868	-0.291686	0.560795	0.236601
35681	-9.935455	-2.862809	2.335589	0.739929	-0.288506	0.560970	0.233628
35682	-10.080624	-3.111684	1.967605	0.742103	-0.286081	0.560434	0.230985
35683	-10.137996	-3.304359	1.737282	0.744394	-0.284091	0.559539	0.228221
35684	-9.964435	-3.373628	1.644936	0.746847	-0.282099	0.558529	0.225133
35685	-9.802033	-3.326113	1.489996	0.749601	-0.280127	0.557244	0.221599
35686	-9.532157	-3.065273	1.368831	0.752545	-0.278673	0.555479	0.217854
35687	-9.461430	-2.860929	1.247834	0.755467	-0.277864	0.553414	0.213995
35688	-9.505722	-2.764629	1.203521	0.758368	-0.277202	0.551342	0.209902
35689	-9.418191	-2.506823	1.229075	0.761271	-0.276234	0.549541	0.205345
35690	-9.381227	-2.271751	1.189056	0.764105	-0.274939	0.547940	0.200785
35691	-9.432149	-2.113534	1.300910	0.766630	-0.273417	0.546655	0.196697
35692	-9.236431	-2.036954	1.283783	0.768838	-0.272158	0.545447	0.193147
35693	-9.242652	-2.000706	1.347011	0.770775	-0.271497	0.544144	0.190005
35694	-9.365327	-1.968881	1.462971	0.772648	-0.271175	0.542624	0.187186
35695	-9.369316	-1.795322	1.509192	0.774441	-0.270960	0.540991	0.184799
35696	-9.411928	-1.688622	1.415381	0.775886	-0.271013	0.539503	0.183000
35697	-9.300792	-1.859513	1.315006	0.776953	-0.271250	0.538273	0.181740
35698	-9.153735	-1.945163	1.225976	0.777737	-0.271697	0.537268	0.180688
35699	-8.740009	-1.964145	1.197739	0.778483	-0.271971	0.536450	0.179490
35700	-8.427503	-1.843227	1.305234	0.778928	-0.272319	0.536055	0.178210
35701	-8.359451	-1.864032	1.564014	0.779071	-0.272279	0.536336	0.176794
35702	-8.495166	-1.819855	1.917050	0.779125	-0.271750	0.537082	0.175097
35703	-8.665904	-1.588869	2.154786	0.779262	-0.271005	0.537775	0.173505
35704	-8.766196	-1.449352	2.172971	0.779461	-0.270513	0.538054	0.172516
35705	-8.752519	-1.430384	1.995920	0.779542	-0.270535	0.537983	0.172336
35706	-8.756202	-1.634546	1.860102	0.779296	-0.270963	0.538012	0.172685
35707	-8.907595	-2.002700	1.836888	0.778832	-0.271062	0.538573	0.172876
35708	-9.124716	-2.064498	2.074362	0.778308	-0.270488	0.539763	0.172417
35709	-9.327153	-1.794373	2.316601	0.777788	-0.269482	0.541284	0.171572
35710	-9.518713	-1.563928	2.493533	0.777357	-0.268349	0.542646	0.170995
35711	-9.653419	-1.607595	2.558426	0.776940	-0.267387	0.543684	0.171100
35712	-9.681881	-1.668923	2.540872	0.776423	-0.266575	0.544652	0.171638
35713	-9.733833	-1.889861	2.540156	0.775655	-0.266034	0.545733	0.172511
35714	-9.796680	-2.216367	2.555803	0.774653	-0.265914	0.546882	0.173560
35715	-9.859307	-2.428791	2.590311	0.773630	-0.266088	0.547997	0.174336
35716	-9.856216	-2.490650	2.717405	0.772659	-0.266474	0.549104	0.174569
35717	-9.790012	-2.440155	2.863948	0.771876	-0.266641	0.550202	0.174319
35718	-9.575499	-2.150508	3.110901	0.771271	-0.266984	0.551022	0.173883
35719	-9.424299	-1.925528	3.304096	0.770679	-0.268079	0.551369	0.173720
35720	-9.347719	-1.710581	3.320258	0.770272	-0.270021	0.550815	0.174277
35721	-9.087897	-1.627657	3.161969	0.769972	-0.272672	0.549490	0.175653
35722	-8.996552	-1.707494	2.919226	0.769549	-0.275628	0.547975	0.177615
35723	-9.107199	-1.922818	2.826103	0.769111	-0.278262	0.546518	0.179881
35724	-9.145127	-2.028004	2.781481	0.768714	-0.280161	0.545323	0.182241
35725	-9.314060	-2.112693	2.645997	0.768284	-0.281941	0.544154	0.184787
35726	-9.348076	-2.359930	2.464800	0.767886	-0.283855	0.542737	0.187652
35727	-9.390568	-2.632568	2.280010	0.767512	-0.285772	0.541235	0.190589
35728	-9.465406	-2.867781	2.263492	0.767189	-0.287422	0.539891	0.193201
35729	-9.595130	-2.948708	2.358939	0.766829	-0.288745	0.538921	0.195355
35730	-9.629220	-2.823309	2.666410	0.766487	-0.290059	0.538013	0.197244
35731	-9.617602	-2.759654	2.829848	0.766199	-0.291893	0.536629	0.199415
35732	-9.317910	-2.760852	2.828563	0.766102	-0.294522	0.534349	0.202030
35733	-9.061304	-2.713915	2.610066	0.766183	-0.297850	0.531240	0.205019
35734	-9.130677	-2.747305	2.374591	0.766350	-0.301371	0.527803	0.208106
35735	-9.293493	-2.844430	2.155668	0.766621	-0.304312	0.524570	0.210980
35736	-9.338825	-2.869956	2.115360	0.766916	-0.306532	0.521839	0.213450
35737	-9.148123	-2.824714	2.040523	0.767196	-0.308368	0.519435	0.215655
35738	-8.794953	-2.627915	1.912990	0.767494	-0.310284	0.516921	0.217876
35739	-8.722475	-2.528219	1.727967	0.767763	-0.312274	0.514307	0.220257
35740	-8.989608	-2.600402	1.764181	0.767975	-0.313503	0.512248	0.222561
35741	-9.384313	-2.671621	1.890482	0.768127	-0.313514	0.511124	0.224594
35742	-9.526360	-2.754235	2.030133	0.768140	-0.312834	0.510600	0.226681
35743	-9.415372	-2.818712	2.053508	0.767936	-0.312494	0.510041	0.229084
35744	-9.237047	-3.048503	1.994117	0.767618	-0.312981	0.509032	0.231717
35745	-9.090858	-3.232224	1.859302	0.767433	-0.313693	0.507722	0.234224
35746	-9.134336	-3.352421	1.909563	0.767472	-0.313853	0.506653	0.236190
35747	-9.151155	-3.200176	2.056352	0.767757	-0.313066	0.506104	0.237482
35748	-9.020865	-2.782967	2.078882	0.768169	-0.311964	0.505718	0.238422
35749	-8.980220	-2.562930	2.057449	0.768817	-0.310998	0.504706	0.239734
35750	-8.748718	-2.297098	1.670759	0.769451	-0.310357	0.503240	0.241603
35751	-8.570666	-2.509028	1.339228	0.769867	-0.309841	0.501857	0.243810
35752	-8.541913	-2.873250	1.168832	0.770070	-0.308467	0.501412	0.245817
35753	-8.558010	-3.076849	1.251110	0.770187	-0.305780	0.502253	0.247089
35754	-8.580105	-3.063537	1.473914	0.770342	-0.302086	0.504084	0.247421
35755	-8.508253	-2.743456	1.660081	0.770574	-0.298367	0.506039	0.247220
35756	-8.503954	-2.343379	1.766468	0.770734	-0.295226	0.507695	0.247097
35757	-8.692180	-2.001133	1.829117	0.770840	-0.292839	0.508819	0.247293
35758	-8.663229	-1.634089	1.767605	0.770830	-0.290554	0.509884	0.247827
35759	-8.712988	-1.177822	1.655855	0.770403	-0.288025	0.511487	0.248800
35760	-8.863101	-1.192270	1.816206	0.769195	-0.285406	0.514052	0.250267
35761	-9.123430	-1.484404	2.063253	0.767549	-0.282283	0.517526	0.251696
35762	-9.047962	-1.721037	2.299366	0.765701	-0.278995	0.521772	0.252226
35763	-8.813238	-1.740110	2.804948	0.763697	-0.275879	0.526757	0.251365
35764	-8.685198	-1.729094	3.394794	0.761502	-0.272959	0.532427	0.249260
35765	-8.906709	-1.517720	4.267199	0.759380	-0.269603	0.538477	0.246371
35766	-9.433465	-1.206436	4.757849	0.757316	-0.266677	0.544172	0.243377
35767	-10.173241	-1.019220	5.078661	0.755556	-0.265032	0.548386	0.241175
35768	-10.620861	-0.908030	5.096602	0.754399	-0.265163	0.550322	0.240241
35769	-10.729817	-1.167566	4.819886	0.753769	-0.267061	0.550221	0.240349
35770	-10.505801	-1.377302	4.494170	0.753625	-0.269730	0.548921	0.240791
35771	-10.226238	-1.353568	4.234605	0.753741	-0.272359	0.547420	0.240887
35772	-9.938241	-1.270637	4.002663	0.754062	-0.274556	0.546077	0.240434
35773	-9.606608	-1.268929	3.962218	0.754793	-0.275589	0.544978	0.239451
35774	-9.322811	-1.147969	3.802320	0.756002	-0.275210	0.544157	0.237935
35775	-9.123524	-0.908131	3.597836	0.757300	-0.273892	0.543674	0.236430
35776	-9.136636	-1.081530	3.379403	0.758375	-0.272358	0.543387	0.235412
35777	-9.278447	-1.509813	3.217435	0.759310	-0.270780	0.543163	0.234734
35778	-9.398973	-1.693198	3.159378	0.760256	-0.269432	0.542772	0.234127
35779	-9.531663	-1.758760	3.141566	0.761167	-0.268778	0.541999	0.233710
35780	-9.729311	-1.769939	3.056609	0.762166	-0.268800	0.540612	0.233642
35781	-9.780148	-1.804774	2.931438	0.763316	-0.269284	0.538614	0.233944
35782	-9.799431	-1.681106	2.659600	0.764508	-0.270497	0.535968	0.234728
35783	-9.655423	-1.477327	2.359912	0.765663	-0.272522	0.532659	0.236148
35784	-9.360033	-1.444679	2.101972	0.766612	-0.275079	0.529100	0.238098
35785	-9.222933	-1.625085	1.906689	0.767303	-0.277300	0.525998	0.240161
35786	-9.174852	-1.824659	1.799260	0.767993	-0.278705	0.523506	0.241768
35787	-9.178702	-1.686008	1.911951	0.768814	-0.279237	0.521543	0.242786
35788	-9.157136	-1.303751	2.145390	0.769686	-0.279520	0.519696	0.243654
35789	-9.124978	-0.945624	2.315907	0.770610	-0.279911	0.517551	0.244850
35790	-9.269416	-0.706597	2.363101	0.771631	-0.280354	0.514941	0.246624
35791	-9.554652	-0.690442	2.200945	0.772772	-0.280349	0.512132	0.248895
35792	-10.012352	-0.880404	2.032071	0.773973	-0.279757	0.509418	0.251386
35793	-10.426502	-0.723886	1.934470	0.775098	-0.278941	0.506892	0.253921
35794	-10.721109	-0.483057	1.959311	0.775990	-0.278683	0.504133	0.256954
35795	-10.810450	-0.433376	1.922918	0.776525	-0.279237	0.500963	0.260906
35796	-10.965861	-0.702657	1.873320	0.776813	-0.280276	0.497591	0.265350
35797	-11.098246	-0.817817	1.898812	0.777020	-0.281379	0.494265	0.269755
35798	-11.039666	-0.490824	2.050107	0.776803	-0.283091	0.491155	0.274233
35799	-10.761840	-0.658897	2.397173	0.775835	-0.285412	0.488634	0.279028
35800	-10.113951	-1.054318	2.760861	0.774563	-0.287507	0.486778	0.283618
35801	-9.214601	-1.302278	3.171162	0.773628	-0.288839	0.485263	0.287388
35802	-8.432211	-1.095241	3.507735	0.773067	-0.289742	0.483619	0.290739
35803	-8.085220	-0.866462	3.570817	0.772768	-0.290821	0.481401	0.294120
35804	-7.970532	-0.706548	3.395368	0.772494	-0.292556	0.478598	0.297671
35805	-8.056952	-0.377052	3.264884	0.771840	-0.295095	0.475598	0.301643
35806	-8.202232	-0.425348	3.259021	0.770475	-0.298159	0.472990	0.306185
35807	-8.565560	-0.735335	3.328086	0.768453	-0.301250	0.471067	0.311166
35808	-8.734182	-1.216271	3.344488	0.766122	-0.304263	0.469526	0.316270
35809	-8.737282	-1.707158	3.295424	0.763800	-0.306876	0.468301	0.321138
35810	-8.400355	-1.856196	3.296547	0.761779	-0.308849	0.467457	0.325253
35811	-8.105102	-1.698637	3.456950	0.759807	-0.310255	0.467504	0.328444
35812	-7.998044	-1.448484	3.773812	0.757497	-0.311455	0.468517	0.331189
35813	-8.164796	-1.438811	3.967372	0.754854	-0.312990	0.469781	0.333974
35814	-8.211189	-1.669430	4.057820	0.752037	-0.315075	0.470710	0.337046
35815	-8.335680	-1.944405	4.114245	0.749261	-0.317403	0.471326	0.340168
35816	-8.350641	-1.969831	4.158948	0.746757	-0.319752	0.471736	0.342896
35817	-8.362101	-1.812938	4.158568	0.744375	-0.322013	0.472156	0.345372
35818	-8.507606	-1.737117	4.152889	0.741954	-0.324090	0.472655	0.347946
35819	-8.606687	-2.032450	4.127002	0.739677	-0.325497	0.473170	0.350771
35820	-8.439148	-2.212063	4.046072	0.737503	-0.326336	0.473863	0.353620
35821	-8.220840	-2.467441	4.046801	0.735241	-0.327364	0.474742	0.356194
35822	-8.135201	-2.553087	4.171499	0.732914	-0.328912	0.475636	0.358362
35823	-8.116866	-2.437116	4.329899	0.730660	-0.331115	0.476152	0.360247
35824	-8.281081	-2.370843	4.394497	0.728731	-0.333562	0.476031	0.362053
35825	-8.395573	-2.311564	4.326194	0.727195	-0.335704	0.475370	0.364023
35826	-8.610356	-2.387045	4.183159	0.725848	-0.337498	0.474542	0.366129
35827	-8.769242	-2.640311	3.902636	0.724809	-0.338711	0.473885	0.367912
35828	-8.875091	-2.758754	3.797975	0.723903	-0.339572	0.473722	0.369111
35829	-8.935636	-2.760868	3.859378	0.722988	-0.340480	0.473960	0.369761
35830	-8.806336	-2.593413	4.092066	0.722209	-0.341572	0.474339	0.369792
35831	-8.846357	-2.603874	4.280366	0.721809	-0.342392	0.474818	0.369198
35832	-8.968896	-2.429479	4.425386	0.722237	-0.341978	0.475320	0.368098
35833	-8.886067	-2.004048	4.475758	0.723165	-0.340743	0.475671	0.366966
35834	-8.861934	-1.896363	4.522531	0.724035	-0.339755	0.475727	0.366094
35835	-9.004436	-1.971473	4.573436	0.724698	-0.339325	0.475472	0.365510
35836	-9.238912	-2.067880	4.522938	0.725505	-0.339473	0.474361	0.365214
35837	-9.343397	-2.032204	4.269344	0.726719	-0.340007	0.472182	0.365128
35838	-9.353399	-1.917225	3.995106	0.728462	-0.340516	0.469193	0.365033
35839	-9.415489	-1.835533	3.795304	0.730574	-0.340395	0.466237	0.364713
35840	-9.733310	-1.539043	3.698524	0.732674	-0.339532	0.463852	0.364346
35841	-10.083740	-1.596376	3.665426	0.734390	-0.338359	0.462005	0.364329
35842	-10.215058	-1.998881	3.638809	0.735717	-0.336939	0.460810	0.364483
35843	-10.060107	-2.476026	3.761352	0.736769	-0.335632	0.460199	0.364334
35844	-9.770973	-2.824436	4.111497	0.737687	-0.334686	0.459949	0.363661
35845	-9.476601	-3.055835	4.588781	0.738955	-0.333839	0.459585	0.362326
35846	-9.368967	-2.887795	4.896299	0.741086	-0.332668	0.458551	0.360353
35847	-9.455179	-2.108026	4.800888	0.743831	-0.331689	0.456080	0.358733
35848	-9.518280	-2.019267	4.489690	0.746560	-0.331266	0.452386	0.358131
35849	-9.534523	-2.238767	4.089648	0.749188	-0.330898	0.448359	0.358048
35850	-9.018643	-2.406228	3.816903	0.751709	-0.330617	0.444626	0.357678
35851	-8.487717	-2.506989	3.704869	0.754061	-0.330444	0.441657	0.356563
35852	-8.336345	-2.462632	3.693013	0.756625	-0.329543	0.439549	0.354565
35853	-8.507735	-2.196469	3.750675	0.759787	-0.327258	0.438031	0.351787
35854	-8.681595	-1.718775	3.775804	0.763243	-0.324013	0.436923	0.348673
35855	-8.731264	-1.438045	3.858749	0.766528	-0.320544	0.436102	0.345690
35856	-8.458919	-1.203865	3.801976	0.769464	-0.317040	0.435442	0.343222
35857	-8.275955	-1.155626	3.663225	0.772007	-0.314084	0.434480	0.341444
35858	-8.317402	-1.209734	3.418186	0.774126	-0.311917	0.433172	0.340293
35859	-8.469395	-1.646642	3.324791	0.775907	-0.310176	0.432067	0.339232
35860	-8.465102	-1.886877	3.341128	0.777655	-0.307720	0.431942	0.337620
35861	-8.028452	-1.682944	3.503242	0.779454	-0.304576	0.432724	0.335314
35862	-7.577708	-1.351062	3.533494	0.781189	-0.301628	0.433620	0.332774
35863	-7.642651	-1.218902	3.456885	0.782778	-0.299417	0.434055	0.330462
35864	-8.119989	-1.208374	3.494088	0.784237	-0.297661	0.434301	0.328258
35865	-8.504723	-1.254683	3.656743	0.785644	-0.295441	0.434998	0.325968
35866	-8.467904	-1.088122	3.938249	0.786685	-0.292856	0.436593	0.323649
35867	-8.005932	-1.043988	4.283110	0.787124	-0.290496	0.438835	0.321668
35868	-7.597996	-1.165520	4.365736	0.787424	-0.288645	0.440708	0.320038
35869	-7.770823	-1.436037	4.309103	0.787915	-0.287077	0.441997	0.318459
35870	-8.069287	-1.382152	4.304868	0.788672	-0.285240	0.443287	0.316435
35871	-8.255222	-1.081193	4.525121	0.789473	-0.283351	0.444810	0.313988
35872	-7.970343	-0.707502	4.677679	0.789702	-0.281805	0.446892	0.311840
35873	-7.913909	-1.015100	4.937477	0.789334	-0.280523	0.449460	0.310233
35874	-7.795654	-1.287141	5.057632	0.789135	-0.278849	0.451877	0.308732
35875	-8.063612	-1.524286	5.208135	0.789366	-0.276311	0.454385	0.306736
35876	-8.410403	-1.614194	5.451238	0.790105	-0.272950	0.456967	0.303997
35877	-8.543033	-1.289587	5.592798	0.791010	-0.269403	0.459585	0.300844
35878	-8.500838	-0.930939	5.704375	0.791933	-0.266601	0.461494	0.297976
35879	-7.920231	-0.687001	5.734771	0.792649	-0.265000	0.462620	0.295744
35880	-7.517867	-0.774727	5.705795	0.793202	-0.264424	0.463078	0.294054
35881	-7.409902	-1.130659	5.609601	0.794023	-0.263593	0.463235	0.292337
35882	-7.434911	-0.830322	5.423652	0.795423	-0.262174	0.462904	0.290322
35883	-7.814256	-0.523912	4.966682	0.797079	-0.261333	0.461660	0.288513
35884	-8.432703	-0.447114	4.574622	0.798782	-0.261525	0.459449	0.287157
35885	-8.801868	-0.681162	4.292150	0.800425	-0.262016	0.457023	0.286005
35886	-9.065250	-0.816884	4.140075	0.801804	-0.262185	0.455319	0.284701
35887	-8.924746	-0.987241	4.114153	0.802776	-0.261901	0.454800	0.283048
35888	-8.878039	-1.051559	4.265183	0.803421	-0.261213	0.455316	0.281015
35889	-8.686605	-0.837241	4.567652	0.804280	-0.260237	0.455902	0.278502
35890	-8.521746	-0.457495	4.742910	0.805202	-0.259587	0.456241	0.275876
35891	-8.556948	-0.262697	4.840999	0.805728	-0.259304	0.456778	0.273712
35892	-8.660446	-0.418701	4.968094	0.805808	-0.258947	0.457649	0.272356
35893	-8.891889	-0.504579	4.974041	0.805562	-0.258728	0.458559	0.271759
35894	-9.063010	-0.685616	4.925641	0.805218	-0.258850	0.459058	0.271821
35895	-9.043109	-0.958674	4.726150	0.805035	-0.259016	0.459025	0.272259
35896	-9.246898	-0.964983	4.352031	0.804944	-0.259049	0.458750	0.272960
35897	-9.794449	-1.276120	4.023412	0.804786	-0.258954	0.458515	0.273909
35898	-10.506288	-1.643909	3.935178	0.804581	-0.258103	0.458801	0.274836
35899	-10.391300	-1.948807	4.053986	0.804242	-0.256030	0.460185	0.275451
35900	-9.610741	-1.945694	4.250111	0.803726	-0.253224	0.462380	0.275874
35901	-8.597393	-1.790016	4.259878	0.802926	-0.251336	0.464426	0.276493
35902	-7.792813	-2.000351	4.279396	0.802129	-0.250607	0.465613	0.277470
35903	-7.353088	-2.085007	4.077421	0.801705	-0.249951	0.466172	0.278350
35904	-7.458356	-2.031543	3.835829	0.801664	-0.248755	0.466407	0.279140
35905	-7.742605	-2.017920	3.572660	0.801917	-0.246684	0.466509	0.280082
35906	-8.147036	-2.165498	3.316594	0.802100	-0.244138	0.466807	0.281290
35907	-8.492125	-2.374326	3.213095	0.802009	-0.241407	0.467539	0.282688
35908	-8.788453	-2.556074	3.184720	0.801541	-0.238757	0.468681	0.284368
35909	-8.941989	-2.837981	3.255385	0.800891	-0.236332	0.469841	0.286304
35910	-9.053153	-3.006507	3.229370	0.800445	-0.234253	0.470481	0.288205
35911	-9.033049	-3.196683	3.247668	0.800383	-0.232305	0.470549	0.289839
35912	-8.822330	-3.120463	3.180038	0.800618	-0.230290	0.470408	0.291021
35913	-8.810005	-2.921833	3.061248	0.800907	-0.228425	0.470413	0.291687
35914	-8.973450	-2.537195	3.000447	0.801118	-0.227057	0.470466	0.292089
35915	-9.091407	-2.168484	3.009947	0.801147	-0.226153	0.470600	0.292497
35916	-9.146620	-1.906586	3.063535	0.800835	-0.226401	0.470680	0.293029
35917	-9.249617	-2.027033	3.061257	0.800274	-0.228200	0.470413	0.293595
35918	-9.323748	-2.265417	3.098363	0.799660	-0.231059	0.469867	0.293906
35919	-9.444699	-2.399207	3.171653	0.799214	-0.234039	0.469170	0.293873
35920	-9.413701	-1.830568	3.216148	0.798948	-0.237155	0.468252	0.293564
35921	-9.338847	-1.540824	3.287674	0.798704	-0.241156	0.466920	0.293090
35922	-9.105679	-1.455988	3.200735	0.798300	-0.245800	0.465742	0.292205
35923	-8.914598	-1.282924	3.215449	0.797609	-0.250067	0.465481	0.290884
35924	-8.846324	-1.153689	3.449556	0.796739	-0.253895	0.465957	0.289187
35925	-8.898187	-0.794705	3.723636	0.795979	-0.256967	0.466695	0.287369
35926	-8.837308	-0.645993	3.975886	0.795435	-0.258565	0.467807	0.285629
35927	-8.820290	-0.699895	3.968323	0.794847	-0.259013	0.469581	0.283944
35928	-8.910035	-0.829788	4.042195	0.793986	-0.258996	0.471982	0.282384
35929	-8.924134	-1.055600	4.166948	0.792695	-0.258993	0.475005	0.280941
35930	-9.090686	-1.309313	4.421749	0.791051	-0.258940	0.478666	0.279404
35931	-9.176121	-1.423427	4.735493	0.789363	-0.258285	0.482812	0.277646
35932	-9.386996	-1.451736	5.006962	0.788023	-0.256870	0.486808	0.275781
35933	-9.375579	-1.481452	5.125536	0.787261	-0.254857	0.490140	0.273917
35934	-9.357925	-1.302620	5.106195	0.786870	-0.253026	0.492671	0.272192
35935	-9.277637	-1.410500	5.041557	0.786556	-0.252008	0.494442	0.270829
35936	-9.302139	-1.578346	4.953782	0.786297	-0.251484	0.495816	0.269554
35937	-9.260039	-1.659553	4.952794	0.786355	-0.250768	0.496910	0.268034
35938	-9.259975	-1.693633	4.858574	0.786797	-0.249486	0.497822	0.266236
35939	-9.284654	-1.519478	4.729033	0.787546	-0.248138	0.498293	0.264391
35940	-9.263679	-1.449156	4.595053	0.788549	-0.247141	0.498166	0.262568
35941	-9.168860	-1.319242	4.386447	0.789669	-0.246758	0.497595	0.260637
35942	-9.206797	-1.165657	4.231449	0.790788	-0.246740	0.496821	0.258732
35943	-9.176325	-0.939873	4.151747	0.791909	-0.246924	0.495744	0.257191
35944	-9.069174	-1.049976	3.890680	0.792895	-0.247495	0.494426	0.256138
35945	-9.047333	-1.316426	3.653247	0.793813	-0.247942	0.493235	0.255158
35946	-9.024989	-1.424211	3.440231	0.794761	-0.248057	0.492344	0.253813
35947	-9.093007	-1.490249	3.360269	0.795677	-0.248083	0.491693	0.252172
35948	-8.869336	-1.392918	3.137951	0.796550	-0.247805	0.491455	0.250147
35949	-8.922554	-1.587066	3.002828	0.797064	-0.247510	0.491900	0.247918
35950	-8.885969	-1.543747	2.774928	0.797091	-0.247223	0.493321	0.245277
35951	-8.837501	-1.414106	2.261217	0.796564	-0.247242	0.495733	0.242088
35952	-8.888979	-1.405982	1.911062	0.795385	-0.247366	0.499511	0.238035
35953	-9.051247	-1.824990	1.729789	0.793801	-0.247091	0.504445	0.233157
35954	-9.205344	-2.040583	1.774771	0.792181	-0.245942	0.510152	0.227391
35955	-9.279365	-2.155841	1.750459	0.790584	-0.244320	0.516183	0.220998
35956	-9.259448	-1.709549	1.920517	0.789209	-0.242606	0.521956	0.214133
35957	-9.031834	-1.084112	2.139238	0.787834	-0.242174	0.527002	0.207214
35958	-9.165715	-1.025754	2.220179	0.786538	-0.242918	0.530939	0.201129
35959	-9.089426	-1.221434	2.185978	0.785330	-0.244275	0.533880	0.196362
35960	-9.021969	-1.601325	2.079696	0.784004	-0.245699	0.536409	0.192963
35961	-9.072812	-1.881572	1.928978	0.782424	-0.247078	0.538907	0.190645
35962	-9.096556	-2.347254	1.819878	0.780765	-0.248423	0.541467	0.188429
35963	-9.076883	-2.208814	2.010525	0.778916	-0.249993	0.544286	0.185867
35964	-9.029466	-1.678456	2.243105	0.776545	-0.252661	0.547362	0.183126
35965	-9.245545	-2.317501	2.392958	0.773792	-0.255695	0.550773	0.180321
35966	-9.482221	-2.580086	2.504140	0.771338	-0.257256	0.554615	0.176803
35967	-9.633312	-2.705278	2.696930	0.769473	-0.257055	0.558674	0.172386
35968	-9.720162	-2.571603	2.733422	0.767984	-0.255816	0.562841	0.167238
35969	-9.811035	-2.590496	2.896065	0.766599	-0.254363	0.567010	0.161632
35970	-9.859779	-2.876905	2.986013	0.765254	-0.252680	0.571286	0.155475
35971	-9.950565	-2.954191	2.940588	0.763858	-0.251008	0.575643	0.148832
35972	-9.984467	-2.948115	2.894461	0.762586	-0.249371	0.579879	0.141478
35973	-10.058302	-2.765154	2.790892	0.761401	-0.248033	0.584012	0.132959
35974	-10.118872	-2.818303	2.724587	0.760273	-0.247110	0.587979	0.123300
35975	-10.206893	-2.834983	2.819010	0.759376	-0.246014	0.591767	0.112415
35976	-10.171416	-2.633252	2.893448	0.758604	-0.244664	0.595450	0.100491
35977	-10.292686	-2.750456	2.961809	0.757904	-0.243360	0.598841	0.088018
35978	-10.593421	-3.214360	2.892324	0.757509	-0.242437	0.601467	0.075118
35979	-10.539657	-4.159407	2.187518	0.757130	-0.242236	0.603613	0.061054
35980	-10.316902	-5.630846	1.248536	0.755813	-0.242060	0.606833	0.043674
35981	-10.654861	-6.192871	0.689763	0.752757	-0.241580	0.611966	0.022201
35982	-11.340575	-6.106817	0.017764	0.747810	-0.241157	0.618554	-0.003856
35983	-11.580883	-5.491286	-0.223925	0.741168	-0.240961	0.625732	-0.032666
35984	-11.390756	-4.395258	-0.587967	0.732502	-0.241696	0.633524	-0.060594
35985	-10.859404	-3.952429	-0.663545	0.720980	-0.244817	0.642518	-0.086156
35986	-10.195378	-3.598916	-0.618686	0.706926	-0.249965	0.652655	-0.108690
35987	-9.343014	-3.509876	-0.713490	0.690512	-0.255354	0.664519	-0.128073
35988	-8.994753	-4.086695	-0.884413	0.672677	-0.259226	0.677577	-0.145593
35989	-8.593915	-3.597981	-1.048367	0.655109	-0.260836	0.690317	-0.162045
35990	-8.156455	-3.628889	-1.399992	0.638288	-0.261229	0.702092	-0.177243
35991	-7.615097	-4.032548	-1.810783	0.622244	-0.260509	0.713049	-0.191073
35992	-7.985114	-4.047280	-1.489057	0.607992	-0.257928	0.722743	-0.203621
35993	-8.781343	-4.160824	0.084863	0.599017	-0.252267	0.728891	-0.215075
35994	-8.599661	-4.059419	1.176590	0.598701	-0.242125	0.729207	-0.226250
