// Start Time: Unknown
// Update Rate: 60.0Hz
// Filter Profile: human (46.1)
// Option Flags: AHS Disabled ICC Disabled 
// Firmware Version: 4.3.5
PacketCounter	Acc_X	Acc_Y	Acc_Z	Quat_q0	Quat_q1	Quat_q2	Quat_q3
43442	1.427852	0.445533	9.678206	0.715591	-0.024288	-0.066659	-0.694907
43443	1.356189	0.770220	9.778006	0.715148	-0.022994	-0.066986	-0.695376
43444	1.158818	0.817396	9.831854	0.714710	-0.022411	-0.066875	-0.695856
43445	1.183873	0.604459	9.683764	0.714375	-0.022248	-0.066885	-0.696203
43446	1.240382	0.617914	9.610050	0.714040	-0.021998	-0.067216	-0.696523
43447	1.270294	0.695232	9.582411	0.713712	-0.021538	-0.067521	-0.696845
43448	1.388794	0.691940	9.605781	0.713431	-0.021019	-0.067503	-0.697150
43449	1.277875	0.682721	9.639069	0.713209	-0.020428	-0.067336	-0.697410
43450	1.149429	0.778663	9.696627	0.712966	-0.019916	-0.067120	-0.697694
43451	1.202665	0.727387	9.727219	0.712764	-0.019534	-0.066925	-0.697930
43452	1.261224	0.716388	9.770685	0.712587	-0.019268	-0.066722	-0.698138
43453	1.237524	0.722257	9.799058	0.712400	-0.018981	-0.066648	-0.698344
43454	1.248371	0.603934	9.784931	0.712187	-0.018513	-0.066814	-0.698558
43455	1.204960	0.655751	9.701841	0.711942	-0.017819	-0.067265	-0.698782
43456	1.275335	0.851611	9.711089	0.711626	-0.017196	-0.067619	-0.699085
43457	1.246042	0.929231	9.788546	0.711361	-0.016720	-0.067796	-0.699350
43458	1.228369	0.823579	9.708677	0.711233	-0.016417	-0.067794	-0.699487
43459	1.167626	0.784267	9.647927	0.711173	-0.016167	-0.067806	-0.699553
43460	1.250519	0.747247	9.660708	0.711048	-0.015892	-0.067809	-0.699686
43461	1.341125	0.872548	9.692073	0.710860	-0.015495	-0.067621	-0.699904
43462	1.173496	0.791659	9.727948	0.710715	-0.015057	-0.067480	-0.700074
43463	1.050575	0.780321	9.688142	0.710603	-0.014528	-0.067830	-0.700166
43464	1.112764	0.886289	9.552351	0.710466	-0.014015	-0.068488	-0.700251
43465	1.250048	1.051239	9.439421	0.710389	-0.013569	-0.068981	-0.700289
43466	1.186605	1.034682	9.348262	0.710379	-0.013380	-0.069031	-0.700298
43467	1.198177	0.911400	9.249052	0.710449	-0.013229	-0.068853	-0.700248
43468	1.143529	0.835861	9.260685	0.710508	-0.012839	-0.068537	-0.700226
43469	1.156080	0.883300	9.278653	0.710524	-0.012248	-0.068292	-0.700244
43470	1.126933	1.096673	9.297531	0.710564	-0.011755	-0.067849	-0.700255
43471	1.115809	0.796543	9.205012	0.710726	-0.011415	-0.067242	-0.700155
43472	1.079259	0.818944	9.291270	0.710951	-0.010732	-0.066745	-0.699985
43473	1.216771	0.912076	9.445160	0.711099	-0.009845	-0.065849	-0.699932
43474	1.014403	0.898037	9.524192	0.711208	-0.008897	-0.064888	-0.699924
43475	0.843851	0.886216	9.472948	0.711384	-0.007922	-0.064242	-0.699816
43476	0.826852	1.052664	9.471943	0.711687	-0.007174	-0.063526	-0.699582
43477	0.782989	0.894610	9.342847	0.712095	-0.006964	-0.062563	-0.699255
43478	0.819475	0.698227	9.134349	0.712496	-0.006855	-0.061709	-0.698923
43479	0.995890	0.492518	9.012261	0.712851	-0.006050	-0.061119	-0.698621
43480	0.859284	0.585027	8.880013	0.713146	-0.004504	-0.060699	-0.698369
43481	0.603146	0.652793	8.832742	0.713234	-0.002721	-0.060271	-0.698324
43482	0.688368	0.697902	8.715393	0.713266	-0.000785	-0.059944	-0.698325
43483	0.494474	0.727114	8.483230	0.713345	0.001181	-0.059743	-0.698261
43484	0.595669	0.903084	8.540957	0.713571	0.003014	-0.059122	-0.698077
43485	0.675448	0.837910	8.657408	0.713912	0.004728	-0.057155	-0.697883
43486	0.997775	0.646372	9.087950	0.714329	0.006828	-0.053978	-0.697692
43487	0.822087	0.905194	9.609532	0.714803	0.009171	-0.049906	-0.697482
43488	0.418690	0.942452	10.033845	0.715344	0.011049	-0.045178	-0.697223
43489	0.104013	0.701838	10.477836	0.716163	0.012525	-0.040328	-0.696654
43490	0.258788	0.594889	10.729731	0.717105	0.013753	-0.035964	-0.695901
43491	0.265923	0.179154	10.677057	0.717896	0.015131	-0.032465	-0.695228
43492	0.221893	0.239793	10.679104	0.718439	0.016855	-0.030082	-0.694734
43493	-0.101548	0.584160	10.433025	0.718511	0.018296	-0.028359	-0.694697
43494	0.186865	0.823045	10.604289	0.718492	0.019261	-0.026200	-0.694775
43495	0.399808	0.855720	11.120771	0.719094	0.019381	-0.022480	-0.694279
43496	0.369174	0.359189	11.446447	0.720292	0.018671	-0.017501	-0.693199
43497	0.367266	-0.281577	11.811380	0.721432	0.017760	-0.012493	-0.692145
43498	0.150939	-0.451062	12.008884	0.721931	0.017588	-0.008278	-0.691692
43499	-0.086913	-0.417156	12.205490	0.721703	0.018073	-0.005166	-0.691947
43500	0.060929	-0.153512	12.465510	0.721102	0.018295	-0.003105	-0.692581
43501	0.034121	0.088607	12.410352	0.720332	0.017690	-0.001810	-0.693402
43502	-0.026062	0.538630	12.485408	0.719439	0.016106	-0.000588	-0.694368
43503	0.155306	1.330894	13.068927	0.718717	0.012636	0.002234	-0.695184
43504	0.311492	1.212450	13.490062	0.718717	0.006245	0.008162	-0.695227
43505	0.215634	-0.348927	13.259824	0.719415	-0.002161	0.015323	-0.694408
43506	-0.063987	-1.941237	12.597599	0.720100	-0.010155	0.019580	-0.693519
43507	-0.463360	-2.453395	11.495919	0.719831	-0.016224	0.018020	-0.693726
43508	-0.726675	-1.750449	10.085847	0.717775	-0.020456	0.010040	-0.695902
43509	-0.586760	-0.495226	8.493231	0.714068	-0.023323	-0.002927	-0.699681
43510	0.134840	0.693108	6.969236	0.709507	-0.024302	-0.017655	-0.704058
43511	0.736484	2.103093	6.106811	0.705440	-0.023504	-0.030216	-0.707735
43512	0.907346	3.036193	5.674495	0.703154	-0.022609	-0.037800	-0.709672
43513	0.543596	3.481306	5.970981	0.703005	-0.024023	-0.039426	-0.709684
43514	0.456494	2.595331	6.235920	0.704263	-0.028154	-0.035949	-0.708469
43515	0.347180	1.296731	6.516760	0.706154	-0.033274	-0.030143	-0.706634
43516	0.515109	0.089777	6.977313	0.708254	-0.037603	-0.024587	-0.704527
43517	0.643765	-0.518724	7.497518	0.710296	-0.040106	-0.020858	-0.702450
43518	0.644948	-0.819883	7.971864	0.712125	-0.040800	-0.018848	-0.700613
43519	0.657277	-0.884153	8.183754	0.713666	-0.040111	-0.018274	-0.699098
43520	0.505449	-0.499330	8.429938	0.714706	-0.038988	-0.018638	-0.698089
43521	0.755670	-0.192352	8.931156	0.715409	-0.038377	-0.018422	-0.697407
43522	0.851638	-0.257719	9.272829	0.716168	-0.038465	-0.016644	-0.696668
43523	0.679774	-0.583454	9.470077	0.717134	-0.038953	-0.014075	-0.695703
43524	0.553533	-1.001044	9.798088	0.718199	-0.039387	-0.011423	-0.694628
43525	0.740430	-1.347371	10.094140	0.719265	-0.039544	-0.009158	-0.693549
43526	0.761088	-1.237815	10.398221	0.720018	-0.039461	-0.007249	-0.692794
43527	0.596193	-1.154817	10.507484	0.720330	-0.039502	-0.005575	-0.692483
43528	0.518029	-1.097895	10.503678	0.720371	-0.039852	-0.004286	-0.692430
43529	0.677150	-0.878723	10.439875	0.720309	-0.040415	-0.003343	-0.692467
43530	0.789831	-0.737675	10.276982	0.720133	-0.041128	-0.002540	-0.692611
43531	0.710183	-0.437864	10.054327	0.719800	-0.041812	-0.001739	-0.692919
43532	0.598290	-0.546049	9.856900	0.719388	-0.042429	-0.001103	-0.693310
43533	0.658756	-0.716183	9.612146	0.719067	-0.042419	-0.001367	-0.693643
43534	0.641600	-0.275320	9.366235	0.718551	-0.041958	-0.002189	-0.694204
43535	0.668167	-0.039625	9.153214	0.717904	-0.041501	-0.003161	-0.694897
43536	0.509052	0.350477	9.062210	0.717249	-0.041498	-0.003717	-0.695570
43537	0.792370	0.091365	8.894860	0.716864	-0.041816	-0.003568	-0.695949
43538	0.869993	0.008891	8.706193	0.716659	-0.041589	-0.002991	-0.696177
43539	0.961409	0.117528	8.831529	0.716299	-0.040485	-0.002259	-0.696614
43540	0.731263	0.410539	9.049474	0.715927	-0.038769	-0.001265	-0.697097
43541	0.400846	0.619111	9.054896	0.715791	-0.037027	-0.000263	-0.697333
43542	0.367045	0.611775	9.062937	0.716160	-0.035371	0.000373	-0.697039
43543	0.417264	0.983127	8.992275	0.717075	-0.033596	0.000978	-0.696185
43544	0.118231	1.156960	8.730739	0.718550	-0.032197	0.001868	-0.694727
43545	-0.036534	1.262512	8.325670	0.720621	-0.030918	0.002554	-0.692634
43546	-0.141685	1.176615	7.765008	0.723474	-0.029629	0.002383	-0.689711
43547	-0.494842	0.943562	7.416251	0.727745	-0.028130	0.001292	-0.685269
43548	-0.808446	1.492499	6.891618	0.732932	-0.027003	-0.000355	-0.679766
43549	-1.069128	2.223047	6.511709	0.738695	-0.026753	-0.001487	-0.673507
43550	-1.618842	2.721270	6.054343	0.744891	-0.027424	-0.001072	-0.666621
43551	-1.532046	3.376818	6.247010	0.751951	-0.028775	0.002353	-0.658586
43552	-1.340153	3.097536	6.865710	0.760814	-0.030569	0.010503	-0.648165
43553	-2.815426	2.070964	7.282982	0.772068	-0.032333	0.021281	-0.634359
43554	-3.779595	1.424001	7.338135	0.785302	-0.034124	0.030761	-0.617406
43555	-4.632524	1.781304	7.210356	0.799563	-0.035603	0.037233	-0.598369
43556	-4.315229	2.167034	7.238513	0.814016	-0.036727	0.041765	-0.578174
43557	-5.051623	2.714377	7.578249	0.829044	-0.037562	0.045807	-0.556037
43558	-5.096873	2.825405	8.470764	0.846017	-0.039023	0.050404	-0.529331
43559	-4.863427	2.862239	9.164579	0.864561	-0.040098	0.057525	-0.497611
43560	-4.993678	2.717977	9.472853	0.883179	-0.040748	0.068014	-0.462287
43561	-5.721251	1.726820	8.941014	0.900536	-0.039571	0.080082	-0.425507
43562	-6.862426	1.066062	8.587652	0.916547	-0.035443	0.090290	-0.387986
43563	-6.619643	1.065226	8.415439	0.931007	-0.028038	0.099172	-0.350150
43564	-7.036572	1.995581	8.381941	0.943616	-0.018649	0.108823	-0.312086
43565	-7.640563	2.446739	8.234296	0.954387	-0.009976	0.121743	-0.272440
43566	-8.817523	2.361901	7.835351	0.963303	-0.002338	0.138249	-0.230065
43567	-9.836044	1.721826	7.631492	0.970167	0.004931	0.157265	-0.184444
43568	-11.414242	1.089462	7.992418	0.974463	0.014574	0.177119	-0.137256
43569	-12.334465	1.236625	8.698904	0.975819	0.026609	0.197501	-0.089791
43570	-12.935153	1.353626	9.058218	0.974142	0.038941	0.218547	-0.042046
43571	-12.809443	0.260910	8.761618	0.969226	0.051577	0.240651	0.005266
43572	-14.137998	0.043016	8.628330	0.961400	0.065759	0.262308	0.050796
43573	-15.155618	0.336638	8.701444	0.951123	0.080763	0.282811	0.094133
43574	-15.224021	-0.516836	8.699598	0.938971	0.096014	0.300919	0.136244
43575	-13.600022	-1.893322	8.797634	0.925137	0.113040	0.316398	0.176738
43576	-12.764780	-2.308150	9.988661	0.910984	0.132181	0.327900	0.212409
43577	-12.046666	-1.677589	10.897346	0.897895	0.152560	0.336358	0.239526
43578	-9.933770	-0.198940	12.224921	0.886468	0.172309	0.343006	0.258516
43579	-8.136877	1.050142	12.883359	0.876024	0.190822	0.346862	0.275418
43580	-6.346139	0.488094	11.707295	0.865877	0.208531	0.347190	0.293650
43581	-5.622881	0.093058	9.544008	0.858717	0.222038	0.343596	0.308620
43582	-15.513219	-28.205526	14.145809	0.863406	0.241520	0.337207	0.287211
43583	-6.248951	-5.363185	9.937063	0.861907	0.271302	0.340430	0.260036
43584	-6.372866	2.289042	11.350950	0.860297	0.277522	0.342384	0.256212
43585	-5.035416	6.452333	9.046620	0.859249	0.275148	0.346618	0.256593
43586	-3.564391	11.697738	7.583197	0.856054	0.275756	0.353278	0.257538
43587	-2.671449	13.172242	7.029512	0.851613	0.279918	0.358461	0.260590
43588	-2.452302	9.692701	5.657790	0.846745	0.284205	0.363735	0.264475
43589	-4.515420	5.865982	4.954758	0.840776	0.287740	0.371853	0.268379
43590	-6.242891	5.497027	3.629466	0.835126	0.290324	0.380393	0.271252
43591	-6.198326	5.046837	2.443342	0.829791	0.293487	0.388774	0.272336
43592	-6.292794	5.348845	2.666870	0.824269	0.298861	0.397147	0.271177
43593	-5.712356	5.670811	3.297005	0.818755	0.305785	0.405403	0.267926
43594	-4.528877	6.174379	4.128326	0.812754	0.313263	0.414539	0.263542
43595	-3.931420	7.283278	5.137084	0.806692	0.319785	0.423851	0.259493
43596	-3.634327	7.794829	5.150733	0.801183	0.324748	0.432150	0.256691
43597	-4.175484	7.820450	4.933024	0.795984	0.329286	0.439564	0.254485
43598	-4.994881	7.524046	4.671960	0.791233	0.333893	0.446044	0.252012
43599	-5.231626	7.690634	4.521633	0.786714	0.338651	0.452225	0.248776
43600	-5.599367	7.927778	4.809123	0.782097	0.343956	0.458251	0.244999
43601	-5.604497	8.108664	5.003002	0.777830	0.349080	0.463579	0.241284
43602	-5.430552	8.624812	5.131172	0.774145	0.353704	0.467919	0.237999
43603	-5.267269	8.809714	5.087489	0.771622	0.357396	0.470507	0.235565
43604	-4.862009	8.334499	4.975401	0.770120	0.360314	0.471515	0.234016
43605	-4.802781	8.095603	4.908271	0.769038	0.362861	0.471758	0.233144
43606	-4.884888	8.271611	4.966062	0.768127	0.365019	0.471649	0.232999
43607	-5.087674	8.525093	4.904124	0.767333	0.366562	0.471539	0.233416
43608	-5.409049	8.924400	4.773906	0.766680	0.367814	0.471528	0.233615
43609	-5.907128	9.496175	4.804910	0.766652	0.368634	0.470690	0.234105
43610	-5.825535	8.868939	4.656204	0.767760	0.368813	0.468264	0.235053
43611	-5.350822	8.486309	4.746025	0.769676	0.368830	0.464644	0.235943
43612	-4.800953	8.301402	5.118512	0.772438	0.368224	0.459794	0.237359
43613	-4.420604	8.030593	5.236025	0.775916	0.366989	0.453854	0.239354
43614	-4.216648	7.543833	5.098943	0.779838	0.365219	0.447205	0.241816
43615	-4.428686	7.249217	4.807935	0.783783	0.363131	0.440353	0.244764
43616	-4.872584	7.448709	4.355630	0.788002	0.360849	0.432859	0.247940
43617	-4.828814	7.357241	4.155182	0.792603	0.358663	0.424338	0.251154
43618	-4.627097	7.210814	4.185101	0.797232	0.356795	0.415274	0.254294
43619	-4.190394	7.276190	4.691648	0.801842	0.355088	0.405898	0.257312
43620	-3.525347	7.358447	5.112897	0.806379	0.353021	0.396547	0.260538
43621	-3.354884	7.344493	5.062416	0.810654	0.350326	0.387624	0.264308
43622	-3.629060	7.359079	4.670786	0.814833	0.346959	0.378722	0.268770
43623	-3.823738	7.065677	4.246713	0.819023	0.343327	0.369468	0.273534
43624	-3.792155	6.645196	4.227670	0.823008	0.339809	0.360180	0.278314
43625	-3.701960	6.624339	4.395732	0.826711	0.336437	0.351119	0.282974
43626	-3.622240	6.782790	4.644441	0.830047	0.333330	0.342381	0.287556
43627	-3.565766	6.896402	4.853570	0.833221	0.330298	0.334106	0.291581
43628	-3.764916	7.122463	5.021618	0.836221	0.327740	0.326287	0.294715
43629	-3.751463	7.188123	5.202632	0.839369	0.325471	0.318018	0.297309
43630	-3.449486	6.653340	5.418691	0.842613	0.323290	0.309245	0.299756
43631	-2.996865	6.416707	5.946372	0.845777	0.321230	0.300237	0.302209
43632	-2.267191	6.350000	6.364813	0.848916	0.318930	0.291182	0.304694
43633	-1.910638	6.228793	6.532131	0.851742	0.316482	0.282533	0.307488
43634	-1.998031	6.383022	6.518517	0.854225	0.314094	0.274122	0.310647
43635	-2.115735	6.729650	6.366322	0.856513	0.311736	0.265584	0.314121
43636	-2.243159	6.851986	6.394936	0.858776	0.308941	0.256588	0.318153
43637	-2.276426	6.449367	6.611569	0.861044	0.305723	0.247270	0.322481
43638	-2.160111	6.392928	6.664921	0.863147	0.302647	0.238357	0.326448
43639	-2.260540	6.674853	6.664480	0.865013	0.299808	0.229906	0.330168
43640	-2.268873	6.939170	6.522538	0.866457	0.297333	0.221998	0.334010
43641	-2.824336	7.861256	6.413591	0.867641	0.294691	0.214491	0.338157
43642	-3.024947	7.602121	6.232565	0.869160	0.291998	0.206104	0.341788
43643	-3.333728	6.847392	5.877848	0.870258	0.290059	0.198107	0.345357
43644	-3.315722	6.721846	5.706263	0.871066	0.289100	0.191011	0.348109
43645	-3.068536	6.754637	5.966812	0.871695	0.289153	0.185122	0.349669
43646	-3.073634	7.290141	6.949164	0.872280	0.289808	0.179608	0.350542
43647	-2.957292	7.226752	7.783660	0.873056	0.290116	0.174298	0.351036
43648	-2.791804	7.423972	8.073373	0.873813	0.290125	0.169996	0.351253
43649	-2.919129	7.732652	7.828699	0.874606	0.289426	0.166707	0.351433
43650	-2.967003	7.328827	7.490512	0.875433	0.288163	0.164472	0.351466
43651	-2.854712	6.937332	7.154686	0.876217	0.286816	0.163737	0.350958
43652	-2.928662	6.969947	7.025366	0.876901	0.285567	0.164182	0.350057
43653	-2.753036	7.273323	6.852936	0.877502	0.284550	0.164918	0.349031
43654	-2.452228	7.597015	6.460147	0.877876	0.284455	0.166114	0.347599
43655	-2.522639	7.619194	6.347310	0.878223	0.285050	0.167629	0.345502
43656	-2.172210	7.225185	6.455340	0.878565	0.286319	0.169749	0.342535
43657	-1.346860	6.907743	6.593734	0.878737	0.288309	0.173412	0.338566
43658	-1.245574	7.404363	6.892009	0.878770	0.290309	0.177675	0.334538
43659	-0.832051	7.157692	6.962313	0.878744	0.292192	0.182187	0.330515
43660	-0.691145	6.912670	6.875319	0.878524	0.294021	0.186976	0.326783
43661	-0.936547	6.468217	6.604575	0.878030	0.296000	0.191791	0.323517
43662	-1.227917	6.193877	6.452929	0.877091	0.298614	0.196949	0.320549
43663	-1.484998	6.431257	6.516322	0.875857	0.301692	0.202129	0.317806
43664	-1.622016	6.610706	6.830947	0.874485	0.304740	0.207333	0.315313
43665	-1.765464	6.656106	7.201377	0.872901	0.307620	0.212994	0.313125
43666	-2.036183	7.030723	7.717663	0.871096	0.309985	0.219258	0.311492
43667	-2.675880	7.310444	7.893787	0.869167	0.311312	0.226319	0.310505
43668	-3.607540	7.354258	7.629233	0.867203	0.311568	0.234135	0.309943
43669	-4.161632	7.257697	7.159601	0.865163	0.311339	0.242741	0.309255
43670	-4.591502	6.997402	7.089019	0.863139	0.310639	0.252434	0.307850
43671	-4.115929	7.085485	7.362514	0.861271	0.309060	0.262790	0.305999
43672	-4.038903	6.900162	7.577972	0.859282	0.306719	0.274119	0.304002
43673	-3.948784	6.856936	7.200388	0.857322	0.303283	0.285935	0.302092
43674	-3.817313	6.630384	6.528465	0.855191	0.299608	0.298300	0.299833
43675	-3.680182	6.524202	6.045129	0.852766	0.295979	0.311201	0.297221
43676	-3.521499	6.023542	5.646873	0.850052	0.292279	0.324392	0.294541
43677	-3.228932	5.631104	5.533705	0.846760	0.288668	0.338140	0.292114
43678	-2.533335	5.994111	5.251517	0.843048	0.285127	0.352311	0.289567
43679	-2.002923	6.175491	4.726555	0.838812	0.281776	0.366953	0.286953
43680	-1.876505	6.555879	4.501110	0.834037	0.278996	0.381651	0.284403
43681	-2.294479	6.355393	3.952676	0.828890	0.276864	0.395503	0.282604
43682	-2.399133	6.426807	3.366727	0.823451	0.275783	0.408249	0.281432
43683	-2.425529	6.585347	2.981830	0.817775	0.275982	0.420190	0.280212
43684	-2.338461	6.734625	2.887130	0.811827	0.277961	0.431294	0.278676
43685	-2.552016	6.592508	3.021958	0.805478	0.281866	0.441603	0.277026
43686	-2.437367	6.556426	2.948687	0.798717	0.287533	0.451314	0.275121
43687	-2.314651	7.026712	3.002866	0.791379	0.294530	0.460686	0.273386
43688	-2.226575	7.500858	2.996673	0.783748	0.302423	0.469029	0.272565
43689	-2.260222	7.517642	2.748790	0.775614	0.311645	0.476615	0.272284
43690	-3.112566	8.255615	2.798453	0.767669	0.321796	0.482803	0.272091
43691	-3.696009	8.288843	2.209226	0.760106	0.332793	0.487429	0.271847
43692	-4.166784	8.570662	2.193881	0.752689	0.344987	0.491008	0.270840
43693	-4.143541	8.935657	2.518711	0.745757	0.358086	0.493095	0.269218
43694	-4.039277	9.258789	2.819514	0.739575	0.371499	0.493565	0.267228
43695	-3.602080	9.346855	3.067556	0.733969	0.385332	0.492492	0.265067
43696	-3.215059	9.197304	3.433631	0.728674	0.399652	0.490345	0.262439
43697	-3.022077	9.209567	3.567345	0.723849	0.414338	0.486761	0.259673
43698	-2.857415	8.901150	3.718174	0.719464	0.429000	0.481529	0.257801
43699	-2.954246	9.042639	4.233873	0.715264	0.443862	0.474743	0.256912
43700	-2.813593	9.322566	4.704541	0.711788	0.458374	0.466015	0.257063
43701	-2.505488	9.677455	4.656242	0.708445	0.472502	0.456561	0.257683
43702	-2.867982	9.954086	4.623160	0.704977	0.485757	0.447386	0.258638
43703	-3.678482	9.820350	4.739397	0.701898	0.497976	0.437983	0.259864
43704	-3.732996	9.817539	4.836020	0.699965	0.509188	0.427110	0.261445
43705	-3.101628	9.570625	4.687497	0.699095	0.519081	0.414857	0.264037
43706	-2.863224	9.648499	4.569914	0.698645	0.527880	0.401827	0.267905
43707	-3.316893	10.007003	4.368265	0.698340	0.535593	0.388493	0.273009
43708	-4.406515	10.530128	4.190685	0.698308	0.542361	0.374768	0.278854
43709	-4.967629	10.917679	4.322128	0.699033	0.548047	0.360270	0.284960
43710	-5.034285	10.911321	4.830451	0.700542	0.552658	0.345284	0.290843
43711	-4.286368	10.905041	5.391054	0.702731	0.556069	0.330950	0.295683
43712	-3.507684	11.067353	5.794207	0.705762	0.557574	0.317921	0.299895
43713	-3.171828	11.334059	5.980276	0.710096	0.556709	0.305612	0.304040
43714	-3.003417	11.004596	5.963020	0.715968	0.553374	0.293300	0.308452
43715	-2.704964	10.303681	6.006630	0.722855	0.548314	0.281041	0.312807
43716	-2.630474	10.128230	5.885954	0.730492	0.541961	0.268926	0.316763
43717	-2.542352	9.949287	5.753726	0.738713	0.534214	0.257373	0.320434
43718	-2.495672	9.941092	5.892590	0.747126	0.525254	0.246863	0.323990
43719	-2.625284	10.282195	5.804995	0.755897	0.514689	0.237451	0.327615
43720	-2.719915	10.441527	5.526732	0.765013	0.502453	0.229293	0.331241
43721	-2.994528	10.505942	4.778177	0.774309	0.488953	0.222352	0.334560
43722	-3.033413	10.448275	4.100674	0.783718	0.474413	0.216393	0.337480
43723	-3.126373	10.260684	3.898205	0.793157	0.459100	0.211011	0.340004
43724	-3.264364	10.054593	3.908817	0.802597	0.442998	0.206036	0.342257
43725	-3.399004	9.646809	4.040618	0.812092	0.426230	0.201465	0.343869
43726	-3.390426	9.260176	4.185728	0.821364	0.409358	0.197694	0.344535
43727	-3.126649	8.935730	4.221999	0.830339	0.392738	0.194724	0.344060
43728	-3.113590	8.653349	4.225518	0.839078	0.376575	0.191786	0.342574
43729	-2.744513	7.943161	4.081894	0.847344	0.360837	0.189482	0.340442
43730	-2.946769	7.702780	4.528220	0.854886	0.345646	0.187873	0.338234
43731	-2.894601	6.829079	4.809885	0.861810	0.330554	0.187503	0.335946
43732	-3.009748	6.939947	5.654972	0.868145	0.316757	0.188067	0.332596
43733	-3.028680	6.480526	6.412761	0.874045	0.304158	0.189313	0.328166
43734	-2.754956	7.124094	7.048573	0.879349	0.292579	0.191478	0.323233
43735	-2.877840	7.382052	7.820238	0.884098	0.281200	0.194484	0.318548
43736	-2.997399	7.659875	7.982916	0.888408	0.268984	0.197869	0.315003
43737	-3.262665	7.797148	7.691200	0.892604	0.254990	0.201813	0.312266
43738	-3.785996	7.594097	7.035910	0.896514	0.239567	0.206607	0.310135
43739	-3.933445	7.550615	6.451785	0.900258	0.223022	0.212248	0.307812
43740	-3.880140	6.721148	5.998883	0.903670	0.206956	0.219362	0.304023
43741	-3.865314	5.883311	5.982106	0.906463	0.192307	0.228572	0.298492
43742	-3.844651	5.502511	6.109084	0.908692	0.178326	0.239180	0.292012
43743	-3.140557	5.851844	5.777477	0.910578	0.163884	0.249978	0.285484
43744	-2.537458	5.845928	5.099823	0.911854	0.149943	0.260786	0.279337
43745	-2.538699	4.729632	4.651068	0.912654	0.137436	0.271416	0.272962
43746	-2.847406	3.589385	4.576887	0.912831	0.128050	0.282533	0.265551
43747	-3.199058	3.037026	5.050229	0.912736	0.120965	0.293654	0.256997
43748	-3.090201	3.456061	5.865048	0.912277	0.115584	0.304790	0.247979
43749	-2.860087	4.278600	6.710913	0.911222	0.111302	0.315763	0.239960
43750	-3.072831	4.924653	7.257433	0.909654	0.107722	0.326059	0.233689
43751	-3.475346	4.943272	7.285632	0.907642	0.104696	0.335848	0.228979
43752	-4.119564	4.503129	6.802701	0.904989	0.102109	0.345892	0.225670
43753	-4.493032	4.614377	6.633936	0.901494	0.100190	0.356721	0.223652
43754	-4.468924	5.039608	6.638221	0.897395	0.098523	0.367973	0.222647
43755	-4.234392	4.881941	6.371269	0.892738	0.097619	0.379601	0.222244
43756	-4.361553	4.217935	6.140543	0.887619	0.098054	0.391411	0.222072
43757	-4.675811	3.999994	5.880841	0.882047	0.100113	0.403346	0.221997
43758	-4.779630	4.216084	5.697129	0.876276	0.103203	0.414702	0.222514
43759	-4.546167	3.827391	5.453428	0.870210	0.107148	0.425636	0.223805
43760	-4.649851	3.836302	5.425123	0.863420	0.112023	0.437028	0.225752
43761	-4.791244	4.229089	5.458060	0.855985	0.117745	0.448698	0.228246
43762	-5.063486	4.542791	5.405847	0.848025	0.124077	0.460219	0.231641
43763	-5.283570	4.939707	5.207853	0.839874	0.130479	0.471035	0.236034
43764	-5.035906	4.924188	5.009142	0.831514	0.137191	0.481488	0.240692
43765	-5.252117	5.473582	4.981717	0.823048	0.144617	0.491654	0.244854
43766	-5.380819	6.458271	4.290930	0.814907	0.152315	0.500974	0.248497
43767	-5.069089	6.695041	3.485868	0.806608	0.160773	0.510113	0.251636
43768	-5.755901	6.683013	3.253148	0.798241	0.170469	0.518563	0.254646
43769	-5.662546	6.307431	2.929018	0.789818	0.181439	0.526489	0.257053
43770	-5.641424	6.592106	2.873899	0.780890	0.193761	0.534283	0.259247
43771	-5.471772	7.113210	2.643421	0.771983	0.206951	0.541034	0.261718
43772	-5.257361	7.424772	2.535079	0.763096	0.221294	0.546535	0.264599
43773	-5.022684	7.530492	2.664687	0.754620	0.236650	0.550505	0.267376
43774	-5.012104	7.649575	2.933876	0.746531	0.253110	0.552828	0.270199
43775	-4.937093	7.497598	3.221754	0.738851	0.270375	0.553620	0.272948
43776	-4.961327	8.013597	3.459606	0.731590	0.287986	0.552330	0.277077
43777	-4.924005	7.691100	3.070646	0.724741	0.305533	0.549619	0.281635
43778	-4.618591	8.918956	2.669243	0.718377	0.322893	0.545987	0.285608
43779	-4.557076	9.708534	2.244833	0.712425	0.339864	0.541493	0.289358
43780	-4.721076	9.415105	1.981434	0.706925	0.356769	0.536256	0.292237
43781	-5.119728	9.071057	1.826575	0.702139	0.373410	0.530566	0.293369
43782	-5.041331	8.733925	1.875660	0.698368	0.389620	0.524205	0.292725
43783	-4.391325	8.637757	1.750073	0.695671	0.405240	0.516890	0.290942
43784	-3.791184	9.437474	2.038666	0.694003	0.420625	0.508012	0.288717
43785	-3.224489	10.138892	2.303230	0.693031	0.435977	0.497281	0.286956
43786	-3.710579	9.943365	2.268755	0.692596	0.451704	0.484979	0.284726
43787	-3.913879	9.709141	2.514224	0.692028	0.468319	0.472429	0.280330
43788	-3.570447	9.477081	3.565056	0.691695	0.485146	0.459519	0.273922
43789	-2.295666	9.368351	4.808360	0.691819	0.501532	0.445432	0.267288
43790	-0.636869	8.839847	5.726067	0.692032	0.516740	0.430134	0.262787
43791	-0.406796	8.422291	5.900513	0.691709	0.530761	0.414064	0.261500
43792	-1.321475	8.361669	5.375384	0.690828	0.543207	0.398041	0.263148
43793	-3.053272	9.593469	4.488161	0.690098	0.553716	0.382028	0.266868
43794	-4.216959	10.845140	3.781643	0.690557	0.562006	0.365166	0.271908
43795	-4.005248	11.353234	3.411107	0.692299	0.568675	0.347563	0.276643
43796	-3.763526	11.164230	3.717857	0.694372	0.574469	0.330037	0.280908
43797	-3.692527	10.972816	4.707593	0.696851	0.579519	0.312517	0.284411
43798	-2.606181	10.453578	5.129864	0.700064	0.583265	0.295278	0.287269
43799	-1.555373	10.423974	5.680110	0.703726	0.585325	0.279032	0.290355
43800	-1.003535	10.621463	6.133345	0.707608	0.585334	0.264295	0.294659
43801	-1.568471	10.963383	6.269565	0.711578	0.583419	0.251069	0.300403
43802	-1.858747	10.964741	5.859295	0.715905	0.579707	0.239354	0.306805
43803	-2.087329	11.417520	5.459347	0.721082	0.573973	0.229032	0.313273
43804	-2.365344	11.112542	4.645622	0.727286	0.566430	0.219215	0.319620
43805	-2.757222	10.542073	4.097940	0.733673	0.558143	0.210174	0.325619
43806	-2.952158	10.514096	3.913596	0.740119	0.549646	0.202187	0.330504
43807	-2.793517	10.506253	4.138970	0.746824	0.540660	0.195381	0.334317
43808	-2.722732	10.782564	4.356914	0.753933	0.531014	0.189574	0.337150
43809	-2.524708	10.656439	4.287188	0.761555	0.520704	0.184533	0.338894
43810	-2.501805	10.313792	4.411972	0.769182	0.510352	0.180594	0.339539
43811	-2.175870	10.158613	4.724983	0.777145	0.499777	0.177523	0.338754
43812	-1.670904	9.822347	4.958179	0.785348	0.488455	0.175522	0.337390
43813	-1.462343	9.480829	4.958927	0.793532	0.476351	0.174527	0.336062
43814	-1.524222	9.479286	4.977021	0.801654	0.463827	0.174106	0.334518
43815	-1.291472	9.035255	4.871867	0.809899	0.450985	0.173395	0.332581
43816	-1.141861	8.404603	4.509214	0.818006	0.438001	0.172478	0.330564
43817	-1.193105	7.980350	4.081979	0.825572	0.425147	0.171610	0.328984
43818	-1.298238	7.956232	4.015724	0.832240	0.412777	0.171261	0.328117
43819	-1.677104	8.170170	4.364925	0.838228	0.401124	0.171373	0.327269
43820	-1.937708	8.055712	4.555635	0.843860	0.389850	0.171502	0.326351
43821	-1.821616	8.002779	4.717779	0.849002	0.378936	0.171969	0.325621
43822	-1.425985	8.047689	4.906688	0.853685	0.368035	0.173426	0.325109
43823	-1.080020	7.851336	5.120355	0.857979	0.357356	0.176021	0.324323
43824	-1.080852	7.813118	5.272090	0.861774	0.347169	0.179887	0.323204
43825	-1.128934	7.778697	5.384617	0.865163	0.337279	0.185065	0.321693
43826	-1.269622	7.669802	5.583792	0.867996	0.328031	0.191881	0.319625
43827	-1.482904	7.421054	6.438035	0.870280	0.319396	0.200124	0.317094
43828	-1.511062	7.656774	6.915153	0.872488	0.310806	0.208874	0.313905
43829	-0.621378	7.582697	6.545482	0.874557	0.301882	0.217887	0.310712
43830	-0.154980	7.736109	6.657731	0.876090	0.293272	0.227124	0.308013
43831	0.358783	7.631247	6.805954	0.877163	0.284650	0.236694	0.305836
43832	0.604075	6.976599	6.681757	0.877650	0.275764	0.247361	0.304134
43833	0.751731	6.320139	6.814351	0.877251	0.266574	0.260108	0.302842
43834	0.266802	5.767328	7.523497	0.875770	0.256930	0.274808	0.302482
43835	-0.396930	5.992312	7.958877	0.873652	0.246452	0.289680	0.303446
43836	-1.464228	5.604600	7.539958	0.871888	0.234509	0.302092	0.305872
43837	-2.189971	5.159900	6.890929	0.871139	0.221495	0.310461	0.309307
43838	-2.220203	3.541582	5.991817	0.870787	0.208768	0.316992	0.312511
43839	-2.459963	2.409547	5.426631	0.870077	0.197528	0.325578	0.312967
43840	-2.788575	1.173205	5.187288	0.868937	0.186954	0.338667	0.308709
43841	-4.048466	0.618282	4.349658	0.866521	0.176853	0.358103	0.299377
43842	-6.257269	1.622388	4.656763	0.863712	0.165627	0.380299	0.286254
43843	-8.286071	1.020888	5.925887	0.863220	0.151778	0.398759	0.269825
43844	-9.376272	0.304876	6.569214	0.866115	0.135940	0.410652	0.250460
43845	-9.356541	-3.193684	6.919286	0.871462	0.119871	0.417652	0.227489
43846	-10.495915	-3.641228	7.415606	0.877739	0.109981	0.422366	0.197699
43847	-13.268765	-1.734678	6.323541	0.885068	0.103299	0.423945	0.162033
43848	-14.615021	-0.675149	6.762736	0.893600	0.096959	0.421254	0.120929
43849	-15.964249	-0.674798	7.711369	0.901955	0.088261	0.415888	0.075666
43850	-17.859926	-1.716011	7.894462	0.908824	0.078673	0.408840	0.026441
43851	-19.980025	-1.568211	7.414686	0.913485	0.071694	0.399613	-0.026722
43852	-21.600946	-0.890066	6.985138	0.915963	0.068281	0.386635	-0.082838
43853	-22.728450	0.221663	6.788188	0.916879	0.067776	0.367681	-0.139820
43854	-21.492480	0.635845	7.788142	0.916068	0.068050	0.344789	-0.193157
43855	-21.358919	0.402029	8.159036	0.913379	0.066396	0.321325	-0.241000
43856	-21.232354	-0.376702	7.986263	0.908853	0.062168	0.297645	-0.285532
43857	-20.249796	-1.091290	7.090522	0.902318	0.056590	0.272480	-0.329203
43858	-18.851677	-0.883429	5.970489	0.893341	0.051653	0.244506	-0.373484
43859	-16.525125	1.074265	5.878301	0.882076	0.046047	0.215679	-0.416299
43860	-14.853082	2.929914	5.880366	0.869603	0.035916	0.189769	-0.454410
43861	-12.825975	4.011328	6.067910	0.856818	0.019856	0.170307	-0.486276
43862	-11.772972	3.650055	6.369995	0.844096	-0.001456	0.158116	-0.512347
43863	-11.244601	2.374752	6.295960	0.830998	-0.024941	0.151271	-0.534731
43864	-11.023903	1.005325	6.095050	0.816868	-0.047745	0.146637	-0.555828
43865	-10.377177	-0.618011	5.911044	0.801280	-0.066519	0.141078	-0.577600
43866	-9.612818	-0.603466	6.074056	0.784430	-0.079065	0.132404	-0.600739
43867	-9.149193	0.287352	6.601422	0.766488	-0.088149	0.120706	-0.624625
43868	-8.550659	0.866466	6.707545	0.747765	-0.096988	0.106740	-0.648110
43869	-7.843566	0.510252	6.312463	0.728806	-0.107063	0.090850	-0.670169
43870	-6.544294	0.127922	5.561484	0.709524	-0.118001	0.073346	-0.690848
43871	-5.531553	-0.690007	4.840683	0.689550	-0.128523	0.055786	-0.710557
43872	-4.806960	-0.538044	4.553249	0.668327	-0.137478	0.039405	-0.729990
43873	-4.156457	-0.011898	4.437892	0.644847	-0.145666	0.025299	-0.749876
43874	-3.134945	0.688423	4.553240	0.618708	-0.152487	0.014925	-0.770536
43875	-2.938492	1.304509	4.806225	0.590206	-0.157499	0.008864	-0.791690
43876	-3.248405	1.657320	5.067320	0.560385	-0.160393	0.006559	-0.812526
43877	-3.671349	2.078138	5.416086	0.529931	-0.161844	0.006524	-0.832428
43878	-3.872340	2.697253	5.916691	0.499301	-0.162878	0.008076	-0.850943
43879	-3.654194	3.006317	6.605179	0.468671	-0.163728	0.011422	-0.867992
43880	-2.637370	2.698776	7.100343	0.438388	-0.163100	0.017006	-0.883700
43881	-2.425460	1.979532	7.374143	0.409093	-0.159988	0.022864	-0.898067
43882	-2.269858	1.945142	7.589362	0.380568	-0.155263	0.027277	-0.911217
43883	-2.423919	1.821924	7.945493	0.352076	-0.150574	0.029551	-0.923308
43884	-2.029496	2.282622	8.329619	0.323244	-0.146256	0.030354	-0.934452
43885	-1.938836	2.475430	8.812412	0.294581	-0.142212	0.030346	-0.944498
43886	-1.535012	2.563886	9.209354	0.266786	-0.138411	0.029752	-0.953301
43887	-1.577280	2.355872	9.342748	0.240393	-0.134866	0.027665	-0.960863
43888	-1.859878	2.661290	9.582965	0.214880	-0.131919	0.024023	-0.967392
43889	-1.208746	2.963168	10.156413	0.189955	-0.128866	0.020228	-0.973089
43890	-0.703186	3.559735	10.745506	0.165926	-0.125296	0.018197	-0.977977
43891	-0.975625	3.076233	10.990278	0.142339	-0.121259	0.018542	-0.982187
43892	-1.263734	2.510313	11.032498	0.119836	-0.116745	0.019368	-0.985715
43893	-1.877621	2.077373	10.900062	0.098807	-0.112681	0.018794	-0.988528
43894	-2.146140	2.199588	10.928976	0.078857	-0.110045	0.016133	-0.990662
43895	-2.054313	2.708848	11.426038	0.059322	-0.108676	0.013417	-0.992215
43896	-1.576496	2.510399	11.673022	0.039941	-0.107606	0.012542	-0.993312
43897	-1.803594	1.950522	11.169945	0.020434	-0.107098	0.012644	-0.993958
43898	-2.402571	1.515982	10.276225	0.000378	-0.108451	0.011505	-0.994035
43899	-2.715875	1.451499	9.406792	-0.020077	-0.112111	0.006990	-0.993468
43900	-2.176986	2.195428	8.478982	-0.040530	-0.117081	-0.001917	-0.992293
43901	-1.614376	4.479330	8.338414	-0.060792	-0.121350	-0.012209	-0.990671
43902	-0.953096	6.690787	9.207784	-0.080189	-0.122751	-0.018189	-0.989025
43903	-1.205202	6.929818	9.881027	-0.098127	-0.120541	-0.017080	-0.987699
43904	-1.801213	5.977393	10.199075	-0.115003	-0.116332	-0.011330	-0.986465
43905	-2.166711	4.881686	10.220916	-0.131253	-0.111908	-0.005207	-0.984998
43906	-2.646156	4.201354	10.422676	-0.146568	-0.108688	-0.001645	-0.983210
43907	-2.180563	4.162053	10.611541	-0.160870	-0.107375	-0.001120	-0.981117
43908	-1.562510	4.237928	10.762794	-0.174341	-0.107069	-0.002117	-0.978845
43909	-1.155073	4.659227	10.612268	-0.187768	-0.106744	-0.002541	-0.976393
43910	-1.057432	4.604575	10.490539	-0.201384	-0.105518	-0.001329	-0.973811
43911	-1.154663	4.469013	10.705579	-0.215306	-0.103298	0.001282	-0.971067
43912	-1.422505	4.043211	10.944196	-0.229439	-0.100237	0.005008	-0.968135
43913	-1.799996	3.475392	11.020458	-0.243329	-0.097364	0.009132	-0.965002
43914	-1.811856	3.003750	11.163741	-0.256693	-0.095273	0.012680	-0.961702
43915	-1.704010	2.811290	11.272384	-0.269656	-0.093538	0.015669	-0.958275
43916	-1.364658	2.730465	11.358909	-0.282118	-0.092035	0.018237	-0.954781
43917	-1.060346	2.606681	11.481787	-0.294271	-0.090345	0.021575	-0.951198
43918	-0.973070	2.303200	11.393644	-0.306230	-0.088378	0.025634	-0.947499
43919	-1.154947	1.555017	11.133476	-0.318200	-0.087247	0.029446	-0.943541
43920	-1.084152	1.438653	10.955526	-0.330522	-0.087919	0.031661	-0.939161
43921	-0.536740	1.424394	10.651943	-0.343259	-0.090154	0.032786	-0.934329
43922	-0.123759	1.444629	9.908702	-0.355966	-0.093644	0.032829	-0.929215
43923	0.267726	1.377565	9.336560	-0.368324	-0.098102	0.032103	-0.923949
43924	0.694283	2.261764	8.826906	-0.379974	-0.103015	0.032253	-0.918677
43925	1.087712	2.148059	8.717386	-0.390126	-0.107148	0.033865	-0.913879
43926	2.441832	2.503579	9.336975	-0.398727	-0.108649	0.036996	-0.909859
43927	3.170986	2.187630	9.918647	-0.406311	-0.106506	0.041387	-0.906562
43928	2.703204	1.950623	10.253380	-0.413054	-0.102735	0.047534	-0.903644
43929	2.245606	1.676307	10.462610	-0.418943	-0.098795	0.055283	-0.900927
43930	2.289682	0.469032	10.506488	-0.424278	-0.094688	0.063512	-0.898326
43931	2.035679	-0.355392	10.333920	-0.429200	-0.090975	0.069794	-0.895902
43932	1.794730	-0.388870	10.290265	-0.434479	-0.087552	0.074550	-0.893311
43933	1.374858	-0.319220	10.263044	-0.440508	-0.084002	0.078724	-0.890336
43934	0.997395	-0.319742	10.047590	-0.446598	-0.080369	0.083377	-0.887209
43935	0.276833	-0.249160	9.897345	-0.451757	-0.077902	0.088804	-0.884285
43936	0.569725	-1.276298	9.847956	-0.455596	-0.077443	0.094143	-0.881801
43937	1.096213	-2.473663	9.650057	-0.458848	-0.079351	0.097658	-0.879559
43938	1.402469	-2.357645	9.400477	-0.462964	-0.082818	0.098946	-0.876935
43939	1.160415	-1.837759	9.203980	-0.468862	-0.086742	0.099668	-0.873333
43940	1.367220	-2.407243	8.980176	-0.475773	-0.090768	0.100541	-0.869076
43941	1.284491	-2.317300	8.721555	-0.483154	-0.094959	0.101119	-0.864477
43942	1.024401	-1.665427	8.924363	-0.491083	-0.099074	0.103503	-0.859249
43943	0.315854	-1.196613	9.355438	-0.497485	-0.103789	0.109015	-0.854314
43944	0.278357	-0.631218	9.840027	-0.500836	-0.109454	0.117252	-0.850550
43945	1.507975	-0.369610	10.048155	-0.504171	-0.113679	0.125910	-0.846779
43946	1.804334	-1.408995	9.813460	-0.510690	-0.114942	0.132659	-0.841656
43947	1.127032	-2.192383	9.568776	-0.520257	-0.114941	0.136748	-0.835118
43948	0.707924	-2.236414	9.824950	-0.530928	-0.114703	0.138993	-0.828034
43949	-0.379953	-1.374722	10.387946	-0.541137	-0.114676	0.142030	-0.820882
43950	-0.689146	-0.906690	10.794575	-0.550278	-0.114698	0.148750	-0.813580
43951	-0.217932	-0.967774	10.945140	-0.559585	-0.114439	0.158180	-0.805449
43952	0.614251	-1.653918	10.523205	-0.569995	-0.113264	0.166980	-0.796489
43953	0.330562	-2.155563	10.227345	-0.582550	-0.110944	0.172933	-0.786398
43954	-0.046946	-2.208167	9.934813	-0.597541	-0.108395	0.176976	-0.774516
43955	0.340729	-1.706275	9.995378	-0.615257	-0.104327	0.179408	-0.760518
43956	-0.417847	-1.478708	9.782718	-0.635269	-0.098687	0.180497	-0.744389
43957	-1.253816	-1.135841	9.777011	-0.657111	-0.093132	0.179772	-0.726095
43958	-1.978548	-0.490750	9.686777	-0.680467	-0.088508	0.177303	-0.705475
43959	-2.556455	-0.065213	9.674828	-0.704664	-0.085858	0.173678	-0.682578
43960	-2.872185	0.878743	9.625311	-0.728622	-0.085364	0.169913	-0.657992
43961	-2.690481	1.985451	9.724928	-0.751656	-0.085349	0.166674	-0.632414
43962	-2.738498	3.324453	9.921522	-0.773848	-0.082925	0.164179	-0.606075
43963	-2.853357	3.856309	10.336630	-0.795392	-0.075923	0.162466	-0.578959
43964	-3.325811	3.303769	10.600114	-0.816240	-0.065691	0.159706	-0.551299
43965	-4.260522	2.793008	10.982798	-0.836305	-0.054962	0.155415	-0.522895
43966	-5.143179	2.408907	11.187240	-0.855587	-0.046399	0.150065	-0.493253
43967	-5.491788	2.517496	11.432769	-0.873903	-0.041379	0.144202	-0.462372
43968	-5.515685	3.113994	11.715600	-0.890956	-0.039182	0.138429	-0.430697
43969	-5.494934	3.562030	11.855523	-0.906723	-0.037966	0.133387	-0.398270
43970	-5.438997	4.008425	11.674424	-0.921284	-0.036147	0.128754	-0.365174
43971	-5.485306	4.479740	11.498523	-0.934897	-0.033151	0.123872	-0.330945
43972	-5.958403	4.682810	11.313245	-0.947378	-0.029216	0.118640	-0.295882
43973	-6.447966	4.476810	11.157033	-0.958468	-0.025478	0.113401	-0.260441
43974	-6.754436	4.375053	11.078179	-0.967802	-0.023244	0.108621	-0.225876
43975	-6.814988	4.975751	11.190201	-0.975413	-0.022506	0.104612	-0.192665
43976	-6.503144	5.382597	11.210638	-0.981556	-0.022050	0.101290	-0.160632
43977	-5.999775	5.427676	11.222779	-0.986485	-0.021336	0.098054	-0.129526
43978	-5.539516	5.266084	11.328616	-0.990329	-0.020160	0.094459	-0.099593
43979	-5.167925	5.094055	11.621686	-0.993249	-0.017985	0.090182	-0.070717
43980	-5.228141	5.049206	11.784870	-0.995340	-0.014408	0.085360	-0.042469
43981	-5.278800	4.734388	11.840466	-0.996615	-0.009837	0.080366	-0.014280
43982	-5.099556	4.297055	11.605017	-0.997006	-0.006066	0.075783	0.014126
43983	-5.155170	4.169347	11.312601	-0.996488	-0.004063	0.071946	0.042640
43984	-4.935029	4.517333	11.110083	-0.995074	-0.003423	0.069226	0.070876
43985	-4.221121	5.089886	10.900200	-0.992842	-0.002449	0.066995	0.098843
43986	-3.298035	5.708832	10.896034	-0.989961	0.000435	0.063748	0.126149
43987	-2.781863	5.907371	11.108680	-0.986508	0.006411	0.058420	0.152798
43988	-2.383535	5.335303	11.203965	-0.982490	0.014319	0.051243	0.178556
43989	-3.001025	4.571590	11.329838	-0.977795	0.022205	0.044197	0.203643
43990	-2.616554	3.292666	10.946202	-0.972466	0.027422	0.040095	0.227924
43991	-1.997832	2.425484	10.112740	-0.966829	0.027123	0.040314	0.250759
43992	-0.460746	3.472818	9.843570	-0.960895	0.022768	0.043528	0.272521
43993	0.584755	4.545680	9.936311	-0.954464	0.018950	0.045693	0.294196
43994	0.681005	5.388182	10.218718	-0.947379	0.018642	0.044157	0.316504
43995	0.377924	5.698353	10.508825	-0.939631	0.022510	0.038579	0.339262
43996	-0.264615	5.356016	10.704376	-0.931504	0.028552	0.030251	0.361344
43997	-0.814771	4.485655	10.689136	-0.923396	0.034064	0.022341	0.381681
43998	-1.024325	3.823509	10.378979	-0.915833	0.037286	0.017560	0.399439
43999	-0.633324	3.540270	10.105478	-0.909005	0.037905	0.016986	0.414711
44000	-0.275569	3.560599	9.790475	-0.902737	0.037053	0.019699	0.428141
44001	0.218361	3.073006	9.259949	-0.896858	0.035530	0.024573	0.440203
44002	0.443739	2.612703	8.742337	-0.891320	0.033153	0.030896	0.451105
44003	0.803725	2.304157	8.228428	-0.886030	0.029943	0.037931	0.461102
44004	1.473684	2.255820	7.916347	-0.880827	0.026426	0.044769	0.470576
44005	1.786912	2.366976	7.774346	-0.875424	0.023421	0.050353	0.480154
44006	2.175988	2.430408	7.870502	-0.869586	0.021329	0.053765	0.490382
44007	2.427805	2.305160	7.994130	-0.863276	0.019392	0.054864	0.501366
44008	2.367116	2.588305	8.421849	-0.856563	0.016735	0.054462	0.512887
44009	2.009848	2.851177	8.717035	-0.849559	0.013572	0.053407	0.524608
44010	1.588060	2.952211	8.647785	-0.842502	0.010202	0.053172	0.535965
44011	1.491587	3.513692	8.690256	-0.835527	0.006631	0.054409	0.546709
44012	1.797712	3.866640	8.712493	-0.828827	0.002975	0.056492	0.556638
44013	2.048126	4.278625	8.676772	-0.822620	-0.001061	0.058744	0.565549
44014	1.962437	4.631634	8.853524	-0.816912	-0.004846	0.060299	0.573581
44015	1.972373	4.916802	9.213342	-0.811619	-0.007711	0.060270	0.581018
44016	1.574673	4.702595	9.492718	-0.806718	-0.009373	0.058154	0.587994
44017	1.397383	4.165435	9.820456	-0.802253	-0.010162	0.055187	0.594340
44018	1.609794	3.875655	10.222997	-0.798298	-0.011184	0.052111	0.599899
44019	1.312239	3.687157	10.454427	-0.794479	-0.012878	0.049448	0.605139
44020	0.666150	3.550355	10.371604	-0.790513	-0.015603	0.048210	0.610346
44021	0.077302	3.947892	10.398894	-0.786602	-0.019059	0.048650	0.615245
44022	-0.190486	4.199871	10.468349	-0.783118	-0.022483	0.049711	0.619475
44023	0.075039	4.368221	10.562862	-0.780322	-0.025208	0.050574	0.622820
44024	0.092328	4.092628	10.584290	-0.777933	-0.026759	0.050654	0.625730
44025	0.179921	3.644435	10.337873	-0.775744	-0.028299	0.051075	0.628341
44026	0.174097	3.692927	10.141034	-0.773710	-0.030368	0.052564	0.630625
44027	-0.044232	3.660920	9.831700	-0.771914	-0.033038	0.055534	0.632435
44028	0.145368	3.714912	9.522836	-0.770496	-0.035917	0.059503	0.633645
44029	0.144038	3.748213	9.244151	-0.769459	-0.038897	0.063929	0.634297
44030	-0.052424	3.707048	8.979020	-0.768785	-0.041832	0.067979	0.634507
44031	-0.182271	3.692361	8.748739	-0.768317	-0.044631	0.071643	0.634479
44032	-0.225927	3.807631	8.516678	-0.768064	-0.047488	0.075093	0.634180
44033	-0.116087	3.898448	8.306716	-0.768100	-0.050465	0.078312	0.633516
44034	-0.225618	3.844829	8.187042	-0.768517	-0.054467	0.082229	0.632181
44035	-0.420506	3.869802	8.144581	-0.769339	-0.060352	0.088569	0.629786
44036	-1.071695	5.010238	8.309501	-0.770351	-0.067933	0.098704	0.626261
44037	-2.038538	6.302429	8.266721	-0.770460	-0.076613	0.114284	0.622464
44038	-3.244691	7.592074	7.271366	-0.769393	-0.087382	0.137302	0.617695
44039	-3.586881	9.207989	5.763711	-0.768109	-0.101170	0.166875	0.609857
44040	-3.985590	10.281587	4.330373	-0.766735	-0.118727	0.199094	0.598651
44041	-5.114588	9.726190	2.910657	-0.764886	-0.142707	0.232842	0.583411
44042	-4.231743	10.569717	2.751344	-0.763934	-0.172868	0.265555	0.562140
44043	-3.803131	13.528551	1.145462	-0.765457	-0.206116	0.290196	0.536076
44044	-2.763805	13.255562	-1.544640	-0.770292	-0.245825	0.302595	0.504634
44045	-3.909084	14.823920	-2.367527	-0.778365	-0.290091	0.303945	0.466490
44046	-4.496058	14.805929	-0.742685	-0.788498	-0.330243	0.295204	0.426692
44047	-2.148201	12.993385	1.128508	-0.800239	-0.363573	0.277435	0.387895
44048	-1.719898	9.819781	1.471140	-0.811386	-0.395574	0.257053	0.345106
44049	-2.651944	8.721190	1.376490	-0.815892	-0.434783	0.240491	0.295718
44050	-3.692831	10.502486	1.708349	-0.809735	-0.481887	0.227840	0.245363
44051	-1.880381	16.774830	3.403924	-0.796774	-0.529322	0.212860	0.199149
44052	-0.411265	20.201544	4.562661	-0.786407	-0.566994	0.190216	0.154592
44053	-1.020248	20.925946	5.494609	-0.783446	-0.591681	0.158292	0.105213
44054	-3.380761	18.199235	5.761684	-0.783400	-0.607243	0.122975	0.049159
44055	-6.112105	17.400117	6.423200	-0.781039	-0.617978	0.089268	-0.010584
44056	-8.518279	17.362788	7.444507	-0.775511	-0.624837	0.059843	-0.067681
44057	-8.657576	15.281802	7.633533	-0.766603	-0.630336	0.033574	-0.117768
44058	-7.859018	13.595651	7.960427	-0.752871	-0.637573	0.009396	-0.163091
44059	-7.360019	12.692168	8.243660	-0.735442	-0.645757	-0.012889	-0.204833
44060	-6.627359	11.543609	8.726036	-0.718607	-0.650904	-0.032317	-0.242660
44061	-5.778319	8.536462	8.474929	-0.704410	-0.651934	-0.048769	-0.276423
44062	-5.092407	5.585405	8.346140	-0.691820	-0.650589	-0.064809	-0.306461
44063	-4.633320	4.154966	8.691250	-0.681284	-0.647644	-0.082227	-0.331131
44064	-4.509671	3.969115	8.789940	-0.673779	-0.643043	-0.099448	-0.350183
44065	-4.008836	4.409178	8.591997	-0.669197	-0.638124	-0.112584	-0.363729
44066	-3.211866	4.823483	7.949257	-0.667029	-0.634401	-0.119989	-0.371767
44067	-1.765360	4.754198	6.552968	-0.666965	-0.632175	-0.123554	-0.374495
44068	-0.196913	4.463030	4.843491	-0.666385	-0.632707	-0.127324	-0.373365
44069	0.747924	5.582767	3.585656	-0.664240	-0.635734	-0.133773	-0.369774
44070	1.515029	7.772330	2.852457	-0.662193	-0.639046	-0.142688	-0.364364
44071	1.571952	10.164877	2.581602	-0.662410	-0.639760	-0.151282	-0.359213
44072	1.198008	10.724483	2.319948	-0.665471	-0.638194	-0.155381	-0.354560
44073	1.872907	9.646756	1.332469	-0.668189	-0.637952	-0.156439	-0.349382
44074	2.700414	10.062117	0.422654	-0.667619	-0.641259	-0.158347	-0.343507
44075	2.901983	11.593044	0.105283	-0.664882	-0.646192	-0.161599	-0.338015
44076	3.129556	12.503364	0.174287	-0.662472	-0.649663	-0.164758	-0.334550
44077	2.913625	12.527203	0.580258	-0.662163	-0.649691	-0.167343	-0.333824
44078	2.333844	11.576252	1.254194	-0.664277	-0.646816	-0.168339	-0.334706
44079	1.966338	9.961196	1.588085	-0.666840	-0.644154	-0.166969	-0.335429
44080	2.298588	9.079957	1.755236	-0.667148	-0.644380	-0.165418	-0.335149
44081	2.322321	9.771739	2.084662	-0.665741	-0.646417	-0.164558	-0.334446
44082	2.242085	10.273917	2.197307	-0.665272	-0.647425	-0.162945	-0.334220
44083	2.214308	9.435129	2.005802	-0.666775	-0.646339	-0.160454	-0.334532
44084	2.206101	8.116749	1.590538	-0.668785	-0.645111	-0.157979	-0.334068
44085	2.426986	7.840814	1.252800	-0.669526	-0.645484	-0.156632	-0.332493
44086	2.513350	8.754271	1.389267	-0.669617	-0.646582	-0.156099	-0.330420
44087	2.372920	9.232805	1.289050	-0.670683	-0.646593	-0.155217	-0.328648
44088	2.266114	8.827582	1.149377	-0.672174	-0.646194	-0.154191	-0.326866
44089	2.121564	9.213569	1.111195	-0.673072	-0.646705	-0.153184	-0.324472
44090	2.278922	10.153940	1.219115	-0.673586	-0.647933	-0.151479	-0.321743
44091	2.436647	10.244104	1.046498	-0.674349	-0.648728	-0.149254	-0.319576
44092	2.478585	9.486676	0.844329	-0.674606	-0.649499	-0.147344	-0.318352
44093	2.339642	9.103512	0.778359	-0.674248	-0.650563	-0.145952	-0.317577
44094	2.270311	8.746215	0.815966	-0.673979	-0.651443	-0.144393	-0.317058
44095	2.192652	8.233437	0.845775	-0.674651	-0.651463	-0.142119	-0.316615
44096	2.067035	7.836536	1.016223	-0.677197	-0.649812	-0.138818	-0.316034
44097	1.846270	7.926778	1.165994	-0.683253	-0.644959	-0.133526	-0.315219
44098	1.751024	8.168650	1.197270	-0.695115	-0.634375	-0.124619	-0.314411
44099	1.799123	7.449364	0.799446	-0.714046	-0.615871	-0.111544	-0.313685
44100	2.464356	5.388558	0.141671	-0.738761	-0.589168	-0.094138	-0.313452
44101	2.400805	3.896073	-0.733695	-0.766602	-0.555375	-0.073105	-0.313904
44102	2.397183	2.354593	-1.258182	-0.795742	-0.515114	-0.048848	-0.314748
44103	2.264845	-0.021094	-1.701060	-0.824132	-0.470087	-0.023502	-0.315075
44104	1.653585	-1.881696	-2.263455	-0.849461	-0.424996	0.000106	-0.312722
44105	0.436076	-1.845578	-2.925798	-0.871432	-0.384928	0.019485	-0.303408
44106	0.429998	-2.103164	-2.756660	-0.890107	-0.353303	0.033944	-0.285891
44107	0.618134	-2.872483	-2.236563	-0.905190	-0.331807	0.042436	-0.262173
44108	0.400635	-2.976150	-1.813532	-0.916336	-0.321055	0.045038	-0.234996
44109	0.256002	-0.459587	-1.200244	-0.924303	-0.319152	0.040946	-0.205255
44110	0.719852	4.859273	0.193016	-0.931258	-0.319990	0.027420	-0.172083
44111	0.043777	8.042865	1.431707	-0.939508	-0.314290	0.003382	-0.136146
44112	-2.346055	5.609613	1.553787	-0.947856	-0.300486	-0.028563	-0.102276
44113	-5.627037	3.095414	1.261312	-0.953725	-0.284546	-0.064468	-0.072700
44114	-8.805015	4.608327	2.296428	-0.956065	-0.270203	-0.104236	-0.045452
44115	-11.035835	8.675795	3.783319	-0.955412	-0.253262	-0.150610	-0.019077
44116	-13.091240	9.596399	4.286891	-0.951674	-0.228578	-0.205078	0.003428
44117	-16.591833	5.822078	3.557898	-0.943254	-0.200574	-0.263832	0.020845
44118	-20.310162	2.696531	2.684408	-0.928556	-0.180535	-0.322387	0.035470
44119	-23.159976	1.394988	2.797025	-0.907372	-0.174630	-0.379098	0.049649
44120	-25.337635	2.184352	3.817186	-0.879901	-0.182286	-0.434242	0.063084
44121	-27.481531	4.060039	6.138613	-0.845504	-0.196138	-0.491305	0.072616
44122	-27.608610	6.978037	10.579989	-0.802763	-0.205488	-0.554978	0.073116
44123	-39.629824	-38.867474	62.304475	-0.731387	-0.247793	-0.619617	0.140523
44124	-52.636766	67.814200	43.833620	-0.729812	-0.288532	-0.589683	0.190781
44125	-5.700422	11.440849	13.843812	-0.747088	-0.308843	-0.546667	0.218245
44126	-12.574000	9.555841	2.133774	-0.766066	-0.316551	-0.511458	0.226604
44127	-10.086548	3.678878	2.712410	-0.783604	-0.313745	-0.487221	0.223928
44128	-9.288739	0.529624	2.609743	-0.797867	-0.313034	-0.467701	0.216040
44129	-7.074303	-2.807745	2.335820	-0.805465	-0.323795	-0.450119	0.209227
44130	-6.670192	-0.924008	1.377888	-0.807613	-0.340640	-0.434657	0.206881
44131	-5.445088	1.501251	1.275186	-0.808057	-0.356881	-0.420882	0.206247
44132	-5.695811	2.163595	1.191528	-0.808286	-0.368613	-0.409517	0.207594
44133	-5.915551	2.431100	1.351878	-0.809013	-0.374349	-0.400504	0.212030
44134	-5.898885	2.458873	1.473638	-0.810463	-0.374180	-0.393656	0.219487
44135	-5.679517	2.509793	1.382025	-0.811908	-0.369706	-0.389493	0.228953
44136	-5.725020	2.795532	1.737955	-0.812780	-0.362363	-0.388463	0.239120
44137	-5.977346	3.011806	2.120595	-0.812835	-0.353239	-0.390526	0.249020
44138	-6.720511	2.988716	2.339177	-0.812008	-0.343439	-0.394805	0.258498
44139	-7.534439	3.048302	2.575079	-0.810317	-0.333854	-0.400348	0.267673
44140	-8.296410	3.180364	2.801742	-0.807545	-0.325397	-0.406376	0.277212
44141	-8.961740	3.274746	2.936358	-0.803335	-0.319123	-0.412154	0.287998
44142	-9.471438	3.516139	2.967825	-0.797639	-0.315922	-0.416858	0.300323
44143	-9.783371	3.822329	2.920214	-0.790663	-0.316419	-0.419820	0.313818
44144	-10.074069	4.279533	2.820589	-0.783082	-0.320707	-0.420292	0.327542
44145	-10.239629	4.941413	2.645002	-0.776058	-0.327804	-0.417947	0.339998
44146	-10.171109	5.556707	2.764620	-0.770734	-0.336134	-0.413477	0.349312
44147	-9.832500	5.976472	3.150050	-0.768040	-0.343772	-0.408501	0.353642
44148	-9.642415	5.727183	3.477699	-0.768152	-0.349335	-0.404642	0.352380
44149	-9.350211	4.802097	3.701090	-0.770379	-0.352684	-0.402533	0.346552
44150	-8.928519	3.841714	3.829228	-0.773610	-0.354652	-0.402147	0.337679
44151	-8.885825	3.136101	4.124349	-0.777104	-0.355767	-0.403178	0.327090
44152	-9.955381	3.769136	5.976147	-0.782506	-0.352749	-0.404784	0.315280
44153	-8.995235	3.268347	10.323525	-0.792955	-0.342393	-0.402328	0.303516
44154	-6.446209	-4.734629	15.645939	-0.802855	-0.331977	-0.393441	0.300698
44155	-6.629233	-4.454629	11.532368	-0.807992	-0.330729	-0.377995	0.308037
44156	-3.904615	-2.988646	8.598231	-0.807365	-0.336907	-0.363274	0.320449
44157	-4.987533	-0.624416	5.883147	-0.803077	-0.347642	-0.351738	0.332403
44158	-5.196824	1.166997	4.611125	-0.797304	-0.360172	-0.343140	0.341815
44159	-5.385004	2.253168	4.047848	-0.790289	-0.372524	-0.338841	0.349078
44160	-5.730908	3.713334	4.327916	-0.782723	-0.383429	-0.338842	0.354278
44161	-7.078871	4.425348	4.784924	-0.776438	-0.389904	-0.342768	0.357252
44162	-8.698292	4.580878	4.699961	-0.772727	-0.390435	-0.349018	0.358663
44163	-9.726069	4.058521	4.635550	-0.772083	-0.385169	-0.355598	0.359279
44164	-10.348591	3.069538	4.430831	-0.773593	-0.376164	-0.360807	0.360377
44165	-10.297708	2.395249	4.361616	-0.775763	-0.366084	-0.363920	0.362956
44166	-10.060751	2.002444	4.274186	-0.777194	-0.357279	-0.364951	0.367604
44167	-9.742521	1.762938	4.157233	-0.777037	-0.351324	-0.364018	0.374533
44168	-9.399422	1.829427	4.006151	-0.775030	-0.349160	-0.361033	0.383499
44169	-9.078611	2.303776	3.858781	-0.771665	-0.350531	-0.356156	0.393465
44170	-8.989242	2.875430	3.720740	-0.767738	-0.354143	-0.349910	0.403391
44171	-9.040110	3.190011	3.563109	-0.763831	-0.358690	-0.342784	0.412799
44172	-9.013250	3.358631	3.417683	-0.760425	-0.363106	-0.335201	0.421364
44173	-8.848036	3.331493	3.276485	-0.757852	-0.366642	-0.327534	0.428899
44174	-8.532291	3.350568	3.244703	-0.756099	-0.369043	-0.320273	0.435371
44175	-8.236808	3.190577	3.197983	-0.754947	-0.370333	-0.313915	0.440869
44176	-7.980691	2.925457	3.088017	-0.753991	-0.370854	-0.308557	0.445822
44177	-7.803738	2.576853	2.994842	-0.752731	-0.371226	-0.303948	0.450780
44178	-7.725258	2.395933	2.902242	-0.750819	-0.371974	-0.299753	0.456130
44179	-7.713647	2.319186	2.855681	-0.748066	-0.373389	-0.295855	0.462005
44180	-7.703937	2.472889	2.844839	-0.744527	-0.375370	-0.292274	0.468351
44181	-7.610010	2.734975	2.875884	-0.740349	-0.377642	-0.289321	0.474935
44182	-7.620423	2.970198	2.944393	-0.735732	-0.379922	-0.287294	0.481478
44183	-7.667911	3.149632	3.008012	-0.730868	-0.382030	-0.286346	0.487741
44184	-7.772445	3.310660	3.086935	-0.725917	-0.383921	-0.286477	0.493538
44185	-7.860416	3.493245	3.244967	-0.721030	-0.385547	-0.287747	0.498669
44186	-7.893659	3.696559	3.401445	-0.716357	-0.386879	-0.290259	0.502898
44187	-7.975991	3.798912	3.615074	-0.712005	-0.387866	-0.294017	0.506126
44188	-7.907443	3.889005	3.772358	-0.708021	-0.388608	-0.298944	0.508255
44189	-7.876073	3.931838	4.011125	-0.704403	-0.389261	-0.304908	0.509239
44190	-7.814730	3.981574	4.227182	-0.701165	-0.389940	-0.311808	0.509010
44191	-7.854960	3.991111	4.460139	-0.698368	-0.390660	-0.319487	0.507539
44192	-8.088811	3.241437	4.640154	-0.696100	-0.391767	-0.327704	0.504554
44193	-7.686898	0.815249	5.992225	-0.691201	-0.396841	-0.332329	0.504298
44194	-8.599228	0.274991	6.895823	-0.680156	-0.409763	-0.329691	0.510672
44195	-8.490039	3.009950	7.326245	-0.664274	-0.427321	-0.321070	0.522542
44196	-8.833843	5.179337	6.897538	-0.648573	-0.443159	-0.311060	0.534980
44197	-8.818089	6.703936	6.730974	-0.637422	-0.453015	-0.302975	0.544681
44198	-8.556147	6.779425	6.357216	-0.632192	-0.456017	-0.298148	0.550899
44199	-7.806505	6.234906	5.561625	-0.631454	-0.454984	-0.295959	0.553772
44200	-7.657800	5.636829	4.959680	-0.633821	-0.452364	-0.295963	0.553212
44201	-7.744241	5.443897	4.742281	-0.638377	-0.448826	-0.297907	0.549801
44202	-8.058081	5.164814	4.678663	-0.644991	-0.443937	-0.301767	0.543914
44203	-8.305193	4.559170	4.555345	-0.653292	-0.437694	-0.307013	0.536076
44204	-8.464939	3.866593	4.512536	-0.662612	-0.430554	-0.312810	0.526990
44205	-8.556189	3.167170	4.464399	-0.672160	-0.423209	-0.318304	0.517472
44206	-8.464395	2.725865	4.372047	-0.681070	-0.416503	-0.323039	0.508246
44207	-8.444254	2.341564	4.283514	-0.688781	-0.411132	-0.326818	0.499741
44208	-8.401956	2.229418	4.289583	-0.695086	-0.407549	-0.329454	0.492157
44209	-8.437676	1.978759	4.321398	-0.699906	-0.405669	-0.330779	0.485952
44210	-8.600468	1.891727	4.345761	-0.703242	-0.405284	-0.330641	0.481531
44211	-8.716085	2.078469	4.252673	-0.705362	-0.405982	-0.329123	0.478875
44212	-8.659218	2.411967	4.128707	-0.706892	-0.407034	-0.326585	0.477462
44213	-8.497873	2.625522	4.062570	-0.708300	-0.407894	-0.323533	0.476718
44214	-8.373387	2.754320	3.940700	-0.709733	-0.408365	-0.320422	0.476284
44215	-8.260346	2.741981	3.776390	-0.711179	-0.408584	-0.317415	0.475953
44216	-8.223638	2.651117	3.594845	-0.712555	-0.408814	-0.314539	0.475606
44217	-8.183901	2.615684	3.515447	-0.713757	-0.409291	-0.311765	0.475220
44218	-8.115360	2.737580	3.442393	-0.714826	-0.409980	-0.309323	0.474616
44219	-8.064492	2.908528	3.489666	-0.715925	-0.410561	-0.307587	0.473584
44220	-8.081737	2.931184	3.490575	-0.717197	-0.410785	-0.306790	0.471979
44221	-8.116343	2.931693	3.507669	-0.718683	-0.410586	-0.307001	0.469749
44222	-8.136178	2.851271	3.597691	-0.720344	-0.410008	-0.308134	0.466961
44223	-8.187758	2.684430	3.628107	-0.722002	-0.409267	-0.309903	0.463868
44224	-8.216866	2.575502	3.692907	-0.723540	-0.408539	-0.312096	0.460633
44225	-8.228986	2.517218	3.804511	-0.724864	-0.407942	-0.314453	0.457466
44226	-8.207513	2.535118	3.892395	-0.725947	-0.407463	-0.316987	0.454416
44227	-8.206477	2.611503	3.993755	-0.726856	-0.406993	-0.319684	0.451486
44228	-8.191279	2.665166	4.049668	-0.727640	-0.406478	-0.322569	0.448626
44229	-8.222647	2.685223	4.157401	-0.728339	-0.405908	-0.325615	0.445798
44230	-8.239614	2.698807	4.252759	-0.729003	-0.405254	-0.328749	0.442999
44231	-8.272579	2.680598	4.314965	-0.729627	-0.404577	-0.331894	0.440237
44232	-8.296636	2.650049	4.375416	-0.730134	-0.403931	-0.334960	0.437660
44233	-8.344636	2.597917	4.424293	-0.730501	-0.403362	-0.337893	0.435311
44234	-8.296894	2.652176	4.502084	-0.730707	-0.402884	-0.340690	0.433222
44235	-8.279984	2.727378	4.512009	-0.730791	-0.402449	-0.343401	0.431342
44236	-8.255960	2.816039	4.608653	-0.730829	-0.401984	-0.346074	0.429571
44237	-8.261457	2.863262	4.651290	-0.730894	-0.401425	-0.348705	0.427851
44238	-8.279812	2.881450	4.661683	-0.731015	-0.400770	-0.351289	0.426141
44239	-8.304482	2.890432	4.684312	-0.731189	-0.400013	-0.353740	0.424523
44240	-8.342547	2.822328	4.720383	-0.731387	-0.399224	-0.356013	0.423023
44241	-8.376512	2.804422	4.713993	-0.731549	-0.398477	-0.357930	0.421827
44242	-8.412695	2.823171	4.716793	-0.731649	-0.397797	-0.359455	0.420998
44243	-8.395836	2.856944	4.683844	-0.731674	-0.397216	-0.360566	0.420553
44244	-8.368837	2.954967	4.695794	-0.731675	-0.396698	-0.361343	0.420373
44245	-8.371712	2.992784	4.649423	-0.731715	-0.396240	-0.361839	0.420310
44246	-8.454736	3.014247	4.613462	-0.731815	-0.395849	-0.362054	0.420319
44247	-8.437054	3.012622	4.565905	-0.731940	-0.395511	-0.361991	0.420473
44248	-8.409537	3.028876	4.470874	-0.732092	-0.395270	-0.361646	0.420731
44249	-8.480113	3.027923	4.416714	-0.732284	-0.395158	-0.361031	0.421031
44250	-8.550815	2.993047	4.327812	-0.732528	-0.395103	-0.360149	0.421413
44251	-8.537382	3.026947	4.323838	-0.732726	-0.395134	-0.359142	0.421898
44252	-8.529091	3.103144	4.284143	-0.732917	-0.395209	-0.358108	0.422377
44253	-8.482690	3.098308	4.220524	-0.733167	-0.395342	-0.357059	0.422705
44254	-8.390087	3.069696	4.214038	-0.733481	-0.395576	-0.356007	0.422828
44255	-8.332247	3.051449	4.207188	-0.733842	-0.395947	-0.354924	0.422765
44256	-8.359823	3.044666	4.139748	-0.734333	-0.396265	-0.353802	0.422556
44257	-8.335248	2.977179	4.127602	-0.734999	-0.396433	-0.352652	0.422201
44258	-8.285121	2.850196	4.128984	-0.735724	-0.396516	-0.351568	0.421765
44259	-8.254691	2.733372	4.079038	-0.736371	-0.396648	-0.350582	0.421331
44260	-8.267941	2.670884	4.067119	-0.736838	-0.396883	-0.349652	0.421066
44261	-8.214167	2.733615	4.039444	-0.737203	-0.397125	-0.348763	0.420937
44262	-8.231625	2.742553	4.046843	-0.737508	-0.397276	-0.348033	0.420865
44263	-8.263982	2.721334	4.018798	-0.737755	-0.397356	-0.347400	0.420879
