// Start Time: Unknown
// Update Rate: 60.0Hz
// Filter Profile: human (46.1)
// Option Flags: AHS Disabled ICC Disabled 
// Firmware Version: 4.3.5
PacketCounter	Acc_X	Acc_Y	Acc_Z	Quat_q0	Quat_q1	Quat_q2	Quat_q3
39183	1.156330	1.034699	9.512999	0.674794	-0.012153	-0.070520	-0.734529
39184	1.099959	1.062792	9.494916	0.674547	-0.011817	-0.070275	-0.734785
39185	1.021132	0.940978	9.466883	0.674497	-0.011410	-0.070054	-0.734858
39186	1.131525	0.914225	9.565139	0.674616	-0.010812	-0.069793	-0.734783
39187	1.132828	0.978705	9.704217	0.674560	-0.010389	-0.069206	-0.734895
39188	1.154480	0.938020	9.790551	0.674391	-0.010158	-0.068335	-0.735135
39189	1.089357	0.974940	9.846300	0.674272	-0.009881	-0.067581	-0.735318
39190	1.041892	0.904215	9.850862	0.674182	-0.009621	-0.067139	-0.735444
39191	1.153873	0.968856	9.849912	0.674167	-0.009353	-0.066863	-0.735487
39192	1.010260	0.921961	9.826604	0.674131	-0.009167	-0.066617	-0.735544
39193	1.046427	0.820526	9.810082	0.674115	-0.009035	-0.066424	-0.735579
39194	1.102098	0.861243	9.839092	0.674037	-0.008766	-0.066272	-0.735666
39195	1.025594	0.944987	9.858544	0.673933	-0.008536	-0.066057	-0.735784
39196	0.958302	0.832396	9.826167	0.673925	-0.008474	-0.065850	-0.735810
39197	1.020496	0.668113	9.758052	0.673893	-0.008456	-0.065802	-0.735844
39198	1.070933	0.576116	9.724381	0.673706	-0.008310	-0.065855	-0.736013
39199	1.024811	0.679662	9.741682	0.673360	-0.008100	-0.065765	-0.736339
39200	0.982413	0.780503	9.697278	0.672888	-0.007890	-0.065630	-0.736785
39201	0.954510	0.941779	9.648657	0.672401	-0.007661	-0.065576	-0.737237
39202	0.955029	0.970326	9.624152	0.672056	-0.007487	-0.065575	-0.737553
39203	0.996178	1.090458	9.572355	0.671849	-0.007344	-0.065579	-0.737743
39204	0.986009	1.050773	9.538704	0.671657	-0.007329	-0.065375	-0.737936
39205	0.934299	0.858763	9.506475	0.671546	-0.007290	-0.065177	-0.738055
39206	0.972938	0.751275	9.524787	0.671430	-0.007035	-0.065205	-0.738160
39207	0.952647	0.911308	9.542299	0.671135	-0.006705	-0.065328	-0.738421
39208	0.951604	0.755722	9.461045	0.670821	-0.006394	-0.065521	-0.738692
39209	1.013602	1.076074	9.466571	0.670484	-0.005895	-0.065684	-0.738987
39210	0.969853	1.228366	9.610832	0.670102	-0.005549	-0.065430	-0.739358
39211	0.945907	1.376066	9.615833	0.669886	-0.005427	-0.064905	-0.739601
39212	0.797430	0.994000	9.588719	0.669878	-0.005438	-0.064618	-0.739634
39213	1.078508	0.965590	9.659710	0.669985	-0.004934	-0.064736	-0.739530
39214	0.997220	1.156176	9.718992	0.669930	-0.004201	-0.064751	-0.739583
39215	0.858950	1.200023	9.694416	0.669872	-0.003754	-0.064725	-0.739641
39216	0.895255	1.077098	9.560653	0.669992	-0.003448	-0.064930	-0.739515
39217	0.960238	1.166707	9.494236	0.670143	-0.003127	-0.065132	-0.739362
39218	0.902406	1.083480	9.436312	0.670290	-0.002986	-0.065038	-0.739238
39219	1.008216	1.039844	9.540539	0.670418	-0.002904	-0.064466	-0.739172
39220	0.998801	0.990182	9.655650	0.670500	-0.002601	-0.063650	-0.739169
39221	0.851684	1.034349	9.739379	0.670569	-0.002007	-0.063113	-0.739155
39222	0.792674	1.267487	9.705691	0.670782	-0.001399	-0.063069	-0.738967
39223	0.790300	1.154379	9.592299	0.671155	-0.001111	-0.063137	-0.738623
39224	0.976794	0.933541	9.576236	0.671750	-0.000799	-0.063099	-0.738085
39225	1.009578	1.093627	9.763073	0.672121	-0.000724	-0.062334	-0.737813
39226	0.808795	0.922119	9.737322	0.672295	-0.001025	-0.061098	-0.737757
39227	0.765264	0.753590	9.550436	0.672417	-0.001241	-0.060281	-0.737713
39228	0.773611	1.010556	9.453778	0.672559	-0.000953	-0.060023	-0.737604
39229	0.782115	1.235098	9.354895	0.672843	-0.000876	-0.059423	-0.737394
39230	0.724904	1.087012	9.061047	0.673270	-0.001525	-0.058121	-0.737107
39231	0.654757	0.663845	8.735860	0.673646	-0.002743	-0.056477	-0.736888
39232	0.910905	0.404348	8.545459	0.673800	-0.003709	-0.054785	-0.736871
39233	0.873845	0.328143	8.497973	0.673593	-0.003664	-0.053154	-0.737180
39234	0.709861	0.389230	8.667247	0.673203	-0.002377	-0.051868	-0.737633
39235	0.714235	0.702599	8.821338	0.672852	-0.000122	-0.050783	-0.738032
39236	0.461509	0.933236	8.836824	0.672665	0.001927	-0.049581	-0.738282
39237	0.219666	0.710148	8.586525	0.672652	0.003446	-0.048471	-0.738361
39238	0.356382	0.624195	8.260065	0.672566	0.004716	-0.047443	-0.738499
39239	0.377041	0.526519	8.103526	0.672506	0.006531	-0.046338	-0.738611
39240	0.358206	0.749632	8.109176	0.672355	0.008808	-0.044890	-0.738814
39241	0.180369	0.411589	8.079115	0.672187	0.011603	-0.043188	-0.739030
39242	0.348161	0.571780	8.440648	0.672010	0.015405	-0.041075	-0.739242
39243	0.338508	0.976580	8.864074	0.671649	0.019666	-0.037634	-0.739651
39244	-0.034130	1.073001	9.223319	0.671277	0.023841	-0.033112	-0.740082
39245	-0.356115	1.122851	9.705844	0.671157	0.027427	-0.028288	-0.740267
39246	-0.530494	0.699484	10.261727	0.671447	0.030712	-0.023549	-0.740041
39247	-0.172886	0.775931	10.948367	0.672015	0.033939	-0.018573	-0.739526
39248	-0.265161	0.822033	11.848316	0.672733	0.036710	-0.012727	-0.738865
39249	-0.356787	1.060725	12.803231	0.673737	0.038209	-0.005447	-0.737962
39250	-0.415767	0.293028	13.271521	0.674819	0.038672	0.002477	-0.736965
39251	-0.542110	-0.214199	13.305429	0.675651	0.038876	0.009237	-0.736138
39252	-0.917475	-0.540118	12.826847	0.675731	0.039131	0.013405	-0.735987
39253	-1.082101	-0.144621	11.900228	0.674895	0.039329	0.014254	-0.736727
39254	-1.347019	0.388579	10.427911	0.673383	0.039111	0.011633	-0.738167
39255	-1.502491	0.990954	8.874297	0.671313	0.038431	0.005334	-0.740158
39256	-0.818035	1.487761	7.820097	0.669383	0.038701	-0.002167	-0.741906
39257	-0.090205	1.704361	7.101330	0.668844	0.040356	-0.008200	-0.742261
39258	-0.265672	2.168004	6.498962	0.669647	0.042526	-0.011177	-0.741377
39259	-0.335579	2.220787	6.371935	0.670995	0.043999	-0.010675	-0.740078
39260	-0.632775	1.992357	6.322656	0.672249	0.044745	-0.006984	-0.738939
39261	-0.947512	1.354907	6.138083	0.673497	0.045365	-0.001764	-0.737794
39262	-1.354201	0.986591	5.825483	0.674837	0.046706	0.002720	-0.736482
39263	-1.687502	0.945555	5.764713	0.676291	0.049398	0.005464	-0.734956
39264	-1.728689	0.963533	5.933194	0.677882	0.053732	0.007085	-0.733171
39265	-1.651592	1.474759	6.083496	0.679588	0.059350	0.009075	-0.731133
39266	-1.858762	1.443133	6.209433	0.681680	0.065650	0.012175	-0.728597
39267	-2.098353	1.501274	6.403938	0.684113	0.072146	0.016206	-0.725619
39268	-2.782697	1.529903	7.316598	0.687086	0.078384	0.021611	-0.722012
39269	-2.919237	2.129536	8.121227	0.690741	0.083233	0.029284	-0.717699
39270	-3.123148	1.590197	8.778981	0.695274	0.086153	0.038423	-0.712527
39271	-3.319360	-0.910193	8.299143	0.700183	0.089399	0.045401	-0.706887
39272	-4.116345	-2.299206	7.133196	0.703598	0.096396	0.045654	-0.702547
39273	-3.277518	-0.872998	8.173038	0.705112	0.107656	0.041913	-0.699622
39274	-3.129033	2.041271	9.212198	0.705658	0.119704	0.041982	-0.697104
39275	-3.975314	2.865900	9.026498	0.706155	0.128827	0.047363	-0.694627
39276	-4.963607	2.335405	8.182068	0.707042	0.135227	0.053998	-0.692018
39277	-6.709512	1.811007	7.202091	0.707939	0.140531	0.056415	-0.689848
39278	-4.906412	1.277782	8.574661	0.709762	0.147497	0.054083	-0.686700
39279	-4.721043	2.968946	9.827736	0.713973	0.156453	0.051992	-0.680486
39280	-5.020863	3.428022	9.306050	0.719629	0.163937	0.051490	-0.672761
39281	-5.678413	2.926284	8.168345	0.724561	0.169812	0.051030	-0.666012
39282	-6.939854	2.428175	6.967597	0.727257	0.175792	0.048188	-0.661719
39283	-7.413378	2.430607	6.506533	0.728221	0.182852	0.041514	-0.659193
39284	-6.620478	2.516288	6.415657	0.729622	0.191238	0.032566	-0.655759
39285	-6.635514	3.214319	5.985044	0.732016	0.200788	0.024780	-0.650556
39286	-6.402486	3.839849	5.251245	0.734833	0.210423	0.020368	-0.644459
39287	-6.504558	4.076221	4.858881	0.737248	0.220316	0.021075	-0.638343
39288	-6.067049	4.010596	5.083859	0.738757	0.232088	0.027835	-0.632138
39289	-4.585316	3.711689	6.335720	0.740210	0.247266	0.041662	-0.623869
39290	-5.271090	3.383447	7.013128	0.742467	0.265924	0.061449	-0.611760
39291	-7.032546	3.204324	7.284955	0.744672	0.286192	0.083045	-0.597211
39292	-8.656249	3.746176	8.074518	0.745796	0.306164	0.103956	-0.582447
39293	-7.495948	5.065988	9.991356	0.745852	0.324414	0.125627	-0.568047
39294	-6.766509	6.058015	11.554912	0.746599	0.339983	0.151490	-0.551410
39295	-8.440252	5.052384	11.624450	0.748589	0.352180	0.178479	-0.532662
39296	-9.259062	3.787487	11.221285	0.751356	0.362266	0.201947	-0.513269
39297	-9.676540	4.097775	10.891575	0.754423	0.371090	0.220868	-0.494324
39298	-9.037826	4.906053	11.879155	0.757638	0.378171	0.238034	-0.475722
39299	-8.654683	4.983878	12.011203	0.761148	0.383618	0.256266	-0.455871
39300	-9.336318	4.249309	11.457919	0.765273	0.388201	0.273856	-0.434350
39301	-9.435523	3.620576	10.859067	0.769488	0.393003	0.289108	-0.412134
39302	-9.470744	3.396804	10.342961	0.773380	0.398135	0.301940	-0.390134
39303	-9.687074	3.119422	9.803027	0.777154	0.402984	0.312385	-0.368852
39304	-9.547700	2.935749	9.229145	0.781211	0.406599	0.320606	-0.348709
39305	-9.141556	2.585045	8.698916	0.785572	0.408679	0.327488	-0.329559
39306	-8.965847	2.083170	8.233859	0.789847	0.409633	0.333657	-0.311472
39307	-9.006122	1.475784	7.818268	0.793653	0.410107	0.338971	-0.295001
39308	-9.007190	0.997813	7.410618	0.796616	0.411057	0.342825	-0.280901
39309	-9.059512	0.831783	7.061711	0.798614	0.412932	0.345118	-0.269437
39310	-9.086681	0.850608	6.687460	0.799594	0.416029	0.345631	-0.260975
39311	-9.113899	1.134529	6.182746	0.799822	0.419962	0.344349	-0.255617
39312	-9.161722	1.231271	5.710853	0.799540	0.424355	0.341404	-0.253185
39313	-9.563239	1.506225	5.492781	0.798918	0.428972	0.337088	-0.253148
39314	-9.799796	1.419098	5.356753	0.798225	0.433456	0.331418	-0.255178
39315	-9.640488	1.382665	5.087828	0.797328	0.437764	0.324944	-0.258925
39316	-9.515148	1.420991	4.797102	0.796023	0.442099	0.318180	-0.263925
39317	-9.526204	1.924366	4.652971	0.794537	0.446448	0.310821	-0.269787
39318	-9.753596	2.161882	4.501319	0.792931	0.450839	0.302560	-0.276518
39319	-9.556170	2.489850	4.463376	0.791171	0.455447	0.292913	-0.284286
39320	-8.889919	3.272456	4.632246	0.788817	0.459893	0.283728	-0.292855
39321	-8.210915	4.033384	4.604356	0.785756	0.463266	0.277087	-0.301985
39322	-7.496182	4.371470	4.271884	0.782340	0.465177	0.273637	-0.310929
39323	-7.354419	3.985604	3.906669	0.778278	0.466554	0.272559	-0.319879
39324	-7.467860	3.599188	3.765202	0.773158	0.468854	0.271718	-0.329503
39325	-6.995350	3.992903	3.663044	0.766847	0.472776	0.270468	-0.339523
39326	-6.231172	5.165664	3.635067	0.759774	0.477715	0.270148	-0.348643
39327	-6.172485	5.789269	3.690682	0.752558	0.482351	0.271648	-0.356652
39328	-6.254745	5.743650	3.575706	0.745374	0.486040	0.274678	-0.364328
39329	-6.578150	5.579344	3.434590	0.737652	0.489037	0.278000	-0.373402
39330	-6.399442	5.736678	3.444842	0.729405	0.491879	0.280095	-0.384149
39331	-6.057257	6.618957	3.510429	0.720946	0.494908	0.280985	-0.395411
39332	-5.823689	7.300836	3.588752	0.712642	0.498065	0.281573	-0.405943
39333	-5.753882	7.664289	3.756209	0.704805	0.500688	0.282452	-0.415670
39334	-5.674385	7.582186	3.777740	0.697653	0.502344	0.283298	-0.425057
39335	-5.086495	7.054717	3.738040	0.690815	0.503375	0.283762	-0.434589
39336	-4.599635	6.635944	3.432818	0.683434	0.504601	0.283939	-0.444605
39337	-4.582230	6.636386	3.248317	0.675492	0.506142	0.283833	-0.454939
39338	-4.352508	7.335302	3.356755	0.667991	0.507161	0.284066	-0.464631
39339	-4.461359	8.052253	3.605121	0.662032	0.506496	0.285842	-0.472726
39340	-4.365075	7.936603	3.781758	0.657687	0.504741	0.288785	-0.478841
39341	-4.756876	7.960355	3.850043	0.653568	0.503181	0.292482	-0.483851
39342	-5.090160	7.863728	3.977845	0.649038	0.502547	0.296146	-0.488358
39343	-5.594709	8.039279	4.129956	0.644835	0.502589	0.298892	-0.492195
39344	-5.594335	8.714118	4.165319	0.642195	0.502425	0.300471	-0.494845
39345	-5.343425	9.320850	4.298562	0.642328	0.500882	0.301627	-0.495533
39346	-5.348286	9.344972	4.271647	0.644630	0.498380	0.302677	-0.494425
39347	-5.585602	9.170943	4.321537	0.647708	0.496114	0.303587	-0.492118
39348	-5.995281	9.301085	4.248086	0.650812	0.494944	0.303698	-0.489124
39349	-6.330406	9.226352	3.915864	0.654116	0.495112	0.302353	-0.485365
39350	-6.111357	9.800159	3.543544	0.658329	0.496916	0.298857	-0.479960
39351	-5.867744	10.953444	3.316534	0.664716	0.499361	0.293816	-0.471660
39352	-6.386133	11.510885	3.444536	0.673995	0.500960	0.288092	-0.460188
39353	-7.267108	10.916209	3.006350	0.685194	0.501766	0.281262	-0.446803
39354	-7.383242	9.834316	2.539215	0.695677	0.504202	0.272401	-0.433142
39355	-7.168704	9.991416	2.185185	0.704156	0.510283	0.261314	-0.418916
39356	-7.223805	11.730931	2.360215	0.712133	0.518549	0.249399	-0.402211
39357	-7.752280	12.709187	2.591301	0.722503	0.525428	0.237358	-0.381544
39358	-8.338959	12.191702	2.998308	0.735648	0.529967	0.224945	-0.356872
39359	-9.494770	10.543122	3.047379	0.749124	0.533536	0.211066	-0.331064
39360	-9.569524	9.237847	2.558956	0.760019	0.538297	0.195204	-0.307412
39361	-8.573513	9.636904	1.943796	0.767303	0.545721	0.178172	-0.285815
39362	-7.388548	11.174300	2.087627	0.772772	0.554429	0.161747	-0.263192
39363	-8.207011	12.021106	2.983956	0.779293	0.561307	0.146711	-0.236882
39364	-9.439837	11.352303	3.284428	0.787798	0.564477	0.131627	-0.208362
39365	-9.672755	9.718750	2.962670	0.796085	0.565818	0.115007	-0.181306
39366	-8.702425	8.674422	2.520462	0.801656	0.568469	0.097275	-0.157252
39367	-7.330522	8.974693	2.280008	0.804544	0.572903	0.080175	-0.134402
39368	-6.781700	10.164706	2.942274	0.807111	0.576416	0.064635	-0.110176
39369	-7.565956	10.447075	3.500791	0.810916	0.576897	0.049402	-0.084643
39370	-7.482458	9.571717	3.484831	0.815037	0.575312	0.033325	-0.060164
39371	-6.931256	8.167706	3.073577	0.817100	0.574957	0.016302	-0.038806
39372	-5.642147	8.025377	2.802847	0.816310	0.577245	-0.000842	-0.020618
39373	-4.639682	8.927363	2.594391	0.814220	0.580288	-0.017095	-0.004408
39374	-3.914129	9.625833	2.508654	0.812522	0.581920	-0.032310	0.011554
39375	-3.673588	9.356408	2.404991	0.811879	0.581249	-0.047086	0.028020
39376	-3.467862	8.274685	2.297464	0.811497	0.579388	-0.061972	0.044055
39377	-2.990395	7.097479	2.145312	0.810320	0.577980	-0.076615	0.058743
39378	-2.131586	6.548639	2.133161	0.807864	0.577953	-0.090426	0.071760
39379	-1.652301	6.745827	2.046420	0.804207	0.579555	-0.102787	0.082475
39380	-0.918673	7.294402	2.004878	0.800096	0.581822	-0.114040	0.091238
39381	-0.287357	7.716601	1.962419	0.796734	0.582965	-0.124687	0.099098
39382	0.102577	7.407363	2.061734	0.794091	0.582752	-0.135214	0.107408
39383	0.312055	7.337546	2.252189	0.791873	0.581601	-0.145798	0.115844
39384	0.471727	6.558372	2.262219	0.789637	0.580455	-0.156387	0.122834
39385	0.971959	6.015879	2.047548	0.786419	0.581036	-0.166341	0.127568
39386	1.604472	6.149741	1.897989	0.782123	0.583546	-0.175519	0.130193
39387	2.519880	6.554372	1.941867	0.777715	0.586415	-0.184013	0.131970
39388	3.280659	6.765286	1.788633	0.774362	0.587878	-0.191911	0.133913
39389	3.573358	6.138062	1.451692	0.772289	0.587685	-0.199174	0.136106
39390	3.895814	5.407068	1.282579	0.770396	0.587407	-0.205914	0.137996
39391	4.553014	5.562441	1.307380	0.768239	0.587671	-0.212043	0.139605
39392	5.207157	6.375414	1.332168	0.766538	0.587770	-0.217139	0.140697
39393	5.439817	6.780075	1.410402	0.766052	0.586857	-0.220980	0.141178
39394	5.125952	6.670852	1.430838	0.766489	0.585273	-0.223757	0.141009
39395	4.826112	6.188062	1.480829	0.767124	0.583799	-0.225929	0.140199
39396	4.663868	5.708287	1.516868	0.767473	0.583116	-0.227387	0.138767
39397	4.603102	5.309586	1.383678	0.767618	0.583306	-0.227666	0.136694
39398	4.503496	4.823377	0.977465	0.767932	0.584135	-0.226408	0.133442
39399	4.631384	4.597591	0.750334	0.768936	0.585136	-0.222936	0.129046
39400	4.620029	4.907303	0.867287	0.771539	0.585207	-0.216630	0.123818
39401	3.658440	5.913209	1.438802	0.776320	0.583336	-0.207601	0.118102
39402	2.258011	6.785100	2.194140	0.782810	0.579748	-0.196597	0.111576
39403	0.928011	7.543794	3.142322	0.789454	0.576204	-0.183979	0.104422
39404	-0.682365	8.331829	3.764014	0.795742	0.573361	-0.169823	0.095983
39405	-2.251367	8.808848	3.734572	0.801554	0.571623	-0.153601	0.084649
39406	-2.823779	8.542807	3.576243	0.806829	0.570994	-0.134349	0.070303
39407	-3.769009	8.873260	3.427395	0.811121	0.571635	-0.111504	0.053695
39408	-4.577990	8.874891	3.537577	0.813962	0.573195	-0.087050	0.036533
39409	-5.271437	9.339319	3.756568	0.816066	0.574064	-0.063817	0.020367
39410	-5.725792	9.036091	3.510861	0.818716	0.572603	-0.042603	0.003886
39411	-6.010772	8.145022	3.150219	0.821160	0.570127	-0.020716	-0.014887
39412	-6.426046	8.196010	3.276898	0.821853	0.568521	0.004486	-0.036351
39413	-6.879957	8.858448	3.418152	0.820130	0.568144	0.033609	-0.058904
39414	-7.901797	9.347778	3.865396	0.816737	0.567873	0.063795	-0.079947
39415	-8.511509	10.278742	4.712431	0.813499	0.565810	0.092064	-0.097990
39416	-9.250533	11.602370	5.274408	0.812945	0.558866	0.117683	-0.113754
39417	-9.344159	10.322060	5.226033	0.814082	0.548373	0.140940	-0.129207
39418	-8.890112	8.633747	4.935515	0.814143	0.538089	0.162307	-0.145901
39419	-8.668228	8.073717	4.706979	0.810110	0.531832	0.183366	-0.165086
39420	-8.440202	8.840850	4.788099	0.802578	0.528269	0.205142	-0.186325
39421	-8.728049	9.863363	4.927973	0.793789	0.525400	0.226137	-0.206680
39422	-9.046209	10.535473	4.995673	0.786428	0.521188	0.244075	-0.224324
39423	-8.676541	10.341936	4.861821	0.781066	0.515210	0.258651	-0.239988
39424	-7.762795	8.989805	4.590773	0.776345	0.508598	0.271122	-0.255165
39425	-7.149716	7.792254	4.166603	0.769685	0.503920	0.282819	-0.271409
39426	-7.299836	7.716458	3.784447	0.760489	0.501735	0.293827	-0.289108
39427	-7.692908	7.680823	3.328735	0.749533	0.501107	0.303393	-0.308295
39428	-7.623867	8.285010	2.976417	0.737895	0.501088	0.310910	-0.328262
39429	-7.151102	8.704688	2.861185	0.726959	0.500510	0.316682	-0.347467
39430	-6.384904	8.806053	2.690262	0.717050	0.499399	0.321927	-0.364421
39431	-6.510185	8.632924	2.580136	0.707641	0.498384	0.327238	-0.379174
39432	-7.001635	8.456275	2.699534	0.698482	0.497334	0.332318	-0.392870
39433	-7.019799	7.879294	2.761855	0.689340	0.496586	0.336384	-0.406274
39434	-6.664179	7.661902	2.721191	0.680322	0.496307	0.338682	-0.419685
39435	-5.964927	7.007788	2.635614	0.671127	0.496667	0.339251	-0.433382
39436	-5.125578	7.236665	2.616816	0.661509	0.497747	0.339213	-0.446753
39437	-4.932424	7.565501	2.662662	0.652099	0.498848	0.339594	-0.458905
39438	-5.041624	8.130096	2.765000	0.643930	0.499242	0.340441	-0.469267
39439	-4.773457	7.904165	2.944102	0.637479	0.498977	0.341326	-0.477639
39440	-4.542529	7.354119	3.237862	0.631654	0.499222	0.341663	-0.484827
39441	-4.206894	6.822859	3.403029	0.626036	0.500122	0.340768	-0.491767
39442	-3.763821	6.738387	3.352339	0.620923	0.501264	0.338903	-0.498332
39443	-3.314975	6.607871	3.374711	0.616312	0.502246	0.337169	-0.504208
39444	-3.889913	7.099211	3.557021	0.611509	0.502939	0.336753	-0.509614
39445	-4.743804	7.400055	3.950189	0.606595	0.503242	0.337711	-0.514530
39446	-5.639477	7.700099	4.192686	0.602367	0.503656	0.338623	-0.518478
39447	-6.133067	8.469467	4.326621	0.599530	0.504037	0.338980	-0.521156
39448	-6.884988	8.888491	4.250295	0.598391	0.503586	0.339364	-0.522649
39449	-8.369196	9.410906	4.124106	0.598060	0.502529	0.340487	-0.523313
39450	-9.403111	9.244955	3.835706	0.598011	0.502173	0.341660	-0.522948
39451	-9.102498	8.613835	3.720604	0.598712	0.503929	0.341638	-0.520463
39452	-8.148471	8.621163	3.666925	0.601320	0.507265	0.340220	-0.515119
39453	-6.633179	8.558635	3.807683	0.607495	0.509500	0.338537	-0.506707
39454	-6.074059	8.480242	4.198291	0.617044	0.509884	0.337156	-0.495581
39455	-7.193026	8.163222	4.017727	0.629183	0.508433	0.334216	-0.483657
39456	-7.998019	7.958337	3.414381	0.641838	0.506277	0.327640	-0.473687
39457	-7.769099	9.118628	3.114186	0.654077	0.504796	0.318447	-0.464711
39458	-7.042089	9.428791	2.732967	0.666382	0.505639	0.307994	-0.453215
39459	-7.194156	10.872299	3.038961	0.679600	0.509276	0.296870	-0.436635
39460	-9.032521	11.311348	3.849250	0.694461	0.513196	0.285410	-0.415806
39461	-11.442887	10.881077	3.638177	0.710165	0.515874	0.271716	-0.394601
39462	-12.270327	10.608995	2.584402	0.724973	0.517815	0.253734	-0.376699
39463	-11.294229	11.475338	1.842016	0.737783	0.520559	0.233121	-0.361040
39464	-10.677424	12.785803	2.023512	0.749163	0.524980	0.212766	-0.343340
39465	-11.607540	13.038758	2.725266	0.761005	0.529396	0.193957	-0.320923
39466	-12.646380	12.980418	3.139555	0.774065	0.532128	0.175600	-0.294664
39467	-13.235214	11.585383	3.113045	0.787522	0.532604	0.156273	-0.267809
39468	-12.547257	9.772614	2.737045	0.799169	0.533040	0.135570	-0.242525
39469	-11.240648	9.597351	2.817714	0.807834	0.535123	0.114266	-0.219066
39470	-10.309622	10.075938	2.908188	0.814421	0.537806	0.094530	-0.196333
39471	-9.683152	10.222396	2.788060	0.820113	0.539933	0.076374	-0.173363
39472	-9.009712	9.894476	2.547391	0.825314	0.541212	0.058577	-0.150049
39473	-7.981188	9.125530	2.243433	0.829738	0.542060	0.040427	-0.126771
39474	-6.881954	8.301502	2.338959	0.832485	0.543707	0.022762	-0.104082
39475	-6.075542	8.661846	2.842955	0.833902	0.545742	0.006508	-0.082040
39476	-5.754078	9.257302	3.597138	0.835302	0.546473	-0.008296	-0.059743
39477	-6.010722	9.008255	3.669900	0.836972	0.545468	-0.023283	-0.037415
39478	-5.851770	7.412805	3.419446	0.837711	0.544347	-0.040421	-0.017118
39479	-4.557432	6.315409	3.064611	0.836214	0.545205	-0.059142	0.000198
39480	-3.211895	6.136900	2.559987	0.832623	0.548198	-0.077314	0.015502
39481	-2.658157	6.656405	2.428970	0.828418	0.551417	-0.093638	0.029908
39482	-2.985095	6.634072	2.310686	0.824796	0.553101	-0.109021	0.043641
39483	-2.979821	6.282782	2.175946	0.821324	0.553973	-0.124086	0.056074
39484	-2.700676	5.716560	1.938408	0.817400	0.555126	-0.138589	0.066971
39485	-2.215560	5.460447	1.674076	0.812582	0.557421	-0.152172	0.076397
39486	-1.370255	5.622141	1.594107	0.807338	0.560457	-0.164060	0.084715
39487	-0.777229	5.791597	1.750988	0.802734	0.562863	-0.174000	0.092346
39488	-0.538439	5.344138	1.827565	0.799114	0.564029	-0.182900	0.099172
39489	-0.081146	4.671718	1.739839	0.795926	0.564753	-0.191078	0.105096
39490	0.504989	4.450250	1.624757	0.793024	0.565636	-0.197873	0.109616
39491	1.024383	4.366086	1.542088	0.790411	0.566950	-0.202587	0.113030
39492	1.247662	4.504119	1.547789	0.788094	0.568748	-0.205175	0.115484
39493	1.637344	5.108259	1.731271	0.785980	0.571087	-0.205841	0.117150
39494	2.058006	5.958297	2.161174	0.784685	0.572849	-0.205385	0.118026
39495	2.574106	6.711575	2.603860	0.784839	0.572879	-0.204529	0.118345
39496	2.850401	6.993774	2.903636	0.786210	0.571462	-0.203444	0.117969
39497	2.831761	7.394932	3.157618	0.788103	0.569934	-0.201206	0.116556
39498	2.573654	8.223738	3.475041	0.789841	0.569453	-0.197285	0.113809
39499	2.562648	9.412950	4.086408	0.791135	0.570227	-0.191747	0.110362
39500	2.271877	10.565462	4.843688	0.792259	0.571247	-0.185814	0.107123
39501	2.138464	11.026624	5.608582	0.793893	0.571046	-0.180952	0.104387
39502	1.997294	10.605271	5.978018	0.796185	0.569480	-0.177247	0.101811
39503	1.816858	10.120920	6.120837	0.798896	0.567271	-0.173822	0.098763
39504	1.382739	10.131116	6.101364	0.801767	0.565095	-0.170083	0.094388
39505	1.138966	9.994650	5.994624	0.804299	0.563725	-0.165832	0.088414
39506	0.857071	10.677598	5.964117	0.805570	0.564048	-0.161839	0.081949
39507	0.480117	11.589108	6.054070	0.806040	0.564828	-0.159527	0.076289
39508	-0.399190	12.090674	5.903935	0.806860	0.564154	-0.160057	0.071332
39509	-0.612590	10.976537	5.425183	0.808324	0.561927	-0.162803	0.065916
39510	-0.223434	9.985018	5.135004	0.809347	0.560326	-0.165756	0.059302
39511	0.144712	9.751930	5.197735	0.809811	0.559674	-0.168309	0.051414
39512	0.319047	9.452211	4.948064	0.809663	0.559711	-0.171359	0.042481
39513	0.343524	8.739064	4.230849	0.808644	0.560491	-0.175791	0.032286
39514	0.741757	8.423428	3.443535	0.806742	0.561960	-0.181422	0.021302
39515	1.612889	8.789879	3.220543	0.804973	0.563009	-0.186895	0.010479
39516	2.374052	8.613800	3.464669	0.804843	0.561817	-0.191281	0.000992
39517	2.205200	7.658115	3.364104	0.805588	0.559195	-0.195638	-0.007449
39518	2.344831	6.629169	2.764240	0.805600	0.557214	-0.200631	-0.016376
39519	2.876068	6.575403	1.958021	0.804167	0.557026	-0.205764	-0.026442
39520	3.636543	7.489129	1.316254	0.802223	0.557627	-0.210051	-0.036985
39521	3.900410	8.302470	0.805324	0.801204	0.557393	-0.212574	-0.046865
39522	3.515575	8.782131	0.458287	0.801126	0.556167	-0.213948	-0.055689
39523	3.360947	9.003390	0.253040	0.801234	0.554682	-0.215116	-0.063848
39524	3.748356	9.561602	0.111696	0.801032	0.553686	-0.216069	-0.071371
39525	4.227455	10.029309	0.056284	0.800595	0.553386	-0.216160	-0.078019
39526	4.376470	10.830624	0.218521	0.800301	0.553366	-0.215404	-0.083096
39527	4.056481	10.888988	0.428939	0.800605	0.552712	-0.214610	-0.086513
39528	4.093040	10.134151	0.576830	0.801035	0.551897	-0.214272	-0.088542
39529	4.158316	9.680956	0.789170	0.800989	0.551794	-0.214211	-0.089744
39530	4.229341	9.530674	0.984100	0.800363	0.552530	-0.214382	-0.090388
39531	4.208577	9.693515	1.188140	0.799521	0.553596	-0.214753	-0.090434
39532	4.084130	9.721359	1.355189	0.798851	0.554567	-0.214962	-0.089912
39533	3.704630	9.813219	1.438408	0.798368	0.555445	-0.215040	-0.088582
39534	3.537404	9.955631	1.476004	0.798203	0.556066	-0.214866	-0.086577
39535	3.303609	9.883685	1.635095	0.798236	0.556650	-0.214171	-0.084207
39536	2.951043	9.956712	1.780198	0.798302	0.557400	-0.213012	-0.081517
39537	2.785910	9.869313	1.903809	0.798363	0.558328	-0.211455	-0.078573
39538	2.654908	9.880146	2.029536	0.798459	0.559408	-0.209416	-0.075299
39539	2.521657	9.955378	2.013140	0.798773	0.560360	-0.206904	-0.071760
39540	2.593497	10.009292	2.061184	0.799528	0.560856	-0.203886	-0.068018
39541	2.469491	9.864302	2.190075	0.800535	0.561212	-0.200275	-0.063836
39542	2.151252	9.898098	2.279249	0.801436	0.561721	-0.196595	-0.059320
39543	2.090142	9.881628	2.341203	0.802121	0.562500	-0.192911	-0.054607
39544	1.905935	10.098715	2.365976	0.802529	0.563692	-0.189027	-0.049672
39545	1.805977	10.317061	2.441618	0.803070	0.564772	-0.184793	-0.044293
39546	1.582289	10.185156	2.483285	0.803937	0.565366	-0.180518	-0.038200
39547	1.739489	9.837005	2.687323	0.805169	0.565384	-0.176192	-0.031613
39548	1.753471	9.096976	2.928777	0.806362	0.565444	-0.171603	-0.024615
39549	1.769542	8.914001	3.250451	0.807146	0.565941	-0.167094	-0.017476
39550	1.922100	8.810589	3.603100	0.807874	0.566275	-0.162987	-0.010376
39551	2.121573	8.525536	3.657952	0.808729	0.566212	-0.159218	-0.003424
39552	2.138585	8.109035	3.604813	0.809377	0.566318	-0.155509	0.003101
39553	2.008760	7.934594	3.454531	0.809314	0.567272	-0.152090	0.009106
39554	1.998004	8.119465	3.228445	0.808517	0.569060	-0.149186	0.014677
39555	2.092280	8.577214	3.098887	0.807512	0.570967	-0.146728	0.019785
39556	2.262463	8.861543	3.013455	0.806885	0.572252	-0.144436	0.024539
39557	2.261458	9.086222	2.944752	0.806623	0.573007	-0.142034	0.029126
39558	2.188211	9.050023	2.967956	0.806520	0.573525	-0.139571	0.033377
39559	2.142902	8.877737	2.987840	0.806295	0.574222	-0.137016	0.037201
39560	2.155744	8.942019	2.982252	0.805720	0.575399	-0.134457	0.040645
39561	2.264097	9.174745	3.027247	0.805030	0.576735	-0.131872	0.043732
39562	2.418605	9.396169	3.059530	0.804267	0.578226	-0.128990	0.046593
39563	2.355744	9.508460	3.171469	0.803614	0.579554	-0.125975	0.049518
39564	2.250268	9.639963	3.185807	0.803260	0.580345	-0.123369	0.052479
39565	2.546564	9.364241	3.230316	0.803338	0.580451	-0.120992	0.055559
39566	2.667726	9.082114	3.204078	0.803576	0.580296	-0.118533	0.058924
39567	2.694746	9.075703	3.200571	0.803878	0.580043	-0.115979	0.062284
39568	2.670289	8.909001	3.159535	0.804353	0.579545	-0.113386	0.065473
39569	2.610808	8.760848	3.068716	0.804837	0.579008	-0.110717	0.068771
39570	2.530944	8.831719	3.040452	0.805435	0.578285	-0.108064	0.071992
39571	2.556044	8.976625	3.208238	0.806361	0.577059	-0.105403	0.075334
39572	2.408956	8.844735	3.300756	0.807418	0.575584	-0.102885	0.078709
39573	2.241976	8.914268	3.441850	0.808478	0.573996	-0.100912	0.081907
39574	2.204770	8.767961	3.548474	0.809547	0.572273	-0.099655	0.084896
39575	2.063351	8.738413	3.719606	0.810555	0.570626	-0.098716	0.087421
39576	1.822676	8.825527	3.774230	0.811383	0.569358	-0.097886	0.088928
39577	1.746811	8.877794	3.878690	0.811926	0.568614	-0.097134	0.089551
39578	1.568176	9.167283	4.079634	0.812214	0.568243	-0.096489	0.089992
39579	1.380273	9.155614	4.266501	0.812294	0.568085	-0.096330	0.090433
39580	1.261212	9.059072	4.364575	0.812122	0.568173	-0.097018	0.090685
39581	1.367708	8.739381	4.457624	0.811960	0.568193	-0.098240	0.090696
39582	1.231783	8.469908	4.522396	0.811986	0.567970	-0.099593	0.090386
39583	1.279798	8.336442	4.629810	0.812426	0.567279	-0.100841	0.089384
39584	1.237809	8.232770	4.780938	0.813125	0.566369	-0.101827	0.087668
39585	1.007821	8.437401	4.848619	0.813691	0.565735	-0.102925	0.085189
39586	0.806863	8.713136	4.875533	0.814001	0.565457	-0.104710	0.081833
39587	0.973202	8.869910	4.766005	0.814257	0.565144	-0.107395	0.077873
39588	1.285953	8.558478	4.641502	0.814694	0.564497	-0.110506	0.073519
39589	1.497594	8.207004	4.448916	0.815303	0.563580	-0.113661	0.068838
39590	1.583702	7.893157	4.375879	0.816195	0.562263	-0.116818	0.063560
39591	1.545847	7.838848	4.261325	0.817319	0.560610	-0.120137	0.057216
39592	1.695606	7.653980	3.950736	0.818462	0.558860	-0.123700	0.049931
39593	1.943036	7.703095	3.529820	0.819386	0.557369	-0.127280	0.041789
39594	2.307291	7.804225	3.078149	0.820169	0.556115	-0.130246	0.033101
39595	2.382061	8.520347	2.458827	0.820888	0.554948	-0.132587	0.024407
39596	2.645540	9.339239	1.987625	0.821940	0.553178	-0.134727	0.016076
39597	3.298529	9.897765	1.821740	0.823413	0.550671	-0.136658	0.008740
39598	3.715201	10.107129	1.832266	0.825032	0.547952	-0.138074	0.002702
39599	3.819234	10.136404	1.893175	0.826438	0.545566	-0.139118	-0.002107
39600	3.806957	9.948534	2.000140	0.827589	0.543573	-0.139964	-0.005875
39601	3.455733	9.637045	2.132570	0.828395	0.542179	-0.140446	-0.008862
39602	2.915383	9.451479	2.243230	0.828805	0.541508	-0.140408	-0.011744
39603	2.204552	9.522669	2.494887	0.828891	0.541319	-0.140323	-0.014956
39604	1.744841	9.372249	2.598013	0.828913	0.541151	-0.140441	-0.018314
39605	1.166456	8.903300	2.569183	0.828969	0.540934	-0.140462	-0.021708
39606	0.303522	8.189801	2.403706	0.829235	0.540490	-0.139969	-0.025474
39607	-0.542032	7.327213	2.043289	0.830040	0.539361	-0.138645	-0.029997
39608	-1.159731	6.470253	1.729447	0.831754	0.537098	-0.135814	-0.035580
39609	-1.759545	5.582223	1.433780	0.834669	0.533347	-0.130596	-0.042589
39610	-2.442431	4.439632	1.296192	0.838617	0.528240	-0.122481	-0.051793
39611	-2.774074	3.693125	1.141486	0.843138	0.522339	-0.110958	-0.063002
39612	-3.346315	2.934897	1.015237	0.847867	0.515898	-0.095701	-0.076245
39613	-3.741082	2.835755	1.067457	0.852610	0.508800	-0.076485	-0.091266
39614	-4.178740	3.169205	1.102162	0.857765	0.499899	-0.052969	-0.107397
39615	-4.558997	3.038435	1.274238	0.863318	0.488554	-0.024722	-0.124041
39616	-5.287207	3.290490	1.570487	0.868725	0.474732	0.008150	-0.140998
39617	-6.385204	4.257520	2.079425	0.873397	0.457978	0.046081	-0.159093
39618	-7.213760	4.004034	2.443496	0.876547	0.438534	0.087996	-0.177795
39619	-8.195696	3.430868	2.709509	0.877396	0.417381	0.132653	-0.195886
39620	-9.432436	1.772376	2.719501	0.875109	0.396950	0.177337	-0.212524
39621	-10.716580	0.416198	2.734807	0.868997	0.380482	0.218873	-0.228413
39622	-11.613260	-0.378874	3.021599	0.858823	0.370257	0.255356	-0.245206
39623	-12.367340	-0.395794	3.859210	0.844638	0.366209	0.287559	-0.264174
39624	-13.572361	-0.003300	4.888590	0.826622	0.366553	0.317319	-0.285735
39625	-15.529074	0.466644	6.023424	0.804789	0.369025	0.345633	-0.310924
39626	-17.765492	0.429888	6.375652	0.778768	0.372883	0.371293	-0.341498
39627	-19.854273	1.555075	6.253918	0.748438	0.378570	0.391352	-0.378640
39628	-21.014104	3.655991	5.499741	0.714417	0.385207	0.403241	-0.422635
39629	-21.061291	5.954614	4.455734	0.677325	0.392637	0.405731	-0.471646
39630	-20.034606	7.597573	3.165372	0.638052	0.400643	0.399255	-0.522465
39631	-16.865154	11.514809	3.928663	0.595325	0.412894	0.383232	-0.572922
39632	-12.526757	16.360864	3.259278	0.559451	0.423013	0.369956	-0.609268
39633	-11.578818	14.003291	3.988230	0.535444	0.431397	0.362258	-0.629257
39634	-10.713150	11.483882	4.041484	0.522692	0.439748	0.356833	-0.637248
39635	-10.644202	8.825172	4.105595	0.518972	0.446990	0.352280	-0.637782
39636	-9.941258	6.651573	4.204188	0.519855	0.452696	0.347373	-0.635728
39637	-9.271661	5.205697	4.209900	0.521562	0.456749	0.341179	-0.634783
39638	-8.733709	3.874147	3.883604	0.521417	0.459605	0.332873	-0.637246
39639	-8.571529	3.081243	3.443980	0.518007	0.462451	0.321259	-0.643895
39640	-8.425397	3.205307	3.026567	0.511369	0.466178	0.305537	-0.654085
39641	-8.622811	3.424840	2.601067	0.502579	0.471250	0.285822	-0.666065
39642	-9.024510	3.639577	2.182109	0.492628	0.477606	0.262677	-0.678388
39643	-9.429147	3.854481	1.783293	0.481999	0.484831	0.236907	-0.690283
39644	-9.855545	3.835655	1.510853	0.470716	0.492409	0.209442	-0.701494
39645	-9.854022	3.971954	1.379185	0.459038	0.499905	0.180886	-0.711800
39646	-9.190917	4.432268	1.636618	0.447600	0.506784	0.152688	-0.720771
39647	-8.295680	5.117047	2.328026	0.437650	0.512958	0.127161	-0.727438
39648	-7.799317	5.302420	3.314406	0.430397	0.518028	0.106244	-0.731517
39649	-7.796727	4.968974	3.763195	0.426181	0.521747	0.090165	-0.733498
39650	-7.847033	3.801232	4.044082	0.424201	0.524037	0.077519	-0.734459
39651	-7.489617	3.059371	4.202399	0.423015	0.525553	0.066382	-0.735150
39652	-6.866295	2.669613	4.572993	0.421536	0.526744	0.055910	-0.736018
39653	-6.159346	2.687074	4.793185	0.419426	0.527925	0.046551	-0.737028
39654	-6.005798	2.711174	4.857288	0.416660	0.529233	0.039178	-0.738087
39655	-6.233248	2.944120	4.878733	0.413272	0.530459	0.033972	-0.739368
39656	-6.677272	3.425928	5.049829	0.409538	0.531204	0.031619	-0.741013
39657	-7.077670	3.701534	5.190856	0.405894	0.531175	0.032509	-0.742998
39658	-7.290599	3.774276	5.328117	0.402051	0.530732	0.036162	-0.745232
39659	-7.424237	3.959779	5.365677	0.398012	0.530173	0.041598	-0.747510
39660	-7.521636	3.979234	5.209584	0.393716	0.529947	0.047449	-0.749595
39661	-7.804260	4.342709	5.183339	0.389132	0.530232	0.052656	-0.751437
39662	-8.236502	4.793477	5.251613	0.384659	0.530494	0.057120	-0.753227
39663	-8.645510	4.931586	5.076085	0.380767	0.530149	0.060700	-0.755165
39664	-8.837797	5.043942	4.796452	0.377760	0.529031	0.063044	-0.757264
39665	-8.746318	5.038710	4.473776	0.375716	0.527417	0.063905	-0.759332
39666	-8.873783	5.119033	4.313273	0.374485	0.525362	0.063420	-0.761403
39667	-8.685243	5.076510	4.273827	0.374251	0.522832	0.061892	-0.763383
39668	-9.008288	5.124824	4.098112	0.375808	0.519477	0.058869	-0.765144
39669	-8.948768	5.218858	4.174730	0.380199	0.514696	0.053895	-0.766572
39670	-8.734977	4.892019	4.291715	0.386694	0.508633	0.047537	-0.767789
39671	-8.245510	4.182519	4.099499	0.392872	0.502345	0.040469	-0.769197
39672	-7.796442	3.162114	3.906910	0.396593	0.497571	0.032572	-0.770763
39673	-7.480288	2.794134	3.739982	0.397316	0.495568	0.023182	-0.772020
39674	-7.236444	3.109496	3.810597	0.396064	0.496043	0.013298	-0.772591
39675	-7.227303	3.413887	3.859473	0.394005	0.498036	0.004535	-0.772463
39676	-7.543348	3.345399	3.821716	0.391867	0.500203	-0.002607	-0.772160
39677	-7.805321	2.971577	3.901064	0.390113	0.501561	-0.008602	-0.772124
39678	-7.743521	2.859598	4.024863	0.388637	0.502339	-0.014115	-0.772281
39679	-7.649619	2.887088	4.219058	0.387328	0.502670	-0.019238	-0.772612
39680	-7.522119	2.608271	4.210731	0.385598	0.503110	-0.023777	-0.773065
39681	-7.729574	2.386405	4.285928	0.383183	0.503878	-0.028152	-0.773618
39682	-8.014332	2.334055	4.354079	0.379991	0.504467	-0.032566	-0.774635
39683	-7.811005	2.497754	4.747179	0.376338	0.504570	-0.036545	-0.776172
39684	-7.779335	2.513023	4.940350	0.372388	0.504648	-0.039448	-0.777883
39685	-7.921090	2.511766	5.020047	0.368086	0.504259	-0.041753	-0.780059
39686	-7.724169	2.501976	5.000540	0.363349	0.503278	-0.043762	-0.782798
39687	-6.847383	2.525524	5.187113	0.358232	0.502920	-0.045060	-0.785310
39688	-6.499814	3.039765	5.624397	0.353414	0.503713	-0.044714	-0.787002
39689	-6.970165	3.254658	5.744205	0.349291	0.504533	-0.042381	-0.788445
39690	-7.326864	3.136527	5.794207	0.345602	0.504457	-0.038645	-0.790310
39691	-7.746226	3.225879	5.924631	0.341880	0.503139	-0.034495	-0.792956
39692	-7.816890	3.463077	6.373309	0.338118	0.500126	-0.029948	-0.796652
39693	-7.652527	3.207444	6.414731	0.334220	0.495485	-0.025158	-0.801348
39694	-7.163035	2.673807	6.150136	0.329524	0.490493	-0.020996	-0.806467
39695	-7.147617	2.279275	5.934207	0.323423	0.486457	-0.018657	-0.811424
39696	-7.886977	3.191915	5.922294	0.316604	0.482310	-0.017543	-0.816597
39697	-8.560904	4.708499	6.248625	0.311650	0.475808	-0.015596	-0.822337
39698	-8.600435	5.581367	6.384799	0.311949	0.464554	-0.010351	-0.828716
39699	-7.777010	5.025607	6.363569	0.317450	0.449837	-0.000909	-0.834788
39700	-6.994262	3.389370	6.053222	0.324738	0.434722	0.010367	-0.839914
39701	-6.434036	1.777845	5.967468	0.330153	0.421908	0.019955	-0.844153
39702	-6.697711	1.197234	6.095021	0.333064	0.411729	0.026133	-0.847859
39703	-6.564632	1.652442	6.747480	0.334598	0.403429	0.029994	-0.851111
39704	-6.577465	2.740747	6.969571	0.337386	0.395502	0.034947	-0.853538
39705	-6.633860	2.559506	6.829304	0.341638	0.387228	0.042622	-0.855290
39706	-6.212634	1.420517	6.670022	0.345244	0.379662	0.051629	-0.856737
39707	-5.643139	0.842771	6.754643	0.346614	0.374496	0.059510	-0.857945
39708	-5.664956	1.557673	6.887286	0.346963	0.371419	0.067052	-0.858585
39709	-5.926493	1.912574	7.333601	0.347847	0.369372	0.075253	-0.858431
39710	-6.286936	1.846489	7.564482	0.349517	0.367510	0.083733	-0.857766
39711	-6.635111	1.800828	7.806663	0.351646	0.365054	0.090856	-0.857220
39712	-6.253645	1.715573	7.947262	0.354166	0.361681	0.096396	-0.857007
39713	-6.065722	1.600955	7.689820	0.356616	0.358218	0.100817	-0.856937
39714	-5.787834	1.598295	7.549932	0.359477	0.355016	0.104884	-0.856586
39715	-5.477188	1.258127	7.651357	0.362940	0.352379	0.109124	-0.855684
39716	-5.656149	1.150352	7.793446	0.366610	0.349961	0.113597	-0.854529
39717	-6.575652	1.010562	7.799500	0.369733	0.347466	0.117764	-0.853637
39718	-7.239286	1.136881	7.750118	0.372614	0.344547	0.121222	-0.853083
39719	-7.386364	1.124502	7.623346	0.376226	0.341321	0.124291	-0.852353
39720	-6.949107	1.260756	7.636387	0.381463	0.337352	0.127796	-0.851086
39721	-6.283587	0.634603	7.497282	0.387863	0.333387	0.131998	-0.849112
39722	-5.955823	0.318879	7.526720	0.394469	0.329826	0.136432	-0.846755
39723	-6.088200	0.480820	7.554190	0.400668	0.326318	0.141381	-0.844389
39724	-6.175827	0.435053	7.429948	0.406538	0.322093	0.146703	-0.842295
39725	-6.253879	0.017218	7.280042	0.412095	0.317170	0.151369	-0.840635
39726	-6.600933	0.079931	7.282282	0.417612	0.311392	0.154838	-0.839441
39727	-6.490628	0.433740	7.463599	0.423513	0.304485	0.157934	-0.838441
39728	-6.655906	0.825610	7.276660	0.430699	0.296061	0.162174	-0.836986
39729	-6.049454	-0.378875	7.014113	0.437933	0.287745	0.166307	-0.835320
39730	-6.020012	-0.108482	6.836566	0.443807	0.281231	0.168726	-0.833952
39731	-5.758430	0.288279	6.913534	0.448647	0.275956	0.170619	-0.832739
39732	-5.937684	0.389225	6.971328	0.453907	0.271348	0.172902	-0.830929
39733	-5.958877	0.316990	7.111030	0.460703	0.266801	0.175846	-0.828039
39734	-6.037383	-0.412678	7.082154	0.468442	0.262160	0.179759	-0.824331
39735	-6.043999	-1.343082	7.053036	0.475187	0.258258	0.183143	-0.820950
39736	-6.088922	-1.451825	7.062148	0.479847	0.255266	0.185458	-0.818652
39737	-5.936714	-0.860310	7.290943	0.482356	0.253101	0.187544	-0.817374
39738	-6.166414	-0.404319	7.531776	0.483443	0.251451	0.189751	-0.816731
39739	-6.646368	0.049997	7.579507	0.484587	0.249539	0.191964	-0.816122
39740	-6.520116	0.152536	7.672293	0.487219	0.246755	0.193858	-0.814953
39741	-5.839651	0.020061	7.576773	0.491395	0.243630	0.195758	-0.812929
39742	-5.504746	-0.833378	7.364333	0.495848	0.241123	0.197406	-0.810571
39743	-5.374389	-1.537017	7.404273	0.498909	0.239914	0.198116	-0.808876
39744	-5.588404	-1.495321	7.555784	0.499390	0.240063	0.197530	-0.808679
39745	-5.983293	-0.882041	7.760760	0.497682	0.240369	0.196004	-0.810011
39746	-6.222524	-0.112313	7.931478	0.495567	0.240171	0.194005	-0.811846
39747	-6.492442	0.478292	7.990112	0.494732	0.239172	0.192213	-0.813075
39748	-6.711709	0.725585	7.931108	0.495486	0.237445	0.191252	-0.813348
39749	-6.633354	-0.046982	7.917122	0.497045	0.236206	0.190581	-0.812915
39750	-6.388301	-0.545704	7.972578	0.498640	0.236100	0.189577	-0.812204
39751	-6.280939	-0.590948	8.128849	0.499917	0.236462	0.188497	-0.811565
39752	-6.188723	-0.676435	8.214006	0.500901	0.236568	0.187763	-0.811097
39753	-6.349692	-0.868355	8.244036	0.501705	0.236448	0.186943	-0.810825
39754	-6.930902	-0.558988	8.165733	0.502899	0.235720	0.186137	-0.810483
39755	-6.447990	-0.786116	8.274754	0.504373	0.234331	0.185330	-0.810154
39756	-6.266206	-1.205589	8.109508	0.504762	0.233785	0.184224	-0.810322
39757	-6.443919	-0.717724	8.139371	0.503963	0.234244	0.182378	-0.811104
39758	-6.499579	-0.273699	8.096736	0.503491	0.234372	0.180851	-0.811701
39759	-5.790048	-0.444333	8.114664	0.503751	0.233897	0.179936	-0.811881
39760	-5.374273	-0.618091	8.029589	0.503964	0.233908	0.179160	-0.811917
39761	-5.825581	-0.548166	8.047808	0.504334	0.234026	0.178133	-0.811879
39762	-5.900164	-0.465129	8.179113	0.504944	0.233076	0.177054	-0.812009
39763	-5.652859	-0.523728	8.088581	0.504931	0.231172	0.175979	-0.812795
39764	-5.428937	-0.412701	7.915884	0.503884	0.229255	0.174343	-0.814339
39765	-5.207675	-0.338779	7.909438	0.502201	0.227906	0.172431	-0.816162
39766	-5.474421	-0.255986	7.838451	0.500962	0.226948	0.170303	-0.817636
39767	-5.067900	-0.309592	7.904860	0.500220	0.225998	0.168227	-0.818782
39768	-4.979122	-0.385010	8.029806	0.499468	0.225034	0.166392	-0.819881
39769	-5.191950	-0.705779	8.122882	0.498473	0.223720	0.164313	-0.821264
