// Start Time: Unknown
// Update Rate: 60.0Hz
// Filter Profile: human (46.1)
// Option Flags: AHS Disabled ICC Disabled 
// Firmware Version: 4.3.5
PacketCounter	Acc_X	Acc_Y	Acc_Z	Quat_q0	Quat_q1	Quat_q2	Quat_q3
43442	-1.300239	0.943329	9.764006	-0.614449	-0.078960	-0.008230	0.784952
43443	-1.310743	0.834256	9.596446	-0.614419	-0.079009	-0.008491	0.784968
43444	-1.362616	0.726057	9.612504	-0.614348	-0.079202	-0.008608	0.785003
43445	-1.310986	0.792431	9.720758	-0.614201	-0.079354	-0.008733	0.785101
43446	-1.275491	0.776531	9.678096	-0.613989	-0.079620	-0.008857	0.785239
43447	-1.461736	0.732598	9.711287	-0.613790	-0.079884	-0.009069	0.785365
43448	-1.324433	0.860414	9.714422	-0.613619	-0.079966	-0.009144	0.785489
43449	-1.276400	0.847280	9.702562	-0.613468	-0.080261	-0.009142	0.785577
43450	-1.426764	0.842900	9.692663	-0.613364	-0.080503	-0.009275	0.785632
43451	-1.417395	0.892880	9.711925	-0.613194	-0.080722	-0.009350	0.785741
43452	-1.306382	0.846364	9.713153	-0.613037	-0.080943	-0.009497	0.785839
43453	-1.431772	0.770476	9.621124	-0.612916	-0.081147	-0.009612	0.785911
43454	-1.426549	0.775316	9.714947	-0.612797	-0.081363	-0.009527	0.785983
43455	-1.346960	0.978011	9.792096	-0.612710	-0.081574	-0.009413	0.786031
43456	-1.329130	0.860007	9.699902	-0.612581	-0.081819	-0.009405	0.786105
43457	-1.426218	0.827011	9.756332	-0.612437	-0.082037	-0.009428	0.786195
43458	-1.377633	0.815648	9.744579	-0.612330	-0.082258	-0.009355	0.786256
43459	-1.377106	0.977722	9.761588	-0.612271	-0.082478	-0.009284	0.786279
43460	-1.459725	0.960422	9.707262	-0.612250	-0.082719	-0.009282	0.786271
43461	-1.330889	0.872941	9.643212	-0.612210	-0.082872	-0.009224	0.786286
43462	-1.369938	0.868271	9.594071	-0.612157	-0.083112	-0.009045	0.786305
43463	-1.394168	0.904269	9.662440	-0.612146	-0.083351	-0.008935	0.786289
43464	-1.427287	0.958476	9.662939	-0.612098	-0.083436	-0.009037	0.786316
43465	-1.367357	0.847904	9.576552	-0.612040	-0.083538	-0.009195	0.786348
43466	-1.339769	0.860114	9.550198	-0.612022	-0.083829	-0.009110	0.786333
43467	-1.378224	0.976557	9.569067	-0.612025	-0.084181	-0.009022	0.786294
43468	-1.416259	1.072219	9.581484	-0.612102	-0.084486	-0.009092	0.786200
43469	-1.336687	1.075905	9.584597	-0.612195	-0.084580	-0.009494	0.786113
43470	-1.283710	0.937181	9.535739	-0.612275	-0.084682	-0.010056	0.786032
43471	-1.359077	0.906004	9.630037	-0.612378	-0.084902	-0.010724	0.785920
43472	-1.512741	0.955974	9.530015	-0.612535	-0.085367	-0.011227	0.785740
43473	-1.488445	0.762673	9.526637	-0.612738	-0.085847	-0.011542	0.785525
43474	-1.365145	0.850184	9.603874	-0.612880	-0.086662	-0.011608	0.785324
43475	-1.512534	1.108252	9.626893	-0.612972	-0.087151	-0.012240	0.785188
43476	-1.576336	0.892918	9.515232	-0.613102	-0.087426	-0.013244	0.785040
43477	-1.522342	0.857160	9.524895	-0.613155	-0.087557	-0.014654	0.784959
43478	-1.550654	0.655158	9.521845	-0.613024	-0.088062	-0.015940	0.784979
43479	-1.546924	0.571622	9.554907	-0.612829	-0.088963	-0.016837	0.785011
43480	-1.467501	0.870078	9.395176	-0.612654	-0.090164	-0.017553	0.784995
43481	-1.538178	0.943338	9.249034	-0.612472	-0.091138	-0.018859	0.784994
43482	-1.570479	0.752555	9.220199	-0.612319	-0.091920	-0.020707	0.784976
43483	-1.521618	0.710539	9.174785	-0.612012	-0.093009	-0.022767	0.785030
43484	-1.836622	0.519834	9.142119	-0.611541	-0.094651	-0.024559	0.785147
43485	-1.999551	0.667949	9.432691	-0.611143	-0.096376	-0.026142	0.785196
43486	-1.898606	0.747029	9.614241	-0.610893	-0.098225	-0.027559	0.785112
43487	-1.676280	0.777666	9.720904	-0.610764	-0.100008	-0.028791	0.784944
43488	-1.868713	0.802225	9.668172	-0.610523	-0.101843	-0.030215	0.784842
43489	-2.405632	0.715455	9.735380	-0.610277	-0.103379	-0.032147	0.784756
43490	-2.324891	0.515326	9.827775	-0.609947	-0.104517	-0.034010	0.784783
43491	-2.061005	0.309963	9.964836	-0.609376	-0.105987	-0.035488	0.784964
43492	-2.138766	0.813722	9.807649	-0.608800	-0.107529	-0.036373	0.785161
43493	-2.236777	0.825170	9.701389	-0.608362	-0.108599	-0.037856	0.785282
43494	-2.668122	0.655744	9.914355	-0.607809	-0.109604	-0.039380	0.785496
43495	-2.623637	0.542078	10.150867	-0.607433	-0.109748	-0.040944	0.785687
43496	-2.320148	0.547611	10.241821	-0.607152	-0.109893	-0.041870	0.785835
43497	-2.387979	0.757591	10.205325	-0.606693	-0.110325	-0.041733	0.786136
43498	-2.526450	0.710330	10.224556	-0.606141	-0.110383	-0.041186	0.786583
43499	-2.834545	0.749472	10.331835	-0.605625	-0.110287	-0.040245	0.787042
43500	-2.435844	0.904561	10.491389	-0.605359	-0.109364	-0.038991	0.787439
43501	-2.219841	0.745416	10.409356	-0.605316	-0.108207	-0.037338	0.787712
43502	-2.555080	0.783601	10.601249	-0.605479	-0.106209	-0.035640	0.787937
43503	-2.625233	0.585987	10.795856	-0.605608	-0.103160	-0.033967	0.788317
43504	-2.434537	0.587025	11.003085	-0.605742	-0.099272	-0.031989	0.788795
43505	-1.900678	1.139588	10.846113	-0.605852	-0.094310	-0.029841	0.789404
43506	-1.322125	1.396020	10.193418	-0.606142	-0.088199	-0.028202	0.789948
43507	-1.354941	1.022749	9.407782	-0.606615	-0.081792	-0.027131	0.790311
43508	-1.403634	0.538880	8.844166	-0.607141	-0.076206	-0.025413	0.790523
43509	-1.260359	0.255805	8.780528	-0.607656	-0.072215	-0.022389	0.790593
43510	-1.408017	0.526407	8.917679	-0.608125	-0.069634	-0.018408	0.790567
43511	-1.236972	0.880668	8.866677	-0.608659	-0.067210	-0.014759	0.790443
43512	-0.997148	0.892464	9.167266	-0.609230	-0.064427	-0.012518	0.790273
43513	-1.026132	0.738137	9.138091	-0.609957	-0.061443	-0.011379	0.789967
43514	-0.976881	0.539106	8.904481	-0.610752	-0.058643	-0.011035	0.789570
43515	-0.813123	0.295986	8.779352	-0.611497	-0.056643	-0.011001	0.789140
43516	-0.791678	0.337992	8.887293	-0.612178	-0.055205	-0.011260	0.788710
43517	-0.568113	0.366409	8.899914	-0.612807	-0.054652	-0.011423	0.788258
43518	-0.750167	0.499280	9.000254	-0.613420	-0.054682	-0.012078	0.787769
43519	-0.756237	0.560866	9.082006	-0.613996	-0.054942	-0.012875	0.787289
43520	-0.833022	0.424103	9.249233	-0.614542	-0.055820	-0.013827	0.786785
43521	-1.167267	0.434363	9.437007	-0.615096	-0.056676	-0.014716	0.786275
43522	-0.938744	0.495394	9.586288	-0.615505	-0.057234	-0.016042	0.785889
43523	-1.081804	0.371876	9.731944	-0.615767	-0.057565	-0.017932	0.785618
43524	-1.264650	0.091103	9.864973	-0.615928	-0.057968	-0.019645	0.785422
43525	-1.285798	0.168558	9.908247	-0.616002	-0.058575	-0.020874	0.785286
43526	-1.110810	0.348809	9.854129	-0.615905	-0.059484	-0.021560	0.785276
43527	-1.269022	0.586357	9.896478	-0.615542	-0.059897	-0.022417	0.785505
43528	-1.343490	0.534220	10.043953	-0.615080	-0.059914	-0.023774	0.785826
43529	-1.328191	0.376760	9.968533	-0.614545	-0.059867	-0.025025	0.786209
43530	-1.235522	0.423541	9.884754	-0.613829	-0.060063	-0.025528	0.786736
43531	-1.156791	0.744085	9.820579	-0.613017	-0.059979	-0.026190	0.787354
43532	-1.381267	0.608634	9.763813	-0.612333	-0.059435	-0.027592	0.787880
43533	-1.252150	0.784874	9.824022	-0.611775	-0.058549	-0.029233	0.788320
43534	-1.096165	0.594129	9.510748	-0.611180	-0.057904	-0.030926	0.788765
43535	-1.217043	0.662068	9.462412	-0.610433	-0.057307	-0.032493	0.789324
43536	-1.267246	0.713469	9.358198	-0.609640	-0.056910	-0.034318	0.789888
43537	-1.418892	0.557238	9.492562	-0.608976	-0.056328	-0.036399	0.790348
43538	-1.028883	0.077986	9.433168	-0.608586	-0.056300	-0.038014	0.790575
43539	-1.156300	-0.047564	9.413814	-0.608344	-0.057252	-0.038644	0.790662
43540	-1.135607	0.081023	9.369284	-0.608104	-0.058500	-0.038780	0.790748
43541	-1.208231	0.240019	9.315469	-0.607980	-0.059813	-0.039556	0.790707
43542	-1.348060	-0.100921	9.348250	-0.607927	-0.060868	-0.040985	0.790595
43543	-1.202827	-0.415532	9.199351	-0.607740	-0.062223	-0.042482	0.790554
43544	-1.187232	-0.526408	9.069340	-0.607249	-0.063629	-0.044374	0.790715
43545	-1.164758	-0.559980	8.873110	-0.606233	-0.065069	-0.046825	0.791236
43546	-1.070390	-0.753964	8.620424	-0.604714	-0.066256	-0.050158	0.792096
43547	-1.346137	-0.573811	8.494824	-0.603249	-0.067788	-0.053886	0.792837
43548	-1.566396	-0.398156	8.549398	-0.602170	-0.069157	-0.059330	0.793151
43549	-1.737369	-1.074834	8.954604	-0.600782	-0.071149	-0.065741	0.793522
43550	-2.019066	-1.133282	9.187299	-0.598346	-0.073930	-0.072066	0.794558
43551	-2.208950	-1.052189	8.999924	-0.594860	-0.076287	-0.079075	0.796285
43552	-2.304531	-1.029695	8.876923	-0.590707	-0.078084	-0.087041	0.798368
43553	-2.636402	-1.350505	8.971374	-0.586345	-0.080048	-0.095917	0.800370
43554	-2.986352	-1.906762	9.428677	-0.581883	-0.082248	-0.105604	0.802182
43555	-3.039680	-1.963967	10.015179	-0.576760	-0.085385	-0.114408	0.804343
43556	-2.943712	-1.315206	10.461098	-0.570752	-0.087585	-0.122896	0.807135
43557	-3.009114	-0.520464	10.320791	-0.564521	-0.087867	-0.133177	0.809851
43558	-3.573192	-0.251801	9.809934	-0.559076	-0.085972	-0.146749	0.811485
43559	-3.393680	-1.921378	9.370734	-0.554469	-0.082203	-0.163371	0.811860
43560	-3.169574	-2.626294	8.994000	-0.549281	-0.080395	-0.178428	0.812398
43561	-3.350956	-2.213072	9.059778	-0.543694	-0.079940	-0.192493	0.812990
43562	-3.515106	-1.690461	9.310633	-0.538190	-0.079238	-0.206479	0.813289
43563	-3.787274	-1.748013	10.115701	-0.533644	-0.077182	-0.221891	0.812423
43564	-3.940264	-2.267065	10.371066	-0.530476	-0.074110	-0.236106	0.810775
43565	-3.295185	-1.545625	10.041437	-0.527947	-0.071111	-0.247590	0.809268
43566	-3.649371	-0.537221	9.480721	-0.526088	-0.067479	-0.259912	0.806922
43567	-3.723732	-0.938711	9.145403	-0.525373	-0.061482	-0.276200	0.802444
43568	-4.568035	-1.505346	8.826944	-0.525169	-0.055878	-0.292955	0.797028
43569	-4.984749	-1.620831	8.570407	-0.525431	-0.047708	-0.312289	0.790014
43570	-4.276718	-3.378871	8.536333	-0.526269	-0.037300	-0.332019	0.781929
43571	-3.358276	-4.108295	7.900311	-0.527074	-0.028485	-0.349462	0.774117
43572	-3.541338	-3.236806	6.746365	-0.527626	-0.021482	-0.365980	0.766295
43573	-3.690055	-2.437588	5.910261	-0.527815	-0.013600	-0.384319	0.757315
43574	-3.912564	-3.648416	5.704973	-0.527133	-0.003215	-0.407080	0.745926
43575	-3.945669	-5.307028	4.602217	-0.525154	0.005535	-0.429807	0.734472
43576	-4.339249	-5.546952	2.678184	-0.521510	0.011117	-0.453286	0.722797
43577	-3.609969	-5.252064	2.261087	-0.516780	0.017052	-0.478066	0.710000
43578	-3.815836	-8.005323	3.030145	-0.510028	0.024620	-0.506207	0.694996
43579	-4.059490	-10.147092	3.415024	-0.502673	0.029714	-0.529106	0.682996
43580	-3.940250	-8.940429	2.198487	-0.494470	0.031034	-0.547283	0.674550
43581	-4.929850	-7.524292	2.359394	-0.486002	0.030302	-0.564783	0.666262
43582	-5.797005	-7.512889	2.437849	-0.476107	0.029052	-0.583727	0.657070
43583	-4.816791	-11.210586	1.165009	-0.462876	0.027816	-0.607198	0.645200
43584	-7.753075	-15.362828	3.422212	-0.448477	0.024742	-0.625151	0.638312
43585	-8.617061	-11.663229	6.682794	-0.441941	0.021745	-0.623801	0.644273
43586	-6.075707	-5.122264	7.951286	-0.439038	0.021359	-0.617894	0.651918
43587	-5.565844	-3.057815	7.388460	-0.436573	0.024567	-0.618476	0.652907
43588	-6.223915	-4.491057	5.027718	-0.433265	0.029830	-0.624905	0.648757
43589	-5.917307	-5.433509	2.794011	-0.428825	0.036574	-0.633998	0.642509
43590	-4.828095	-6.015739	1.860143	-0.423731	0.044264	-0.644018	0.635400
43591	-3.889889	-6.217282	1.622340	-0.418394	0.052537	-0.654072	0.627993
43592	-3.675256	-6.617695	0.671950	-0.412708	0.061456	-0.664205	0.620264
43593	-3.539676	-7.240599	-0.325247	-0.406610	0.070675	-0.674255	0.612416
43594	-3.514431	-8.615790	-0.848130	-0.400579	0.079594	-0.683376	0.605143
43595	-3.398722	-8.998773	-1.296119	-0.394550	0.087259	-0.690632	0.599786
43596	-3.354231	-8.777029	-1.637083	-0.388106	0.093758	-0.697378	0.595186
43597	-3.563691	-8.946116	-1.602213	-0.381181	0.099151	-0.703916	0.591077
43598	-3.553043	-9.153675	-1.451088	-0.373775	0.103890	-0.710336	0.587300
43599	-3.249942	-9.609164	-1.456450	-0.366082	0.108584	-0.717200	0.582939
43600	-3.247567	-10.507761	-1.257652	-0.358972	0.113312	-0.723642	0.578483
43601	-3.654638	-11.029250	-1.432945	-0.352739	0.117465	-0.728569	0.575296
43602	-3.778261	-10.917683	-1.757468	-0.347572	0.121255	-0.732118	0.573144
43603	-3.964456	-10.717371	-1.896085	-0.343443	0.124467	-0.734757	0.571565
43604	-4.213791	-10.594328	-2.229566	-0.340453	0.127180	-0.737441	0.569296
43605	-4.329661	-11.466833	-2.468979	-0.338993	0.129349	-0.740374	0.565861
43606	-4.248464	-12.115993	-2.650651	-0.339292	0.130473	-0.742195	0.563032
43607	-4.161617	-12.238581	-2.734190	-0.340929	0.130821	-0.742791	0.561173
43608	-3.871591	-12.234328	-2.647369	-0.343702	0.130462	-0.742276	0.560245
43609	-3.834949	-11.783327	-2.494960	-0.347400	0.129405	-0.741052	0.559830
43610	-4.080073	-11.664536	-2.659605	-0.351813	0.127750	-0.739788	0.559126
43611	-4.159959	-11.709287	-2.937812	-0.357175	0.125279	-0.738089	0.558530
43612	-4.070272	-11.752943	-2.994684	-0.363470	0.121695	-0.735406	0.558800
43613	-3.927232	-11.273956	-2.926078	-0.370704	0.116763	-0.731123	0.560718
43614	-3.882671	-10.424778	-2.541799	-0.378706	0.110900	-0.725515	0.563836
43615	-3.785016	-9.727884	-1.926590	-0.387188	0.104248	-0.718973	0.567711
43616	-3.884584	-8.945718	-1.199739	-0.396195	0.096944	-0.711624	0.572033
43617	-3.979863	-8.053666	-0.527269	-0.405536	0.089227	-0.704018	0.576140
43618	-4.210802	-7.699801	-0.038140	-0.414983	0.081459	-0.696673	0.579483
43619	-4.414298	-7.535628	0.400576	-0.424745	0.073749	-0.689336	0.582211
43620	-4.510320	-7.369068	0.621390	-0.434868	0.066180	-0.681892	0.584409
43621	-4.802135	-7.266860	0.908088	-0.445446	0.058561	-0.673906	0.586515
43622	-5.021869	-6.889731	1.162997	-0.456381	0.050746	-0.665272	0.588689
43623	-5.090856	-6.347168	1.381026	-0.467590	0.042819	-0.656126	0.590784
43624	-5.151233	-5.973612	1.599982	-0.478715	0.035038	-0.647174	0.592259
43625	-5.320463	-5.840255	1.818889	-0.489584	0.027655	-0.638552	0.593122
43626	-5.299518	-5.868911	2.002688	-0.499930	0.020799	-0.630352	0.593543
43627	-5.293301	-5.950743	2.365636	-0.509637	0.014232	-0.622362	0.593914
43628	-5.495339	-5.803741	2.750047	-0.518901	0.008000	-0.614484	0.594211
43629	-5.658656	-5.573807	2.938409	-0.527958	0.002375	-0.606931	0.594045
43630	-5.829418	-5.570648	2.976836	-0.536791	-0.002470	-0.600161	0.593007
43631	-6.011640	-5.791599	2.919534	-0.545533	-0.006901	-0.593630	0.591566
43632	-5.904675	-5.824518	2.924260	-0.554326	-0.011198	-0.586554	0.590382
43633	-5.714842	-5.714166	2.933486	-0.563131	-0.015628	-0.579025	0.589381
43634	-5.716449	-5.590135	3.141066	-0.572062	-0.020121	-0.571083	0.588391
43635	-5.833130	-5.440545	3.407318	-0.581301	-0.024699	-0.562690	0.587247
43636	-6.061896	-5.364636	3.547521	-0.590803	-0.029337	-0.553841	0.585962
43637	-6.261152	-5.348911	3.545642	-0.600251	-0.033876	-0.544799	0.584590
43638	-6.202951	-5.472132	3.579935	-0.609195	-0.038490	-0.535885	0.583290
43639	-6.150010	-5.543403	3.818264	-0.617414	-0.043478	-0.527187	0.582223
43640	-6.195102	-5.437704	4.187655	-0.625092	-0.048889	-0.518560	0.581348
43641	-6.335606	-5.146233	4.594421	-0.632394	-0.054197	-0.510171	0.580402
43642	-6.532159	-4.951277	4.948905	-0.639428	-0.059047	-0.501860	0.579467
43643	-6.675054	-4.914165	5.078274	-0.645981	-0.063249	-0.494165	0.578368
43644	-7.079504	-5.074372	5.283926	-0.651735	-0.067036	-0.487049	0.577521
43645	-7.465893	-4.977485	5.483909	-0.656625	-0.070959	-0.480449	0.577042
43646	-7.868314	-4.854012	5.664667	-0.660683	-0.074807	-0.474881	0.576533
43647	-8.139092	-5.278186	6.003994	-0.664007	-0.077738	-0.470877	0.575610
43648	-8.273283	-5.839235	6.394764	-0.666504	-0.080290	-0.467562	0.575076
43649	-8.387537	-5.812709	6.620752	-0.668130	-0.083267	-0.463778	0.575829
43650	-8.280346	-5.214185	6.864024	-0.668973	-0.086065	-0.459841	0.577594
43651	-8.033046	-4.546356	6.965692	-0.669122	-0.088084	-0.456695	0.579610
43652	-7.814055	-4.223622	7.001284	-0.668722	-0.089090	-0.454817	0.581391
43653	-7.619930	-4.033274	6.845246	-0.667878	-0.089162	-0.454213	0.582820
43654	-7.423850	-4.144459	6.790910	-0.666608	-0.088268	-0.454891	0.583881
43655	-7.375237	-4.057282	6.594334	-0.664779	-0.086998	-0.456481	0.584914
43656	-7.455167	-4.174904	6.162308	-0.662384	-0.085043	-0.459351	0.585672
43657	-7.507012	-4.297223	5.724010	-0.659490	-0.082795	-0.462984	0.586399
43658	-7.290535	-4.154492	5.311731	-0.656129	-0.080425	-0.467247	0.587117
43659	-7.095775	-4.171224	5.055998	-0.652434	-0.078109	-0.471769	0.587931
43660	-6.997231	-3.989943	4.975207	-0.648295	-0.076100	-0.476375	0.589058
43661	-6.966464	-3.737102	4.907141	-0.643707	-0.074417	-0.481057	0.590497
43662	-7.197592	-3.439394	4.908167	-0.638816	-0.072457	-0.486410	0.591666
43663	-7.557172	-3.404968	5.055875	-0.633836	-0.069977	-0.492467	0.592310
43664	-8.024580	-3.749336	5.144172	-0.628852	-0.066715	-0.499275	0.592300
43665	-8.360007	-4.351260	5.279864	-0.623845	-0.062919	-0.506308	0.592040
43666	-8.317216	-4.892616	5.525350	-0.618656	-0.058824	-0.513185	0.591985
43667	-8.325439	-5.168819	5.730563	-0.613182	-0.054443	-0.519628	0.592479
43668	-8.475938	-5.157776	5.951957	-0.607517	-0.048916	-0.525935	0.593231
43669	-8.641498	-5.089409	5.958774	-0.601700	-0.041755	-0.532482	0.593866
43670	-8.481739	-5.313924	5.732470	-0.595741	-0.032901	-0.539517	0.594081
43671	-8.080004	-5.638098	5.319489	-0.589454	-0.022816	-0.546733	0.594227
43672	-7.540004	-5.863081	4.834715	-0.582724	-0.011924	-0.553738	0.594697
43673	-7.004620	-5.853727	4.460230	-0.575601	-0.000427	-0.560307	0.595600
43674	-6.385637	-5.624339	4.048101	-0.568208	0.011522	-0.566611	0.596623
43675	-5.693772	-5.404683	3.537887	-0.560577	0.023924	-0.572972	0.597398
43676	-5.077237	-5.427633	3.071247	-0.552640	0.036675	-0.579443	0.597904
43677	-4.562540	-5.499215	2.755234	-0.544345	0.049316	-0.585761	0.598449
43678	-4.067055	-5.581057	2.611189	-0.535821	0.061366	-0.591317	0.599562
43679	-3.487648	-4.979139	2.420498	-0.527260	0.072274	-0.595849	0.601447
43680	-2.892733	-4.257301	2.205114	-0.518444	0.082659	-0.600715	0.602930
43681	-2.445730	-4.000288	2.205158	-0.509128	0.092887	-0.606938	0.603147
43682	-2.125819	-4.023641	1.994795	-0.499483	0.102891	-0.614510	0.601920
43683	-1.827278	-4.114104	1.793289	-0.489817	0.112821	-0.623299	0.599040
43684	-1.536463	-4.375645	1.378255	-0.480349	0.122428	-0.632988	0.594645
43685	-1.488626	-4.894474	0.805335	-0.471055	0.131702	-0.643678	0.588592
43686	-1.508104	-5.736127	0.346847	-0.462041	0.140263	-0.654751	0.581502
43687	-1.770706	-6.487156	-0.198944	-0.453637	0.147421	-0.665479	0.574124
43688	-1.952756	-6.702040	-0.653221	-0.446395	0.152553	-0.675081	0.567208
43689	-1.855134	-6.289666	-1.168616	-0.439933	0.155940	-0.684267	0.560287
43690	-1.933860	-6.072414	-1.554142	-0.433427	0.158463	-0.694443	0.552069
43691	-2.003430	-6.600514	-1.785064	-0.426699	0.160682	-0.705746	0.542247
43692	-2.381086	-7.332553	-2.125491	-0.420322	0.162207	-0.717290	0.531519
43693	-2.830923	-7.761825	-2.631261	-0.415002	0.162722	-0.728384	0.520337
43694	-3.244933	-8.064508	-3.164470	-0.410400	0.162275	-0.739290	0.508615
43695	-3.684816	-8.448364	-3.698851	-0.406717	0.160780	-0.749612	0.496802
43696	-3.764351	-8.812310	-4.385555	-0.404219	0.158114	-0.759125	0.485115
43697	-3.749067	-9.193780	-4.859384	-0.402861	0.153921	-0.768102	0.473319
43698	-4.504881	-9.329688	-5.209702	-0.402404	0.147904	-0.776581	0.461647
43699	-5.498292	-9.635796	-5.464532	-0.403003	0.140290	-0.784421	0.450101
43700	-6.326671	-10.201449	-5.389542	-0.405114	0.131302	-0.791029	0.439221
43701	-6.641931	-10.476200	-5.082339	-0.408899	0.121000	-0.795663	0.430211
43702	-7.305220	-10.236115	-4.794846	-0.414243	0.109577	-0.798252	0.423309
43703	-7.858532	-9.881806	-4.514584	-0.420991	0.097581	-0.799388	0.417400
43704	-8.427717	-9.665257	-4.152051	-0.428975	0.084973	-0.799265	0.412231
43705	-8.643236	-9.417752	-3.999555	-0.437928	0.071653	-0.797785	0.408196
43706	-8.968527	-8.987241	-3.755799	-0.447586	0.057847	-0.795082	0.405173
43707	-9.594043	-8.735406	-3.371649	-0.457863	0.043997	-0.791343	0.402743
43708	-10.230577	-8.653582	-2.605879	-0.468767	0.030280	-0.786464	0.401016
43709	-10.882377	-8.590203	-1.864403	-0.480533	0.017280	-0.780398	0.399711
43710	-10.999210	-8.911318	-1.462506	-0.492799	0.005648	-0.773764	0.398003
43711	-11.114167	-9.442418	-1.443181	-0.505390	-0.004664	-0.766356	0.396557
43712	-11.211846	-9.902134	-1.604632	-0.518407	-0.014092	-0.757548	0.396454
43713	-11.255685	-9.693123	-1.755866	-0.531701	-0.023588	-0.746700	0.398970
43714	-11.006302	-9.102274	-1.629871	-0.545134	-0.032854	-0.734286	0.403203
43715	-10.487124	-8.660415	-1.411209	-0.558417	-0.041834	-0.720642	0.408773
43716	-10.290707	-8.171105	-1.292971	-0.571035	-0.051064	-0.706017	0.415754
43717	-10.105591	-7.419323	-0.857190	-0.583095	-0.060400	-0.690351	0.423990
43718	-9.984041	-6.800272	-0.102160	-0.594612	-0.069260	-0.674136	0.432643
43719	-9.867999	-6.151554	0.798812	-0.605809	-0.077585	-0.657039	0.441900
43720	-9.622173	-5.456091	1.612853	-0.616905	-0.085126	-0.638728	0.451894
43721	-9.412880	-4.644029	2.462538	-0.627996	-0.091745	-0.619271	0.462284
43722	-9.169621	-3.842684	3.102852	-0.639196	-0.096986	-0.599225	0.472178
43723	-9.043732	-3.079329	3.395677	-0.650067	-0.100607	-0.579648	0.480936
43724	-8.840388	-3.071294	3.661631	-0.660525	-0.101976	-0.561330	0.488074
43725	-8.458827	-3.332878	3.782347	-0.670231	-0.101682	-0.543630	0.494892
43726	-8.078863	-3.105411	3.724087	-0.679143	-0.099366	-0.526845	0.501323
43727	-7.806835	-3.304132	3.926781	-0.687224	-0.095243	-0.510906	0.507570
43728	-7.506261	-3.168773	4.071263	-0.694312	-0.090198	-0.495498	0.514079
43729	-7.299761	-2.968079	4.213473	-0.700427	-0.084471	-0.480762	0.520706
43730	-6.975533	-2.631579	4.424554	-0.705409	-0.077732	-0.467409	0.527147
43731	-6.916316	-2.899160	4.828383	-0.709246	-0.069608	-0.455918	0.533165
43732	-6.836985	-3.126154	5.236392	-0.711967	-0.061089	-0.445454	0.539391
43733	-6.769648	-3.395494	5.420234	-0.713652	-0.052039	-0.436218	0.545625
43734	-6.997310	-3.797087	5.596758	-0.714158	-0.042767	-0.428183	0.552095
43735	-7.283493	-4.403549	6.124200	-0.713564	-0.033492	-0.420604	0.559283
43736	-7.404858	-4.621190	6.702503	-0.711906	-0.025318	-0.412557	0.567755
43737	-7.293760	-3.993344	7.244001	-0.709563	-0.017720	-0.403879	0.577138
43738	-6.713528	-3.031380	7.680838	-0.706838	-0.009356	-0.395501	0.586406
43739	-6.082402	-2.576748	7.925829	-0.703791	0.001110	-0.388661	0.594659
43740	-5.199924	-2.595406	7.960025	-0.700202	0.013395	-0.383482	0.602063
43741	-4.467322	-2.848521	7.647418	-0.695932	0.026772	-0.379536	0.609027
43742	-3.839124	-2.884047	7.161130	-0.690864	0.040766	-0.376763	0.615707
43743	-3.173150	-2.809480	6.719352	-0.685059	0.054746	-0.374964	0.622173
43744	-2.313954	-2.472767	6.344417	-0.678818	0.068170	-0.374036	0.628216
43745	-1.660048	-1.946378	5.997470	-0.672187	0.081217	-0.374798	0.633320
43746	-1.340875	-1.990961	5.597457	-0.664957	0.094636	-0.378633	0.636800
43747	-1.521665	-2.627513	5.346594	-0.657068	0.107837	-0.385262	0.638910
43748	-1.579628	-3.642861	5.286099	-0.648575	0.120245	-0.393766	0.640187
43749	-1.310597	-4.527278	5.384450	-0.639640	0.131113	-0.402961	0.641321
43750	-1.183480	-5.100055	5.606249	-0.630378	0.140673	-0.412605	0.642333
43751	-1.370499	-5.479314	5.874880	-0.620981	0.149076	-0.422060	0.643447
43752	-1.669941	-5.664875	6.239219	-0.611540	0.156886	-0.431346	0.644473
43753	-1.868610	-5.429759	6.323811	-0.602080	0.164358	-0.440444	0.645364
43754	-1.762357	-5.147539	6.098679	-0.592425	0.172442	-0.450361	0.645346
43755	-1.310874	-5.010251	5.610846	-0.582439	0.181282	-0.461622	0.644055
43756	-1.050056	-5.377686	4.974769	-0.572167	0.190941	-0.474269	0.641276
43757	-1.102573	-5.796643	4.303707	-0.561843	0.200629	-0.487603	0.637436
43758	-1.103433	-6.127930	3.698532	-0.551851	0.210144	-0.501105	0.632608
43759	-1.232742	-6.457376	3.187088	-0.542326	0.219060	-0.514354	0.627164
43760	-1.396530	-6.755236	2.715256	-0.533234	0.227330	-0.527176	0.621344
43761	-1.565866	-6.948679	2.411673	-0.524686	0.235028	-0.539366	0.615265
43762	-1.544793	-7.021517	2.119578	-0.516520	0.242385	-0.551466	0.608558
43763	-1.728862	-7.158197	1.619124	-0.508436	0.249287	-0.563671	0.601352
43764	-1.877286	-7.464123	0.845558	-0.500326	0.255784	-0.576095	0.593601
43765	-1.764504	-7.893995	0.572111	-0.491915	0.261631	-0.588421	0.585943
43766	-1.839862	-8.024606	0.581946	-0.483688	0.266136	-0.599809	0.579177
43767	-1.882116	-7.565595	0.535035	-0.475893	0.269570	-0.610587	0.572748
43768	-1.744848	-6.709212	0.324814	-0.468409	0.272329	-0.621335	0.566015
43769	-1.753829	-6.143552	-0.023399	-0.460500	0.275660	-0.633825	0.556972
43770	-1.801310	-6.548738	-0.721849	-0.452558	0.279318	-0.647481	0.545840
43771	-1.937106	-7.067999	-1.749132	-0.445154	0.283004	-0.661774	0.532731
43772	-1.942108	-7.799547	-2.726133	-0.439114	0.285533	-0.675330	0.519210
43773	-1.827268	-8.242916	-3.473204	-0.434089	0.286493	-0.688296	0.505704
43774	-1.804002	-8.503900	-3.998090	-0.430218	0.285346	-0.700494	0.492745
43775	-2.189256	-8.404539	-4.383643	-0.427061	0.282421	-0.712543	0.479729
43776	-3.031287	-8.621428	-4.812451	-0.424413	0.278421	-0.724739	0.465949
43777	-3.512475	-9.126103	-5.249326	-0.422654	0.273492	-0.736270	0.452186
43778	-3.702534	-9.269926	-5.407373	-0.422310	0.267116	-0.746298	0.439708
43779	-4.094136	-8.957269	-5.397359	-0.423655	0.258944	-0.754427	0.429308
43780	-4.530874	-8.052877	-5.499590	-0.425777	0.249541	-0.761613	0.419988
43781	-4.824587	-7.536109	-5.818253	-0.427659	0.239883	-0.769076	0.409983
43782	-5.217105	-7.853540	-6.411202	-0.429384	0.230148	-0.776880	0.398898
43783	-5.382059	-8.566797	-7.139129	-0.431501	0.219599	-0.784120	0.388251
43784	-5.672753	-8.831985	-7.265696	-0.434175	0.207282	-0.790141	0.379742
43785	-5.890440	-8.306510	-6.934152	-0.437285	0.193229	-0.794721	0.373983
43786	-6.443269	-7.486900	-6.204027	-0.440186	0.178422	-0.798815	0.369185
43787	-7.046788	-7.391076	-5.425406	-0.442943	0.163495	-0.802946	0.363796
43788	-7.742336	-7.889727	-4.859868	-0.446115	0.148181	-0.806619	0.358315
43789	-8.090027	-8.325804	-4.709143	-0.450129	0.132029	-0.809224	0.353707
43790	-8.518285	-8.630915	-4.681455	-0.455237	0.114987	-0.810083	0.351145
43791	-8.891793	-8.517535	-4.525263	-0.461530	0.096842	-0.808692	0.351610
43792	-9.496624	-7.765359	-3.726893	-0.468992	0.077797	-0.804989	0.354946
43793	-10.207722	-6.780846	-2.598515	-0.477658	0.058320	-0.799391	0.359744
43794	-10.421599	-5.684999	-1.521288	-0.487352	0.039500	-0.792731	0.364013
43795	-10.253223	-5.612669	-0.960522	-0.497449	0.021999	-0.786145	0.366109
43796	-10.263349	-6.127131	-1.023555	-0.507562	0.005712	-0.779630	0.366777
43797	-10.840413	-7.087814	-1.260659	-0.517704	-0.009020	-0.772851	0.366883
43798	-11.222532	-7.879410	-1.113646	-0.527748	-0.022959	-0.765130	0.368146
43799	-11.192739	-8.017132	-1.021135	-0.537542	-0.037026	-0.756019	0.371636
43800	-11.066266	-7.595838	-0.763795	-0.546989	-0.050713	-0.746221	0.376013
43801	-11.135738	-7.317502	-0.122929	-0.556329	-0.063766	-0.735522	0.381365
43802	-11.240967	-6.902716	0.605126	-0.565800	-0.076121	-0.723432	0.388229
43803	-11.180105	-6.097945	0.939072	-0.575547	-0.088053	-0.709651	0.396722
43804	-11.122722	-5.065629	1.023361	-0.585313	-0.098875	-0.695199	0.405378
43805	-11.130619	-4.603711	1.315451	-0.595051	-0.107824	-0.680922	0.413078
43806	-10.984032	-4.583424	1.867536	-0.604568	-0.115010	-0.666913	0.420117
43807	-10.851390	-4.639317	2.310598	-0.613760	-0.120597	-0.653087	0.426887
43808	-10.563075	-4.616058	2.601188	-0.622352	-0.124707	-0.639836	0.433284
43809	-10.467864	-4.407749	2.849946	-0.630414	-0.127346	-0.627102	0.439436
43810	-10.335808	-4.341139	2.948445	-0.637767	-0.128528	-0.615314	0.445109
43811	-10.273575	-4.335659	3.076505	-0.644433	-0.128459	-0.604171	0.450756
43812	-10.017625	-4.280548	3.086884	-0.650456	-0.127351	-0.593486	0.456578
43813	-9.488109	-4.112136	3.159938	-0.655837	-0.125550	-0.582999	0.462847
43814	-8.725342	-3.725592	3.248412	-0.660712	-0.123232	-0.572472	0.469627
43815	-8.126632	-3.214457	3.344771	-0.665117	-0.120359	-0.562073	0.476662
43816	-7.677677	-2.765100	3.374349	-0.669093	-0.116830	-0.552129	0.483548
43817	-7.448207	-2.453768	3.412869	-0.672631	-0.112548	-0.543038	0.489908
43818	-7.168142	-2.532630	3.475902	-0.675737	-0.107248	-0.535228	0.495387
43819	-6.991258	-2.913731	3.799510	-0.678454	-0.100872	-0.528519	0.500192
43820	-6.898893	-3.362624	4.014218	-0.680585	-0.094210	-0.522137	0.505274
43821	-7.048328	-3.638722	4.003055	-0.682187	-0.086996	-0.516253	0.510426
43822	-7.106402	-4.009515	4.102993	-0.683181	-0.079418	-0.510925	0.515667
43823	-6.985246	-4.101726	4.125140	-0.683373	-0.072363	-0.505785	0.521485
43824	-6.993413	-4.260222	4.105139	-0.682840	-0.066005	-0.501171	0.527447
43825	-7.011818	-4.129017	4.374631	-0.681587	-0.060249	-0.497162	0.533515
43826	-6.681920	-4.157681	4.652568	-0.679584	-0.054728	-0.494028	0.539543
43827	-6.580562	-4.122470	4.800620	-0.676830	-0.049597	-0.491585	0.545697
43828	-6.562399	-4.278730	4.670844	-0.673342	-0.043608	-0.490348	0.551605
43829	-6.638679	-4.378776	4.862700	-0.669382	-0.037780	-0.489312	0.557741
43830	-6.417202	-4.011593	5.132814	-0.665143	-0.033344	-0.487811	0.564370
43831	-6.085008	-3.346505	5.162474	-0.660679	-0.029923	-0.486333	0.571042
43832	-5.756160	-2.960738	5.165318	-0.656047	-0.026060	-0.485795	0.576997
43833	-5.655462	-3.468341	4.986419	-0.651296	-0.021864	-0.486166	0.582219
43834	-5.807804	-3.940394	4.618949	-0.646716	-0.018306	-0.485972	0.587584
43835	-5.728390	-4.157218	4.346222	-0.642407	-0.015654	-0.484829	0.593303
43836	-5.724406	-4.272034	4.291098	-0.638279	-0.015146	-0.482392	0.599724
43837	-6.000643	-3.401502	4.283686	-0.634340	-0.016852	-0.478657	0.606808
43838	-6.206842	-2.395004	4.168080	-0.630451	-0.018267	-0.475909	0.612951
43839	-6.159909	-3.183358	4.115909	-0.626382	-0.017605	-0.475945	0.617100
43840	-6.111923	-4.593092	3.974686	-0.622082	-0.016501	-0.476609	0.620956
43841	-6.333245	-5.555179	3.674602	-0.617549	-0.016358	-0.476143	0.625823
43842	-6.824900	-5.587538	3.307729	-0.612746	-0.017719	-0.474138	0.631998
43843	-7.450993	-5.588215	3.000820	-0.607264	-0.020124	-0.471822	0.638913
43844	-7.465514	-5.678581	2.669340	-0.601332	-0.023185	-0.469745	0.645911
43845	-6.901126	-6.049656	1.796872	-0.594529	-0.028346	-0.468057	0.653188
43846	-6.498964	-6.199603	1.309847	-0.586266	-0.035502	-0.468039	0.660281
43847	-7.326853	-6.978626	1.259808	-0.577157	-0.043296	-0.469500	0.666772
43848	-7.599147	-7.959087	1.381479	-0.568255	-0.051765	-0.469922	0.673484
43849	-7.238020	-8.081570	1.944597	-0.559082	-0.062762	-0.467373	0.681947
43850	-7.180518	-8.526668	2.417561	-0.548854	-0.074838	-0.463980	0.691290
43851	-7.350305	-9.153400	3.397836	-0.538334	-0.088082	-0.455310	0.703656
43852	-7.706708	-9.097384	5.145931	-0.528194	-0.099780	-0.443636	0.717106
43853	-8.346756	-9.103359	6.417355	-0.518639	-0.109675	-0.427999	0.731984
43854	-8.552539	-8.382371	6.779827	-0.509309	-0.117589	-0.408682	0.748169
43855	-8.803038	-7.903998	6.552748	-0.499083	-0.123376	-0.387378	0.765266
43856	-8.638641	-7.217598	7.038730	-0.487508	-0.126792	-0.365215	0.782865
43857	-8.080970	-6.601782	7.720020	-0.474867	-0.127198	-0.343783	0.800084
43858	-7.255160	-5.843217	8.229873	-0.461844	-0.124736	-0.323624	0.816338
43859	-6.610573	-5.702825	8.077663	-0.448578	-0.120429	-0.302780	0.832225
43860	-6.210607	-5.403779	7.803530	-0.434842	-0.115274	-0.280682	0.847845
43861	-5.549249	-5.129817	7.710801	-0.420665	-0.109232	-0.257655	0.862973
43862	-5.380323	-4.837506	7.683502	-0.405542	-0.102155	-0.234743	0.877494
43863	-5.514632	-4.025648	7.686160	-0.389530	-0.094277	-0.211956	0.891321
43864	-5.740772	-2.784484	7.751499	-0.372763	-0.085999	-0.190196	0.904145
43865	-4.792580	-1.738629	7.564514	-0.355286	-0.077378	-0.170985	0.915723
43866	-3.622856	-1.980687	7.001028	-0.336891	-0.069099	-0.155187	0.926092
43867	-2.926483	-1.977909	6.664524	-0.317332	-0.061245	-0.141229	0.935737
43868	-2.651836	-1.723950	6.651471	-0.296760	-0.053487	-0.129816	0.944574
43869	-2.952160	-1.520360	6.622709	-0.274735	-0.046857	-0.118762	0.953006
43870	-2.812056	-0.749886	6.911337	-0.251465	-0.041725	-0.106031	0.961136
43871	-2.780373	-0.140756	7.587186	-0.227882	-0.037662	-0.092742	0.968530
43872	-3.288582	1.304592	7.630084	-0.204305	-0.033834	-0.077423	0.975254
43873	-2.652158	1.963526	7.950974	-0.181309	-0.029129	-0.063950	0.980912
43874	-1.830453	1.649774	8.374047	-0.158826	-0.024483	-0.051327	0.985667
43875	-0.966356	1.326493	8.793038	-0.137172	-0.019774	-0.040521	0.989521
43876	-1.261235	1.006428	8.909973	-0.116597	-0.015098	-0.031213	0.992574
43877	-1.150404	1.127600	8.682814	-0.097049	-0.009853	-0.023470	0.994954
43878	-0.941760	0.958769	8.532152	-0.077902	-0.004820	-0.015536	0.996828
43879	-0.682322	0.861928	8.521387	-0.058430	-0.000661	-0.007743	0.998261
43880	-0.234323	0.803563	8.282228	-0.038686	0.002720	-0.000882	0.999247
43881	0.282668	0.528334	8.370566	-0.018828	0.005130	0.003766	0.999802
43882	0.324359	0.452101	8.312656	0.000823	0.006580	0.008644	0.999941
43883	0.044715	0.900339	8.327845	0.020123	0.007667	0.014141	0.999668
43884	-0.056621	0.876063	8.566720	0.038889	0.008586	0.019182	0.999023
43885	-0.023474	0.757232	8.751269	0.057524	0.009132	0.025264	0.997983
43886	-0.218648	0.551513	9.231601	0.075974	0.009592	0.030293	0.996603
43887	-0.530761	0.599896	9.559807	0.094271	0.010135	0.036540	0.994824
43888	-0.924880	1.622079	9.829846	0.112137	0.010405	0.042394	0.992734
43889	-1.365177	1.181157	9.922598	0.129397	0.010424	0.045755	0.990482
43890	-1.136221	0.839296	9.705834	0.146374	0.011202	0.048536	0.987974
43891	-1.076718	0.862417	9.832212	0.163228	0.011857	0.050838	0.985206
43892	-1.352008	1.059430	10.055025	0.179992	0.012566	0.052808	0.982169
43893	-1.696398	0.637294	10.144368	0.196884	0.013215	0.054940	0.978797
43894	-2.241913	1.012469	10.011757	0.213908	0.014149	0.057701	0.975046
43895	-2.666230	1.604556	9.235785	0.230984	0.015948	0.060941	0.970916
43896	-2.409195	1.768906	8.679457	0.248131	0.018062	0.062375	0.966547
43897	-2.422580	2.059230	8.362333	0.265313	0.020339	0.064718	0.961773
43898	-2.391434	1.969597	8.834551	0.282609	0.023034	0.068120	0.956536
43899	-2.542343	2.613361	9.920847	0.300355	0.026004	0.074528	0.950556
43900	-2.647318	2.467024	10.677545	0.318161	0.028776	0.082193	0.944028
43901	-2.964012	3.070270	10.938106	0.335507	0.032364	0.091115	0.937062
43902	-2.913835	3.431329	10.349316	0.352250	0.036413	0.097295	0.930122
43903	-3.078445	3.715370	9.996435	0.368189	0.038951	0.100512	0.923481
43904	-3.836662	3.371050	9.645627	0.383774	0.039663	0.100034	0.917135
43905	-3.770715	3.158198	9.558023	0.399440	0.039613	0.097761	0.910671
43906	-3.498328	2.514231	9.376939	0.415201	0.039225	0.095516	0.903851
43907	-3.645240	2.746999	9.280499	0.431071	0.038693	0.094152	0.896558
43908	-3.570695	2.901984	9.250668	0.446720	0.038255	0.093916	0.888908
43909	-3.477453	3.700245	9.446439	0.461865	0.037638	0.092995	0.881258
43910	-3.437169	3.191621	9.489697	0.476231	0.036664	0.090978	0.873832
43911	-3.718750	3.172139	9.652393	0.489947	0.035777	0.088729	0.866487
43912	-3.710502	2.449093	9.643660	0.503246	0.034485	0.084902	0.859270
43913	-3.562979	2.353122	9.689348	0.515919	0.033371	0.080791	0.852166
43914	-3.642926	2.113183	9.916081	0.528120	0.031894	0.076192	0.845143
43915	-3.319604	1.597130	9.888689	0.540017	0.029979	0.071321	0.838091
43916	-3.412966	1.367034	9.798304	0.551804	0.029263	0.068481	0.830642
43917	-2.968222	1.379464	9.707882	0.563447	0.029326	0.065371	0.823040
43918	-2.741272	1.769546	9.503200	0.574946	0.030681	0.063410	0.815153
43919	-2.445708	1.958191	9.297520	0.586494	0.032270	0.061393	0.806978
43920	-2.381501	2.255666	9.254393	0.598115	0.034143	0.059391	0.798477
43921	-1.789979	1.702896	9.339339	0.609455	0.035060	0.056313	0.790041
43922	-0.950821	1.422492	9.753925	0.620475	0.035524	0.053757	0.781575
43923	-0.867665	1.539063	10.262307	0.631019	0.036046	0.052060	0.773178
43924	0.026579	1.213409	11.048115	0.640982	0.035411	0.049874	0.765115
43925	0.169884	0.864580	11.381605	0.650882	0.035943	0.051070	0.756606
43926	-0.045167	1.725053	10.934017	0.661171	0.037557	0.052132	0.747479
43927	1.018907	1.328070	10.080884	0.671949	0.038193	0.050075	0.737915
43928	1.662849	1.216493	10.186452	0.683038	0.037000	0.046572	0.727957
43929	0.837824	0.892161	10.314642	0.693965	0.035203	0.043740	0.717817
43930	0.079675	0.537381	10.340446	0.704625	0.032652	0.039122	0.707747
43931	0.369457	0.857940	9.896960	0.714472	0.029000	0.032198	0.698321
43932	0.367004	0.674065	9.322189	0.723807	0.023997	0.024634	0.689145
43933	-0.224003	0.006629	9.083030	0.732977	0.019464	0.017647	0.679746
43934	-0.357580	-0.593616	8.786196	0.742286	0.016036	0.011635	0.669790
43935	-0.359090	-1.127152	8.836453	0.751926	0.015198	0.007483	0.659030
43936	-0.125020	-0.809716	9.241467	0.761991	0.016738	0.005599	0.647347
43937	0.090589	0.431252	9.587844	0.772022	0.018420	0.003496	0.635320
43938	0.555310	1.171928	9.049471	0.781709	0.020302	0.002399	0.623309
43939	0.189313	1.432507	9.150595	0.791218	0.021543	0.001936	0.611151
43940	-0.149989	0.898736	9.706311	0.800842	0.021859	0.000845	0.598475
43941	0.011262	0.955094	10.072814	0.810326	0.022758	-0.000400	0.585537
43942	0.526575	1.194290	10.041469	0.819552	0.024209	-0.001077	0.572492
43943	0.378889	0.867820	10.169607	0.828443	0.025406	-0.001701	0.559494
43944	0.041892	0.252095	10.195409	0.837284	0.027293	-0.002012	0.546083
43945	-0.048044	-0.571520	10.272456	0.846355	0.027934	-0.003546	0.531875
43946	0.147748	-0.585668	10.016956	0.855533	0.027352	-0.005733	0.516994
43947	-0.043789	-0.095822	9.990964	0.864823	0.025522	-0.007829	0.501367
43948	-0.778233	-0.221952	10.489622	0.874087	0.023155	-0.010625	0.485101
43949	-0.850608	-0.024882	10.435606	0.883068	0.021428	-0.014071	0.468544
43950	-0.520821	-0.121185	9.926055	0.891841	0.020447	-0.016702	0.451578
43951	-0.867488	-0.395095	9.958094	0.900687	0.019182	-0.019582	0.433603
43952	-0.827455	-0.983474	9.779367	0.909474	0.018190	-0.022395	0.414759
43953	-1.195534	-0.332989	9.800191	0.918059	0.017775	-0.024670	0.395277
43954	-1.464196	0.461634	9.611159	0.926434	0.017103	-0.026707	0.375119
43955	-1.965152	0.747086	9.314881	0.934421	0.017272	-0.029223	0.354548
43956	-1.594723	0.389123	9.189864	0.941964	0.018395	-0.031572	0.333720
43957	-2.156251	0.623279	9.068934	0.949068	0.021684	-0.032477	0.312641
43958	-2.107995	0.985919	9.345606	0.955761	0.026219	-0.032711	0.291141
43959	-1.951758	1.576749	9.643532	0.962043	0.031170	-0.032321	0.269177
43960	-1.619418	1.818103	9.748921	0.967852	0.035759	-0.031319	0.246989
43961	-1.964092	1.860835	10.057169	0.973158	0.039135	-0.030087	0.224781
43962	-2.560887	2.136890	10.160980	0.977956	0.041484	-0.029311	0.202537
43963	-2.985175	1.731245	10.032939	0.982286	0.042244	-0.029516	0.180162
43964	-3.041577	1.185069	10.020675	0.986170	0.042947	-0.030012	0.157238
43965	-3.105428	1.189313	10.018799	0.989620	0.043615	-0.030513	0.133490
43966	-2.968754	1.683623	9.668655	0.992539	0.044731	-0.030466	0.109253
43967	-3.100470	1.916586	9.569549	0.994901	0.046316	-0.029257	0.084679
43968	-3.401919	1.937662	9.552779	0.996660	0.047785	-0.027979	0.060027
43969	-3.401908	2.079468	9.629037	0.997822	0.048543	-0.026999	0.035589
43970	-3.243184	2.375523	9.595124	0.998424	0.048250	-0.026182	0.011624
43971	-3.343850	1.862686	9.488135	0.998464	0.047878	-0.025125	-0.012073
43972	-3.570591	1.192106	9.614596	0.997904	0.048028	-0.024454	-0.035816
43973	-3.476201	1.139585	9.877928	0.996722	0.049050	-0.024126	-0.059637
43974	-3.310612	1.207565	9.929976	0.994989	0.049803	-0.023569	-0.083437
43975	-3.363617	1.043105	9.986729	0.992717	0.050065	-0.022672	-0.107207
43976	-3.614456	0.651205	10.073914	0.989817	0.050689	-0.021400	-0.131279
43977	-3.678344	0.803485	10.110346	0.986146	0.052306	-0.020325	-0.156102
43978	-3.549598	1.366982	10.385854	0.981686	0.053625	-0.019551	-0.181754
43979	-3.630384	2.152772	10.189070	0.976501	0.054229	-0.018990	-0.207712
43980	-3.802748	2.543823	9.977137	0.970714	0.053462	-0.018587	-0.233474
43981	-3.758272	2.360285	9.764076	0.964247	0.052471	-0.018217	-0.259119
43982	-3.540985	2.319066	9.784599	0.957007	0.052332	-0.018044	-0.284734
43983	-3.311450	2.592779	9.783745	0.949070	0.052981	-0.018328	-0.310039
43984	-3.379250	3.246701	9.896365	0.940655	0.053251	-0.018499	-0.334651
43985	-2.952794	3.429264	10.132202	0.931913	0.051276	-0.017992	-0.358587
43986	-2.391145	3.291206	9.908122	0.922911	0.047971	-0.017221	-0.381626
43987	-2.008808	2.656916	9.214154	0.913908	0.042611	-0.016277	-0.403351
43988	-1.534099	2.027671	8.847844	0.904848	0.035914	-0.015096	-0.423948
43989	-1.201235	1.391251	9.032254	0.895386	0.030197	-0.014249	-0.444038
43990	-0.928680	1.260320	9.796192	0.885162	0.027896	-0.014021	-0.464233
43991	-0.114396	2.180660	10.623724	0.873952	0.029726	-0.015386	-0.484858
43992	0.279994	3.890679	10.889707	0.862409	0.033418	-0.017379	-0.504809
43993	0.630026	4.556962	10.798749	0.851483	0.034360	-0.018032	-0.522945
43994	0.546641	4.726024	10.557838	0.841688	0.032698	-0.016711	-0.538713
43995	-0.001269	3.198884	9.951757	0.833142	0.027738	-0.013583	-0.552195
43996	-0.325212	1.531798	9.265632	0.825011	0.022195	-0.010887	-0.564575
43997	-0.129562	0.340081	8.875560	0.816838	0.016534	-0.008040	-0.576574
43998	-0.168917	-0.642329	8.695216	0.808492	0.012597	-0.005789	-0.588344
43999	-0.136855	-0.569469	8.525440	0.799962	0.011326	-0.005388	-0.599919
44000	0.250576	0.123696	8.270645	0.791257	0.012417	-0.006955	-0.611318
44001	0.255528	0.977301	8.602705	0.782594	0.013774	-0.008755	-0.622319
44002	0.498556	1.540891	8.910969	0.773852	0.015084	-0.010311	-0.633102
44003	0.259251	2.039558	9.053411	0.764810	0.017083	-0.011601	-0.643925
44004	0.368158	2.200580	9.333362	0.755433	0.019477	-0.013333	-0.654800
44005	0.759911	2.313488	9.685181	0.746127	0.022768	-0.015615	-0.665231
44006	0.658398	3.017370	9.723759	0.737352	0.026455	-0.018042	-0.674750
44007	0.869942	2.910860	9.573188	0.729104	0.029429	-0.020050	-0.683476
44008	0.840763	2.706101	9.394572	0.721151	0.032436	-0.022284	-0.691660
44009	0.886174	2.576802	9.138947	0.713340	0.035159	-0.024283	-0.699514
44010	0.783462	2.518481	9.285351	0.705614	0.038425	-0.026375	-0.707062
44011	0.597692	2.468703	9.449471	0.698177	0.042342	-0.028725	-0.714094
44012	0.538563	2.421152	9.640583	0.691129	0.046332	-0.030659	-0.720593
44013	0.550725	2.591982	9.726976	0.684376	0.050593	-0.032616	-0.726640
44014	0.355035	3.209705	9.803385	0.678157	0.053878	-0.033684	-0.732165
44015	-0.021134	3.261677	9.750472	0.672431	0.055873	-0.033189	-0.737301
44016	-0.341478	2.814011	9.819401	0.667122	0.057238	-0.031907	-0.742061
44017	-0.658346	2.724865	9.885007	0.662102	0.059092	-0.031162	-0.746430
44018	-0.540462	2.542457	9.841255	0.657535	0.061058	-0.031270	-0.750294
44019	-0.495920	2.689219	9.859980	0.653489	0.063462	-0.032022	-0.753591
44020	-0.921979	3.166877	10.228248	0.649935	0.065465	-0.032074	-0.756486
44021	-1.485578	3.252496	10.294784	0.646887	0.066597	-0.030908	-0.759043
44022	-2.108632	2.805443	9.978962	0.644400	0.066762	-0.028619	-0.761230
44023	-2.099307	2.152981	9.693404	0.642608	0.065693	-0.025969	-0.762932
44024	-1.733932	1.721311	9.448164	0.641228	0.065079	-0.024233	-0.764201
44025	-1.663264	1.812520	9.461238	0.639804	0.065357	-0.023899	-0.765381
44026	-1.487251	1.829466	9.567674	0.638131	0.066548	-0.024730	-0.766648
44027	-1.539121	1.993213	9.832642	0.636512	0.067836	-0.025503	-0.767854
44028	-1.408484	2.261943	9.834642	0.635295	0.068670	-0.025398	-0.768791
44029	-1.483941	2.608022	9.649476	0.634524	0.068769	-0.024444	-0.769450
44030	-1.642157	2.493927	9.546324	0.634338	0.067326	-0.021656	-0.769814
44031	-1.799596	1.719037	9.525303	0.634553	0.065097	-0.017351	-0.769937
44032	-1.928886	0.851908	9.347053	0.634716	0.063803	-0.013647	-0.769986
44033	-1.838265	0.394983	9.193644	0.634640	0.063865	-0.011739	-0.770075
44034	-1.589547	-0.051170	8.852201	0.634118	0.065254	-0.011683	-0.770390
44035	-1.507075	-0.204249	8.546650	0.633121	0.067817	-0.012775	-0.770971
44036	-1.361422	-0.464869	8.461644	0.631466	0.071094	-0.014723	-0.771998
44037	-1.254837	-1.348942	8.087377	0.628585	0.074251	-0.016338	-0.774016
44038	-1.246865	-2.324992	7.661687	0.623983	0.078677	-0.016821	-0.777285
44039	-1.997094	-2.535373	7.780027	0.617341	0.085281	-0.017563	-0.781862
44040	-2.198426	-1.869022	8.138529	0.608010	0.092560	-0.017017	-0.788332
44041	-1.962338	-0.348973	8.776292	0.597027	0.099392	-0.014113	-0.795915
44042	-2.013698	1.437642	8.838315	0.586438	0.105518	-0.007780	-0.803054
44043	-2.399933	3.104336	8.749193	0.577795	0.109222	0.003414	-0.808833
44044	-2.470489	2.726347	9.218568	0.570121	0.112277	0.019555	-0.813617
44045	-3.051159	2.113136	9.058435	0.561853	0.118365	0.035678	-0.817947
44046	-3.673708	2.295861	8.873085	0.553095	0.124852	0.051343	-0.822108
44047	-3.040921	3.590111	9.211943	0.545595	0.130429	0.065355	-0.825253
44048	-2.019095	5.336325	9.860635	0.539635	0.136069	0.076874	-0.827267
44049	-2.170470	4.871136	9.200770	0.536343	0.142234	0.089489	-0.827102
44050	-3.475324	3.406159	8.266110	0.535586	0.149829	0.103032	-0.824671
44051	-4.281195	3.175780	9.043251	0.538565	0.156324	0.117040	-0.819642
44052	-4.642923	3.534131	11.249800	0.544918	0.162328	0.126903	-0.812779
44053	-4.969735	5.330714	11.379785	0.553959	0.167112	0.133362	-0.804623
44054	-5.131450	4.155911	11.362439	0.566456	0.169154	0.141811	-0.793980
44055	-5.998932	1.655017	12.086912	0.581466	0.170731	0.146938	-0.781766
44056	-6.888920	1.431657	12.360788	0.597013	0.171446	0.148738	-0.769453
44057	-7.025267	0.632401	12.617815	0.612315	0.170907	0.148747	-0.757454
44058	-6.311551	-1.061124	11.794236	0.626892	0.168954	0.145094	-0.746598
44059	-5.389485	-1.554651	10.214414	0.640742	0.167338	0.139605	-0.736178
44060	-5.140117	-1.110778	9.878361	0.654187	0.165827	0.130137	-0.726364
44061	-5.115216	-1.213265	8.911694	0.666685	0.162736	0.121740	-0.717097
44062	-4.808644	-3.019259	9.285082	0.677758	0.160393	0.110898	-0.708957
44063	-3.712097	-2.616233	8.662327	0.686767	0.157959	0.100002	-0.702425
44064	-3.362542	-2.694212	8.742389	0.693533	0.156849	0.090778	-0.697259
44065	-2.878026	-1.821922	8.419044	0.698366	0.156599	0.082947	-0.693456
44066	-2.817118	-0.897204	8.304868	0.702191	0.155043	0.078958	-0.690402
44067	-2.859140	-0.528652	8.372600	0.704980	0.152526	0.077100	-0.688328
44068	-2.748917	-0.933658	8.433695	0.706716	0.148768	0.077849	-0.687285
44069	-2.889836	-0.863293	8.507648	0.707362	0.145884	0.078566	-0.687157
44070	-2.838178	-0.221900	8.584857	0.707401	0.142786	0.079982	-0.687603
44071	-3.033300	0.075646	8.900870	0.706987	0.139909	0.081399	-0.688454
44072	-2.841168	0.484063	9.081791	0.706431	0.136557	0.082830	-0.689527
44073	-2.744798	0.607450	9.044071	0.705737	0.133739	0.084474	-0.690589
44074	-3.140528	0.652474	9.164547	0.705122	0.131391	0.086076	-0.691469
44075	-3.206777	0.501654	9.276496	0.704555	0.129427	0.087085	-0.692291
44076	-3.002436	0.383156	9.497509	0.703897	0.128256	0.087170	-0.693167
44077	-2.898742	0.638042	9.562833	0.703289	0.127282	0.086642	-0.694029
44078	-2.899541	0.743692	9.635819	0.702886	0.126363	0.085674	-0.694726
44079	-2.888303	0.904259	9.598213	0.702658	0.125749	0.084085	-0.695262
44080	-2.872437	0.958304	9.431316	0.702518	0.125322	0.082200	-0.695705
44081	-2.871007	0.998272	9.192353	0.702368	0.124749	0.080500	-0.696158
44082	-2.785679	0.812198	9.202260	0.702095	0.124164	0.079085	-0.696700
44083	-2.757565	0.733867	9.201450	0.701552	0.123822	0.077926	-0.697439
44084	-2.749409	0.873221	9.363353	0.700897	0.123682	0.076768	-0.698250
44085	-2.699885	1.016326	9.536453	0.700363	0.123515	0.075590	-0.698944
44086	-2.846548	1.336227	9.472933	0.700049	0.122746	0.074623	-0.699497
44087	-2.715350	1.105539	9.479726	0.699836	0.121231	0.074144	-0.700026
44088	-2.723159	0.920855	9.356927	0.699454	0.119869	0.073842	-0.700673
44089	-2.834078	0.915736	9.137343	0.699079	0.118445	0.073872	-0.701286
44090	-2.786439	0.719262	9.099867	0.698623	0.117138	0.073879	-0.701959
44091	-2.682059	0.531634	9.082246	0.697972	0.116111	0.074023	-0.702762
44092	-2.620652	0.406401	9.072682	0.697016	0.115936	0.074030	-0.703738
44093	-2.541881	0.683340	8.874217	0.696006	0.115956	0.074198	-0.704716
44094	-2.555574	0.771739	8.774402	0.695124	0.115934	0.074661	-0.705541
44095	-2.431923	0.763903	8.524689	0.694497	0.115695	0.075863	-0.706069
44096	-2.537355	0.724359	8.237963	0.694071	0.115251	0.078064	-0.706320
44097	-2.505570	0.681410	7.974232	0.693774	0.114453	0.081362	-0.706369
44098	-2.315296	0.648208	7.334805	0.693560	0.113428	0.086566	-0.706127
44099	-2.004713	0.511259	6.616349	0.693363	0.113132	0.094655	-0.705329
44100	-1.952000	0.044620	5.706393	0.693161	0.114449	0.105659	-0.703751
44101	-2.210294	-0.054146	4.702090	0.692948	0.117882	0.119898	-0.701108
44102	-2.693150	-0.192369	3.856047	0.692479	0.123616	0.137307	-0.697380
44103	-3.221014	-0.012617	3.075244	0.691513	0.131373	0.157917	-0.692541
44104	-3.585132	-0.199218	2.403957	0.690352	0.140483	0.181410	-0.686126
44105	-4.348577	-0.655944	1.462032	0.688668	0.151488	0.208437	-0.677747
44106	-5.746783	-0.913844	2.671794	0.685614	0.163074	0.236644	-0.668835
44107	-6.015904	-0.890523	3.052678	0.681350	0.174368	0.264215	-0.659961
44108	-6.344682	-1.625896	2.509190	0.676172	0.186524	0.292891	-0.649780
44109	-7.487885	-1.764176	2.069712	0.669783	0.202604	0.321056	-0.638174
44110	-9.289093	-1.126239	1.566490	0.662052	0.222418	0.350403	-0.624047
44111	-12.391909	-2.110626	3.158507	0.654610	0.241461	0.380166	-0.607170
44112	-13.118042	-2.723050	4.242071	0.646074	0.263411	0.401646	-0.593197
44113	-13.902528	-0.834540	4.071663	0.635520	0.288686	0.418433	-0.581110
44114	-13.681972	0.841172	4.325217	0.624500	0.315379	0.434217	-0.567443
44115	-14.548297	1.149733	6.482881	0.614537	0.341033	0.451149	-0.550005
44116	-15.133015	0.697089	8.936905	0.605585	0.365447	0.464620	-0.532769
44117	-15.215055	3.339775	9.547671	0.597128	0.388726	0.474333	-0.517047
44118	-14.418035	6.099799	8.712246	0.594594	0.405130	0.484046	-0.498023
44119	-13.295095	6.706119	7.667746	0.601213	0.410009	0.497134	-0.472539
44120	-12.504182	4.099200	6.963409	0.615042	0.405681	0.511079	-0.442655
44121	-11.506805	0.840670	4.179869	0.629856	0.397685	0.523079	-0.414146
44122	-10.962879	-1.380232	-0.898243	0.644064	0.382984	0.538833	-0.384922
44123	-11.478587	-7.273415	-4.465709	0.660377	0.347841	0.567911	-0.346968
44124	-14.862418	-24.473796	-3.249350	0.670451	0.305192	0.600376	-0.311291
44125	-13.646326	-20.268618	1.433174	0.664410	0.302063	0.605181	-0.317920
44126	-14.141695	-10.843639	1.539596	0.650438	0.319805	0.594839	-0.347594
44127	-13.199429	-3.387369	-0.545290	0.633029	0.347001	0.568040	-0.395215
44128	-11.593207	4.032262	-2.074205	0.612446	0.372782	0.537856	-0.443456
44129	-10.615972	9.112399	0.514294	0.599698	0.383029	0.517280	-0.475471
44130	-9.087632	7.585793	1.931388	0.594517	0.380927	0.506839	-0.494528
44131	-8.116259	5.884401	2.095819	0.593314	0.374253	0.504037	-0.503845
44132	-8.151872	3.439925	1.768418	0.595037	0.366244	0.505698	-0.506030
44133	-8.705206	2.099827	2.052772	0.598665	0.358734	0.508507	-0.504313
44134	-8.868420	0.747835	1.928249	0.603664	0.351305	0.511621	-0.500419
44135	-8.649456	-0.227896	0.971499	0.607536	0.346396	0.512925	-0.497813
44136	-8.506126	-0.077329	0.305820	0.609967	0.344822	0.512254	-0.496623
44137	-8.478442	-0.190562	0.434380	0.612021	0.345764	0.509955	-0.495805
44138	-8.433182	-0.759098	0.868530	0.613669	0.349004	0.506097	-0.495452
44139	-8.554616	-1.301522	1.451570	0.614527	0.354471	0.500839	-0.495850
44140	-8.604617	-1.766546	2.092472	0.614346	0.362205	0.494200	-0.497145
44141	-8.684127	-1.806045	2.550154	0.612751	0.372438	0.486767	-0.498883
44142	-8.752355	-1.585552	2.961074	0.610728	0.383019	0.479970	-0.499937
44143	-8.829914	-1.286481	3.351921	0.608351	0.393002	0.474631	-0.500184
44144	-9.056119	-1.429239	3.476947	0.605921	0.401410	0.471057	-0.499836
44145	-9.356555	-1.660291	3.650305	0.603343	0.408200	0.468769	-0.499606
44146	-9.728048	-1.680277	3.739803	0.600182	0.414213	0.467089	-0.500036
44147	-9.964164	-1.539344	3.731464	0.596551	0.419632	0.465845	-0.501023
44148	-10.014275	-1.460667	3.650874	0.592447	0.424495	0.464845	-0.502722
44149	-9.857773	-1.099790	3.537942	0.587572	0.429247	0.463776	-0.505389
44150	-9.784132	-0.480941	3.516308	0.582163	0.433763	0.462669	-0.508797
44151	-9.683424	0.150508	3.419103	0.576434	0.437951	0.461497	-0.512781
44152	-9.949586	0.829834	3.209529	0.570669	0.441698	0.460461	-0.516929
44153	-9.933524	1.439409	2.852657	0.565841	0.444139	0.459870	-0.520657
44154	-9.339615	1.686180	2.401539	0.562679	0.444737	0.460517	-0.522997
44155	-8.975046	1.401049	1.932093	0.560317	0.445159	0.461763	-0.524074
44156	-9.546793	1.160304	1.923982	0.558133	0.446370	0.462027	-0.525140
44157	-10.049326	1.075349	2.697124	0.555909	0.448828	0.458924	-0.528117
44158	-10.005381	1.688845	3.099255	0.552755	0.453489	0.451038	-0.534204
44159	-9.596691	2.152988	2.587209	0.550377	0.457898	0.441869	-0.540524
44160	-9.184433	2.018532	2.330298	0.549563	0.460820	0.433711	-0.545454
44161	-9.300891	2.035545	2.242931	0.550574	0.462035	0.427515	-0.548291
44162	-9.549623	1.427724	2.131306	0.554032	0.460832	0.424000	-0.548549
44163	-9.894034	0.690461	2.015815	0.558001	0.459106	0.421484	-0.547912
44164	-10.357038	0.034691	2.052728	0.561904	0.457182	0.419401	-0.547130
44165	-10.404875	-0.730786	2.076991	0.564740	0.455743	0.416684	-0.547486
44166	-10.291851	-0.927130	1.928125	0.565437	0.455799	0.412738	-0.549705
44167	-9.993632	-0.704292	1.779843	0.564677	0.456547	0.408265	-0.553194
44168	-9.749588	-0.556566	1.833471	0.563066	0.457574	0.403874	-0.557198
44169	-9.515649	-0.545534	1.927000	0.561071	0.458360	0.399829	-0.561464
44170	-9.451348	-0.681260	1.932557	0.559002	0.458654	0.396107	-0.565909
44171	-9.475891	-0.578049	1.905842	0.556577	0.458848	0.392369	-0.570725
44172	-9.570185	-0.309981	1.908240	0.553733	0.459177	0.388526	-0.575834
44173	-9.607306	0.015843	1.903105	0.550418	0.459827	0.384422	-0.581222
44174	-9.490781	0.244862	1.775390	0.546716	0.460811	0.380055	-0.586781
44175	-9.251093	0.371364	1.727276	0.542761	0.461990	0.375598	-0.592369
44176	-9.064924	0.540532	1.775483	0.538681	0.463309	0.371348	-0.597719
44177	-8.981352	0.532927	1.978419	0.534583	0.464740	0.367452	-0.602675
44178	-9.016098	0.564764	2.083886	0.530120	0.466694	0.363458	-0.607509
44179	-9.015398	0.793906	2.148861	0.525332	0.469123	0.359315	-0.612244
44180	-8.960960	1.004903	2.264182	0.520363	0.471874	0.355322	-0.616688
44181	-9.005059	1.094581	2.440917	0.515290	0.474924	0.351617	-0.620716
44182	-9.046977	1.193742	2.592350	0.510185	0.478187	0.348197	-0.624346
44183	-9.090288	1.335621	2.677369	0.505215	0.481508	0.345264	-0.627456
44184	-9.150545	1.416207	2.798315	0.500539	0.484701	0.342974	-0.629995
44185	-9.240756	1.421493	2.918955	0.496236	0.487718	0.341471	-0.631885
44186	-9.292420	1.265086	3.005488	0.492246	0.490526	0.340691	-0.633252
44187	-9.284213	1.172242	3.062292	0.488364	0.493214	0.340416	-0.634316
44188	-9.237873	1.112570	3.107937	0.484653	0.495696	0.340597	-0.635130
44189	-9.153270	1.074786	3.125751	0.481109	0.497920	0.341273	-0.635723
44190	-9.099643	1.010664	3.096406	0.477726	0.499862	0.342406	-0.636139
44191	-9.104470	0.996643	3.020948	0.474648	0.501428	0.344079	-0.636309
44192	-9.191582	0.955148	2.956729	0.471841	0.502550	0.346347	-0.636280
44193	-9.382112	0.844064	2.853976	0.469322	0.503332	0.349109	-0.636016
44194	-9.372809	0.572424	2.648590	0.466739	0.504160	0.351732	-0.635816
44195	-9.544950	0.586444	2.440066	0.464023	0.505255	0.354167	-0.635583
44196	-9.601580	0.528318	2.330986	0.461115	0.506732	0.356036	-0.635479
44197	-9.851245	0.550134	2.423333	0.458060	0.508721	0.356764	-0.635692
44198	-9.876948	0.828778	2.596976	0.454708	0.511377	0.355585	-0.636627
44199	-9.911575	1.308443	2.799911	0.451478	0.514375	0.352850	-0.638031
44200	-9.809859	1.633660	2.945648	0.449498	0.516647	0.350309	-0.638992
44201	-9.685504	1.408457	3.101002	0.449087	0.517686	0.348541	-0.639407
44202	-9.601628	1.240997	3.118487	0.449913	0.517554	0.347507	-0.639496
44203	-9.576696	1.235003	3.030925	0.451813	0.516455	0.347411	-0.639097
44204	-9.582093	0.970466	2.901846	0.454583	0.514547	0.348379	-0.638144
44205	-9.581592	0.699309	2.662438	0.457767	0.512240	0.349838	-0.636925
44206	-9.552259	0.496147	2.380751	0.461050	0.509739	0.351314	-0.635749
44207	-9.537127	0.350984	2.295975	0.464277	0.507200	0.352717	-0.634654
44208	-9.469888	0.139221	2.253843	0.467293	0.504780	0.353995	-0.633657
44209	-9.457242	0.074574	2.127933	0.470055	0.502549	0.355063	-0.632790
44210	-9.494853	0.183186	1.993648	0.472513	0.500564	0.355738	-0.632154
44211	-9.522265	0.309447	1.995834	0.474772	0.498914	0.356283	-0.631457
44212	-9.583837	0.246134	2.104746	0.476849	0.497641	0.356791	-0.630610
44213	-9.503693	0.197440	2.158046	0.478697	0.496787	0.357080	-0.629719
44214	-9.385534	0.190455	2.149886	0.480415	0.496198	0.357218	-0.628796
44215	-9.297564	0.271315	2.207426	0.481948	0.495818	0.357282	-0.627885
44216	-9.323820	0.360976	2.360664	0.483436	0.495513	0.357468	-0.626876
44217	-9.348537	0.418455	2.458153	0.484854	0.495211	0.357739	-0.625863
44218	-9.367654	0.467886	2.474308	0.486280	0.494864	0.358226	-0.624753
44219	-9.354930	0.470866	2.477778	0.487809	0.494330	0.359132	-0.623462
44220	-9.399588	0.414371	2.508157	0.489489	0.493600	0.360431	-0.621973
44221	-9.441753	0.401973	2.498976	0.491240	0.492754	0.361966	-0.620368
44222	-9.438894	0.318328	2.444120	0.493018	0.491833	0.363700	-0.618672
44223	-9.431859	0.255754	2.410045	0.494658	0.490974	0.365477	-0.616997
44224	-9.440343	0.250048	2.413082	0.496105	0.490188	0.367242	-0.615410
44225	-9.426377	0.264284	2.380535	0.497383	0.489467	0.369050	-0.613869
44226	-9.418244	0.261055	2.389137	0.498526	0.488848	0.370888	-0.612325
44227	-9.405229	0.272927	2.352902	0.499639	0.488179	0.372882	-0.610738
44228	-9.395938	0.225667	2.332010	0.500702	0.487526	0.374980	-0.609102
44229	-9.456212	0.119505	2.311740	0.501666	0.486932	0.377102	-0.607472
44230	-9.461472	0.109948	2.290597	0.502465	0.486438	0.379108	-0.605957
44231	-9.486552	0.136017	2.286396	0.503055	0.486094	0.380889	-0.604625
44232	-9.507838	0.192154	2.325936	0.503439	0.485868	0.382516	-0.603459
44233	-9.552995	0.281084	2.280874	0.503740	0.485611	0.384112	-0.602400
44234	-9.556889	0.340441	2.332012	0.504119	0.485291	0.385799	-0.601262
44235	-9.560173	0.297284	2.304831	0.504658	0.484821	0.387638	-0.600005
44236	-9.532752	0.228892	2.302251	0.505232	0.484315	0.389472	-0.598741
44237	-9.563192	0.156747	2.254484	0.505830	0.483780	0.391154	-0.597571
44238	-9.512313	0.160271	2.202919	0.506357	0.483306	0.392576	-0.596575
44239	-9.563219	0.157490	2.185984	0.506837	0.482862	0.393797	-0.595722
44240	-9.579561	0.189568	2.181178	0.507310	0.482474	0.394818	-0.594957
44241	-9.600530	0.211470	2.172489	0.507793	0.482100	0.395662	-0.594287
44242	-9.579312	0.226005	2.183326	0.508303	0.481784	0.396371	-0.593635
44243	-9.596214	0.173649	2.188969	0.508872	0.481439	0.397011	-0.592998
44244	-9.575899	0.116242	2.178196	0.509506	0.481100	0.397540	-0.592375
44245	-9.617167	0.105024	2.169178	0.510149	0.480817	0.397873	-0.591828
44246	-9.598431	0.106821	2.161352	0.510714	0.480663	0.397899	-0.591448
44247	-9.575645	0.154276	2.171475	0.511101	0.480669	0.397616	-0.591300
44248	-9.580116	0.279218	2.194005	0.511471	0.480609	0.397352	-0.591206
44249	-9.619567	0.271780	2.192545	0.511918	0.480417	0.397104	-0.591142
44250	-9.702578	0.289600	2.212588	0.512510	0.480129	0.397015	-0.590921
44251	-9.695645	0.085853	2.306706	0.513088	0.479998	0.396915	-0.590593
44252	-9.722228	0.028205	2.327129	0.513446	0.480158	0.396373	-0.590516
44253	-9.596395	0.149938	2.260947	0.513708	0.480322	0.395598	-0.590674
44254	-9.531223	0.198709	2.312566	0.514014	0.480377	0.395033	-0.590743
44255	-9.483541	0.240805	2.353362	0.514437	0.480296	0.394609	-0.590723
44256	-9.466590	0.217153	2.307812	0.514808	0.480222	0.394168	-0.590755
44257	-9.475736	0.262555	2.255054	0.515159	0.480119	0.393670	-0.590865
44258	-9.469217	0.312470	2.280307	0.515507	0.479955	0.393216	-0.590997
44259	-9.479430	0.348861	2.276066	0.515799	0.479829	0.392828	-0.591102
44260	-9.483748	0.389181	2.257834	0.516063	0.479752	0.392433	-0.591197
44261	-9.458183	0.404087	2.261758	0.516397	0.479720	0.392076	-0.591167
44262	-9.437309	0.360878	2.277838	0.516674	0.479738	0.391733	-0.591138
44263	-9.454063	0.386828	2.262123	0.516868	0.479854	0.391370	-0.591114
