// Start Time: Unknown
// Update Rate: 60.0Hz
// Filter Profile: human (46.1)
// Option Flags: AHS Disabled ICC Disabled 
// Firmware Version: 4.3.5
PacketCounter	Acc_X	Acc_Y	Acc_Z	Quat_q0	Quat_q1	Quat_q2	Quat_q3
08551	0.010213	0.053323	9.760744	0.999997	0.002328	-0.000293	-0.000879
08552	0.007687	0.083766	9.747388	0.999997	0.002341	-0.000286	-0.000881
08553	0.011060	0.048579	9.747514	0.999997	0.002330	-0.000287	-0.000887
08554	0.001937	0.041909	9.765189	0.999997	0.002326	-0.000279	-0.000887
08555	0.003551	0.036467	9.751963	0.999997	0.002321	-0.000273	-0.000886
08556	-0.003093	0.024190	9.756412	0.999997	0.002327	-0.000270	-0.000886
08557	-0.013911	0.047587	9.760725	0.999997	0.002327	-0.000270	-0.000883
08558	0.012563	0.063206	9.743057	0.999997	0.002325	-0.000268	-0.000872
08559	0.003536	0.056716	9.760729	0.999997	0.002330	-0.000275	-0.000871
08560	-0.002128	0.068541	9.738590	0.999997	0.002330	-0.000276	-0.000869
08561	-0.009466	0.032180	9.769627	0.999997	0.002330	-0.000280	-0.000883
08562	-0.020937	0.031164	9.751937	0.999997	0.002318	-0.000278	-0.000881
08563	0.010455	0.035379	9.756416	0.999997	0.002325	-0.000276	-0.000888
08564	-0.011002	0.057462	9.743029	0.999997	0.002324	-0.000279	-0.000901
08565	-0.009508	0.052382	9.778387	0.999997	0.002331	-0.000264	-0.000893
08566	0.008853	0.060979	9.729819	0.999997	0.002333	-0.000282	-0.000896
08567	0.012996	0.050026	9.751961	0.999997	0.002330	-0.000263	-0.000888
08568	-0.012612	0.029520	9.756389	0.999997	0.002338	-0.000276	-0.000884
08569	-0.010119	0.048535	9.765154	0.999997	0.002341	-0.000268	-0.000894
08570	0.002377	0.044453	9.769627	0.999997	0.002331	-0.000281	-0.000887
08571	-0.008997	0.043501	9.751930	0.999997	0.002337	-0.000279	-0.000886
08572	-0.006563	0.062475	9.760693	0.999997	0.002338	-0.000283	-0.000894
08573	0.006049	0.058150	9.716587	0.999997	0.002325	-0.000281	-0.000898
08574	-0.006594	0.033254	9.774072	0.999997	0.002324	-0.000267	-0.000910
08575	-0.012486	0.045073	9.751919	0.999997	0.002330	-0.000260	-0.000902
08576	0.008287	0.047889	9.738732	0.999997	0.002317	-0.000270	-0.000897
08577	-0.000531	0.041309	9.756399	0.999997	0.002321	-0.000292	-0.000879
08578	0.002165	0.060281	9.765159	0.999997	0.002321	-0.000294	-0.000894
08579	0.017171	0.050381	9.756429	0.999997	0.002311	-0.000294	-0.000901
08580	0.010502	0.038017	9.760881	0.999997	0.002313	-0.000285	-0.000902
08581	-0.000999	0.037149	9.743177	0.999997	0.002317	-0.000291	-0.000899
08582	-0.004164	0.043370	9.756389	0.999997	0.002314	-0.000302	-0.000895
08583	0.010852	0.033581	9.747665	0.999997	0.002319	-0.000297	-0.000885
08584	-0.002508	0.062680	9.765144	0.999997	0.002309	-0.000297	-0.000892
08585	-0.003911	0.038682	9.743171	0.999997	0.002306	-0.000308	-0.000880
08586	-0.004039	0.063345	9.765139	0.999997	0.002305	-0.000296	-0.000899
08587	-0.000725	0.028153	9.765327	0.999997	0.002306	-0.000302	-0.000885
08588	-0.003898	0.034180	9.729954	0.999997	0.002307	-0.000293	-0.000884
08589	-0.007271	0.040354	9.743162	0.999997	0.002300	-0.000299	-0.000888
08590	0.011024	0.048967	9.743207	0.999997	0.002300	-0.000301	-0.000895
08591	-0.002894	0.053779	9.738705	0.999997	0.002294	-0.000308	-0.000901
08592	-0.004664	0.030107	9.765320	0.999997	0.002373	-0.000267	-0.000795
08593	-0.007070	0.060361	9.751908	0.999997	0.002369	-0.000280	-0.000797
08594	-0.003628	0.025259	9.752108	0.999997	0.002381	-0.000275	-0.000804
08595	0.004505	0.056955	9.756407	0.999997	0.002376	-0.000269	-0.000803
08596	0.003779	0.057312	9.756405	0.999997	0.002375	-0.000281	-0.000809
08597	-0.007521	0.056191	9.738689	0.999997	0.002356	-0.000284	-0.000803
08598	0.002329	0.057847	9.756402	0.999997	0.002361	-0.000279	-0.000799
08599	-0.001642	0.039986	9.747647	0.999997	0.002376	-0.000289	-0.000805
08600	-0.007059	0.051882	9.725473	0.999997	0.002373	-0.000301	-0.000807
08601	-0.002875	0.040939	9.747643	0.999997	0.002373	-0.000303	-0.000804
08602	-0.003641	0.041360	9.747641	0.999997	0.002373	-0.000305	-0.000812
08603	-0.007084	0.047600	9.760842	0.999997	0.002374	-0.000293	-0.000802
08604	-0.008087	0.048052	9.760839	0.999997	0.002377	-0.000284	-0.000805
08605	0.012599	0.051016	9.747697	0.999997	0.002386	-0.000283	-0.000792
08606	-0.009692	0.049141	9.760832	0.999997	0.002389	-0.000290	-0.000789
08607	-0.010556	0.049684	9.760829	0.999997	0.002397	-0.000276	-0.000789
08608	0.001802	0.045699	9.765348	0.999997	0.002394	-0.000284	-0.000776
08609	-0.007095	0.038837	9.734421	0.999997	0.002386	-0.000273	-0.000778
08610	0.024252	0.042875	9.739016	0.999997	0.002378	-0.000278	-0.000774
08611	-0.011348	0.045292	9.747617	0.999997	0.002382	-0.000268	-0.000785
08612	-0.004148	0.052901	9.778541	0.999997	0.002381	-0.000268	-0.000781
08613	0.005992	0.054451	9.747685	0.999997	0.002386	-0.000267	-0.000788
08614	-0.009007	0.035298	9.769792	0.999997	0.002377	-0.000269	-0.000765
08615	0.006036	0.025401	9.761124	0.999997	0.002380	-0.000276	-0.000760
08616	0.014414	0.057152	9.765409	0.999997	0.002391	-0.000280	-0.000766
08617	0.000354	0.062155	9.760873	0.999997	0.002391	-0.000270	-0.000757
08618	0.004156	0.051278	9.783058	0.999997	0.002393	-0.000258	-0.000756
08619	-0.004685	0.044602	9.752126	0.999997	0.002397	-0.000271	-0.000770
08620	0.007899	0.040662	9.756662	0.999997	0.002401	-0.000280	-0.000774
08621	0.007168	0.041100	9.756661	0.999997	0.002398	-0.000279	-0.000790
08622	0.008815	0.035684	9.743465	0.999997	0.002399	-0.000267	-0.000782
08623	-0.010289	0.052125	9.765311	0.999997	0.002389	-0.000282	-0.000775
08624	0.010691	0.054769	9.752202	0.999997	0.002380	-0.000286	-0.000799
08625	-0.009155	0.047011	9.752112	0.999997	0.002392	-0.000278	-0.000799
08626	-0.012579	0.053383	9.765301	0.999997	0.002391	-0.000280	-0.000803
08627	0.002754	0.043263	9.708072	0.999997	0.002397	-0.000277	-0.000802
08628	0.001516	0.044031	9.756651	0.999997	0.002393	-0.000272	-0.000810
08629	-0.004152	0.055689	9.734451	0.999997	0.002388	-0.000267	-0.000809
08630	-0.005945	0.032041	9.761104	0.999997	0.002385	-0.000276	-0.000803
08631	-0.000820	0.045280	9.756645	0.999997	0.002402	-0.000275	-0.000803
08632	-0.014731	0.050201	9.752089	0.999997	0.002388	-0.000284	-0.000798
08633	0.013401	0.035646	9.748007	0.999997	0.002378	-0.000274	-0.000797
08634	-0.003193	0.046416	9.756639	0.999997	0.002393	-0.000282	-0.000794
08635	-0.006542	0.052763	9.769825	0.999997	0.002387	-0.000276	-0.000792
08636	-0.005509	0.022944	9.734715	0.999997	0.002383	-0.000272	-0.000798
08637	0.004849	0.048967	9.774380	0.999997	0.002376	-0.000265	-0.000788
08638	-0.006616	0.048051	9.756630	0.999997	0.002384	-0.000265	-0.000805
08639	-0.001747	0.061096	9.752170	0.999997	0.002370	-0.000249	-0.000806
08640	-0.008350	0.048665	9.756625	0.999997	0.002365	-0.000270	-0.000797
08641	0.007265	0.063196	9.769916	0.999997	0.002377	-0.000247	-0.000774
08642	0.000425	0.051172	9.774370	0.999997	0.002387	-0.000251	-0.000771
08643	-0.005066	0.063108	9.752156	0.999997	0.002396	-0.000252	-0.000765
08644	-0.009105	0.045098	9.743426	0.999997	0.002393	-0.000250	-0.000783
08645	0.000551	0.046946	9.761178	0.999997	0.002400	-0.000235	-0.000790
08646	-0.019420	0.039321	9.761060	0.999997	0.002406	-0.000232	-0.000789
08647	0.001235	0.042250	9.747990	0.999997	0.002415	-0.000217	-0.000792
08648	-0.008095	0.036033	9.765627	0.999997	0.002426	-0.000220	-0.000798
08649	0.012780	0.038922	9.752562	0.999997	0.002424	-0.000220	-0.000793
08650	-0.008390	0.060933	9.738946	0.999997	0.002423	-0.000232	-0.000799
08651	0.004222	0.056836	9.743522	0.999997	0.002420	-0.000241	-0.000793
08652	0.005644	0.051838	9.778919	0.999997	0.002427	-0.000240	-0.000802
08653	0.004124	0.027936	9.757017	0.999997	0.002421	-0.000236	-0.000799
08654	-0.015590	0.020036	9.756893	0.999997	0.002412	-0.000252	-0.000800
08655	-0.007373	0.051550	9.761152	0.999997	0.002412	-0.000226	-0.000805
08656	-0.008339	0.051840	9.761149	0.999997	0.002397	-0.000237	-0.000799
08657	0.001481	0.053640	9.778911	0.999997	0.002411	-0.000235	-0.000816
08658	0.005825	0.042496	9.752553	0.999997	0.002408	-0.000231	-0.000795
08659	0.008234	0.061475	9.761269	0.999997	0.002415	-0.000230	-0.000803
08660	-0.017459	0.041110	9.765595	0.999997	0.002413	-0.000229	-0.000799
08661	0.003390	0.043769	9.752549	0.999997	0.002403	-0.000228	-0.000806
08662	0.005211	0.038238	9.739372	0.999997	0.002402	-0.000228	-0.000802
08663	-0.004102	0.031795	9.757005	0.999997	0.002397	-0.000223	-0.000802
08664	-0.012254	0.049308	9.747949	0.999997	0.002395	-0.000225	-0.000798
08665	0.000096	0.045325	9.752542	0.999997	0.002403	-0.000223	-0.000769
08666	0.009810	0.047166	9.770312	0.999997	0.002400	-0.000221	-0.000787
08667	-0.001712	0.046264	9.752538	0.999997	0.002408	-0.000206	-0.000780
08668	0.010569	0.042221	9.757137	0.999997	0.002401	-0.000210	-0.000783
08669	-0.009190	0.034400	9.756993	0.999997	0.002400	-0.000211	-0.000780
08670	-0.012569	0.040773	9.770162	0.999997	0.002409	-0.000213	-0.000777
08671	-0.010019	0.059848	9.778870	0.999997	0.002414	-0.000221	-0.000774
08672	0.006891	0.019667	9.735250	0.999997	0.002404	-0.000208	-0.000774
08673	0.006543	0.044395	9.757131	0.999997	0.002406	-0.000200	-0.000782
08674	-0.000214	0.032175	9.761589	0.999997	0.002405	-0.000198	-0.000770
08675	0.004873	0.045246	9.757128	0.999997	0.002405	-0.000202	-0.000778
08676	0.012601	0.052468	9.739497	0.999997	0.002403	-0.000202	-0.000773
08677	0.000602	0.051963	9.770293	0.999997	0.002405	-0.000195	-0.000774
08678	-0.013481	0.057048	9.765675	0.999997	0.002421	-0.000189	-0.000763
08679	0.006862	0.035477	9.730785	0.999997	0.002411	-0.000203	-0.000756
08680	-0.002207	0.029138	9.748412	0.999997	0.002423	-0.000211	-0.000779
08681	0.006300	0.060819	9.752654	0.999997	0.002419	-0.000220	-0.000765
08682	0.018635	0.056633	9.757272	0.999997	0.002409	-0.000209	-0.000764
08683	0.011768	0.044343	9.761732	0.999997	0.002410	-0.000199	-0.000770
08684	0.004979	0.032201	9.766192	0.999997	0.002416	-0.000194	-0.000769
08685	-0.005061	0.055281	9.721693	0.999997	0.002420	-0.000205	-0.000774
08686	0.006761	0.051881	9.774891	0.999997	0.002437	-0.000205	-0.000773
08687	0.006664	0.051970	9.726311	0.999997	0.002432	-0.000216	-0.000795
08688	0.016468	0.053802	9.744099	0.999997	0.002438	-0.000215	-0.000765
08689	0.007131	0.047317	9.761723	0.999997	0.002417	-0.000213	-0.000779
08690	0.008910	0.041807	9.748560	0.999997	0.002431	-0.000207	-0.000789
08691	-0.005046	0.046880	9.743927	0.999997	0.002435	-0.000213	-0.000778
08692	0.018694	0.043679	9.717773	0.999997	0.002427	-0.000231	-0.000789
08693	0.001022	0.030534	9.753018	0.999997	0.002434	-0.000231	-0.000798
08694	0.019138	0.039195	9.753188	0.999997	0.002436	-0.000219	-0.000790
08695	0.002545	0.049944	9.761712	0.999997	0.002431	-0.000230	-0.000814
08696	-0.013969	0.060566	9.770233	0.999997	0.002418	-0.000229	-0.000802
08697	-0.004243	0.062264	9.788027	0.999997	0.002419	-0.000234	-0.000818
08698	0.000381	0.050930	9.761707	0.999997	0.002416	-0.000246	-0.000812
08699	0.002292	0.045415	9.748547	0.999997	0.002412	-0.000243	-0.000821
08700	-0.011840	0.050368	9.743904	0.999997	0.002419	-0.000227	-0.000812
08701	0.006301	0.059129	9.744080	0.999997	0.002431	-0.000231	-0.000820
08702	-0.000301	0.046948	9.748540	0.999997	0.002423	-0.000236	-0.000814
08703	0.000780	0.042001	9.783959	0.999997	0.002431	-0.000221	-0.000816
08704	0.011083	0.043346	9.753183	0.999997	0.002426	-0.000225	-0.000784
08705	-0.008783	0.035595	9.752997	0.999997	0.002428	-0.000218	-0.000793
08706	0.006734	0.050059	9.766335	0.999997	0.002426	-0.000218	-0.000781
08707	0.003980	0.055844	9.730912	0.999997	0.002425	-0.000216	-0.000778
08708	0.005289	0.050890	9.766332	0.999997	0.002424	-0.000232	-0.000761
08709	0.007350	0.045378	9.753177	0.999997	0.002417	-0.000238	-0.000764
08710	-0.006557	0.050297	9.748522	0.999997	0.002423	-0.000235	-0.000764
08711	0.016430	0.047592	9.770982	0.999997	0.002415	-0.000253	-0.000774
08712	-0.003307	0.039923	9.770788	0.999997	0.002384	-0.000282	-0.000796
08713	-0.008555	0.051675	9.748513	0.999997	0.002378	-0.000304	-0.000786
08714	-0.003963	0.040372	9.722208	0.999997	0.002386	-0.000293	-0.000796
08715	0.000342	0.054045	9.766316	0.999997	0.002387	-0.000295	-0.000804
08716	0.002226	0.048584	9.753164	0.999997	0.002386	-0.000295	-0.000801
08717	-0.012916	0.029595	9.775241	0.999997	0.002384	-0.000307	-0.000804
08718	-0.004980	0.036861	9.757625	0.999997	0.002394	-0.000311	-0.000810
08719	0.000207	0.049856	9.753158	0.999997	0.002376	-0.000315	-0.000807
08720	-0.013694	0.054600	9.748491	0.999997	0.002376	-0.000316	-0.000805
08721	0.005878	0.033379	9.762287	0.999997	0.002375	-0.000315	-0.000803
08722	0.002355	0.039714	9.775433	0.999997	0.002378	-0.000308	-0.000811
08723	-0.006257	0.032933	9.744468	0.999997	0.002382	-0.000317	-0.000817
08724	-0.017440	0.032008	9.726649	0.999997	0.002381	-0.000318	-0.000813
08725	0.002747	0.035210	9.762282	0.999997	0.002382	-0.000320	-0.000822
08726	-0.011152	0.040136	9.757607	0.999997	0.002382	-0.000320	-0.000820
08727	0.015718	0.055347	9.740204	0.999997	0.002373	-0.000322	-0.000806
08728	-0.006599	0.053552	9.753136	0.999997	0.002383	-0.000339	-0.000819
08729	0.015811	0.026648	9.753808	0.999997	0.002393	-0.000345	-0.000825
08730	-0.013063	0.041537	9.709021	0.999997	0.002393	-0.000347	-0.000830
08731	0.004389	0.050597	9.757805	0.999997	0.002387	-0.000341	-0.000828
08732	-0.002399	0.038332	9.762270	0.999997	0.002386	-0.000339	-0.000817
08733	-0.000563	0.032817	9.749126	0.999997	0.002383	-0.000337	-0.000834
08734	-0.004132	0.039047	9.762267	0.999997	0.002376	-0.000328	-0.000816
08735	0.010720	0.029056	9.753808	0.999997	0.002382	-0.000325	-0.000808
08736	0.011076	0.053437	9.727049	0.999997	0.002386	-0.000302	-0.000810
08737	0.001497	0.047170	9.744653	0.999997	0.002384	-0.000301	-0.000806
08738	-0.004704	0.059418	9.770930	0.999997	0.002387	-0.000293	-0.000815
08739	0.006919	0.030993	9.753806	0.999997	0.002391	-0.000289	-0.000812
08740	-0.014144	0.053067	9.739955	0.999997	0.002385	-0.000297	-0.000825
08741	0.000861	0.043055	9.731507	0.999997	0.002387	-0.000289	-0.000834
08742	0.004453	0.032229	9.753803	0.999997	0.002381	-0.000283	-0.000831
08743	-0.000337	0.068338	9.753310	0.999997	0.002388	-0.000280	-0.000840
08744	-0.011178	0.038253	9.797676	0.999997	0.002388	-0.000280	-0.000838
08745	-0.002477	0.044823	9.731499	0.999997	0.002389	-0.000283	-0.000853
08746	0.001147	0.034034	9.753798	0.999997	0.002389	-0.000269	-0.000836
08747	0.016567	0.048443	9.767167	0.999997	0.002386	-0.000265	-0.000845
08748	0.002639	0.053344	9.762463	0.999997	0.002386	-0.000267	-0.000851
08749	-0.011186	0.058319	9.757757	0.999997	0.002389	-0.000274	-0.000848
08750	0.014169	0.049834	9.767163	0.999997	0.002395	-0.000258	-0.000838
08751	-0.007390	0.047526	9.731483	0.999997	0.002393	-0.000285	-0.000828
08752	-0.000121	0.055164	9.762454	0.999997	0.002384	-0.000290	-0.000852
08753	-0.006819	0.042780	9.766919	0.999997	0.002374	-0.000292	-0.000859
08754	-0.004965	0.037252	9.753785	0.999997	0.002379	-0.000288	-0.000857
08755	-0.003186	0.031770	9.740652	0.999997	0.002372	-0.000280	-0.000846
08756	0.019557	0.028965	9.763206	0.999997	0.002366	-0.000287	-0.000851
08757	-0.001451	0.050970	9.749312	0.999997	0.002365	-0.000286	-0.000849
08758	-0.002355	0.051302	9.749311	0.999997	0.002355	-0.000272	-0.000848
