// Start Time: Unknown
// Update Rate: 60.0Hz
// Filter Profile: human (46.1)
// Option Flags: AHS Disabled ICC Disabled 
// Firmware Version: 4.3.5
PacketCounter	Acc_X	Acc_Y	Acc_Z	Quat_q0	Quat_q1	Quat_q2	Quat_q3
08551	0.011666	0.002230	9.779556	0.999998	-0.000549	-0.001822	0.000738
08552	0.039910	-0.001316	9.784088	0.999998	-0.000557	-0.001812	0.000741
08553	0.027192	0.015016	9.780567	0.999998	-0.000544	-0.001823	0.000746
08554	0.023055	-0.013786	9.783080	0.999998	-0.000550	-0.001828	0.000730
08555	-0.005820	-0.026304	9.765385	0.999998	-0.000551	-0.001833	0.000733
08556	0.034740	-0.014032	9.799766	0.999998	-0.000553	-0.001827	0.000735
08557	0.024171	-0.015290	9.768665	0.999998	-0.000549	-0.001829	0.000749
08558	0.019619	-0.012054	9.797500	0.999998	-0.000538	-0.001825	0.000752
08559	0.033768	-0.013803	9.799770	0.999998	-0.000552	-0.001841	0.000743
08560	0.033601	-0.013852	9.799770	0.999998	-0.000548	-0.001843	0.000746
08561	0.019038	-0.027978	9.784341	0.999998	-0.000544	-0.001844	0.000746
08562	0.022677	-0.015023	9.768669	0.999998	-0.000549	-0.001838	0.000728
08563	0.018068	-0.012024	9.797503	0.999998	-0.000555	-0.001838	0.000727
08564	0.017691	-0.012057	9.797504	0.999998	-0.000557	-0.001835	0.000720
08565	0.004820	0.004242	9.793977	0.999998	-0.000552	-0.001828	0.000722
08566	0.035209	-0.000795	9.784106	0.999998	-0.000559	-0.001830	0.000721
08567	0.018605	-0.013539	9.783090	0.999998	-0.000560	-0.001837	0.000710
08568	0.030833	-0.029807	9.786619	0.999998	-0.000567	-0.001848	0.000714
08569	0.030477	-0.013823	9.799780	0.999998	-0.000565	-0.001848	0.000734
08570	0.029989	-0.013856	9.799782	0.999998	-0.000575	-0.001834	0.000712
08571	0.033620	-0.001112	9.784112	0.999998	-0.000587	-0.001840	0.000710
08572	0.033394	-0.001119	9.784112	0.999998	-0.000580	-0.001845	0.000724
08573	0.029108	-0.013944	9.799784	0.999998	-0.000583	-0.001851	0.000726
08574	0.028892	-0.013936	9.799785	0.999998	-0.000586	-0.001857	0.000718
08575	0.016304	-0.013698	9.783093	0.999998	-0.000587	-0.001852	0.000718
08576	0.030054	0.000507	9.798532	0.999998	-0.000592	-0.001840	0.000717
08577	0.021426	0.013572	9.766169	0.999998	-0.000600	-0.001842	0.000709
08578	0.033547	-0.002592	9.769703	0.999998	-0.000592	-0.001850	0.000723
08579	0.016867	0.000805	9.781841	0.999998	-0.000595	-0.001857	0.000725
08580	0.016773	-0.015192	9.768681	0.999998	-0.000598	-0.001861	0.000729
08581	0.038994	-0.030199	9.803326	0.999998	-0.000611	-0.001855	0.000732
08582	0.026277	-0.013968	9.799792	0.999998	-0.000603	-0.001862	0.000735
08583	0.011485	-0.012092	9.797513	0.999998	-0.000607	-0.001845	0.000749
08584	0.027449	-0.015439	9.785380	0.999998	-0.000616	-0.001846	0.000759
08585	0.041492	-0.017088	9.787663	0.999998	-0.000601	-0.001849	0.000751
08586	0.022684	-0.028077	9.801052	0.999998	-0.000604	-0.001845	0.000761
08587	0.011963	-0.013382	9.783100	0.999998	-0.000605	-0.001842	0.000759
08588	0.023839	-0.013648	9.799799	0.999998	-0.000612	-0.001844	0.000760
08589	0.027609	-0.016716	9.770971	0.999998	-0.000609	-0.001833	0.000772
08590	0.022914	-0.013672	9.799801	0.999998	-0.000621	-0.001829	0.000763
08591	0.038960	-0.016846	9.787673	0.999998	-0.000601	-0.001826	0.000764
08592	0.024106	0.001095	9.798549	0.999998	-0.000608	-0.001829	0.000754
08593	0.036368	-0.015242	9.802090	0.999998	-0.000619	-0.001848	0.000769
08594	0.005393	-0.026221	9.798772	0.999998	-0.000619	-0.001833	0.000756
08595	0.023367	-0.014977	9.785391	0.999998	-0.000616	-0.001833	0.000748
08596	0.033088	-0.013543	9.816509	0.999998	-0.000612	-0.001823	0.000757
08597	0.022456	-0.014790	9.785393	0.999998	-0.000612	-0.001817	0.000757
08598	0.024106	-0.000419	9.784140	0.999998	-0.000624	-0.001824	0.000750
08599	0.032055	-0.013559	9.816512	0.999998	-0.000616	-0.001831	0.000751
08600	0.005311	-0.027403	9.784360	0.999998	-0.000612	-0.001832	0.000752
08601	0.017254	-0.027402	9.801065	0.999998	-0.000608	-0.001817	0.000653
08602	0.019017	-0.012836	9.799811	0.999998	-0.000618	-0.001827	0.000665
08603	0.037233	-0.001794	9.786434	0.999998	-0.000625	-0.001827	0.000668
08604	0.022549	0.000079	9.784143	0.999998	-0.000611	-0.001831	0.000680
08605	0.001745	-0.025370	9.798775	0.999998	-0.000613	-0.001825	0.000681
08606	0.034279	-0.015935	9.787692	0.999998	-0.000611	-0.001836	0.000693
08607	0.036016	-0.017411	9.773281	0.999998	-0.000611	-0.001821	0.000682
08608	0.017067	-0.012482	9.799815	0.999998	-0.000608	-0.001835	0.000676
08609	0.020951	0.000550	9.784147	0.999998	-0.000605	-0.001835	0.000680
08610	0.020693	0.000721	9.784147	0.999998	-0.000596	-0.001843	0.000672
08611	0.016473	-0.028028	9.786659	0.999998	-0.000593	-0.001845	0.000674
08612	0.018240	-0.013462	9.785404	0.999998	-0.000591	-0.001859	0.000678
08613	0.032279	-0.015117	9.787701	0.999998	-0.000587	-0.001849	0.000677
08614	0.017622	-0.029333	9.772249	0.999998	-0.000594	-0.001849	0.000677
08615	0.017329	-0.013275	9.785406	0.999998	-0.000586	-0.001866	0.000670
08616	0.029322	-0.013128	9.802117	0.999998	-0.000560	-0.001856	0.000680
08617	0.014579	-0.027118	9.786665	0.999998	-0.000567	-0.001847	0.000661
08618	0.018407	-0.014242	9.770996	0.999998	-0.000571	-0.001865	0.000676
08619	0.011920	-0.025558	9.801078	0.999998	-0.000565	-0.001853	0.000664
08620	0.029964	-0.014274	9.787709	0.999998	-0.000561	-0.001855	0.000656
08621	0.029576	0.001906	9.800866	0.999998	-0.000553	-0.001863	0.000649
08622	0.041754	-0.014096	9.804423	0.999998	-0.000545	-0.001869	0.000643
08623	0.016850	-0.013523	9.771000	0.999998	-0.000547	-0.001854	0.000650
08624	0.003980	0.002756	9.767442	0.999998	-0.000545	-0.001855	0.000673
08625	0.011783	-0.010383	9.799825	0.999998	-0.000551	-0.001856	0.000665
08626	0.027791	-0.013610	9.787717	0.999998	-0.000541	-0.001841	0.000655
08627	0.041624	-0.015243	9.790022	0.999998	-0.000541	-0.001836	0.000655
08628	0.022674	-0.026322	9.803388	0.999998	-0.000539	-0.001828	0.000670
08629	0.028521	-0.014992	9.773309	0.999998	-0.000552	-0.001834	0.000665
08630	0.024131	-0.027962	9.788978	0.999998	-0.000550	-0.001837	0.000684
08631	0.011384	-0.011667	9.785417	0.999998	-0.000551	-0.001834	0.000664
08632	0.025486	-0.013359	9.787723	0.999998	-0.000548	-0.001847	0.000655
08633	0.016807	-0.023069	9.832214	0.999998	-0.000545	-0.001837	0.000664
08634	0.020631	-0.026037	9.803393	0.999998	-0.000542	-0.001840	0.000656
08635	0.001951	0.001812	9.753032	0.999998	-0.000547	-0.001840	0.000642
08636	0.011931	-0.012809	9.771008	0.999998	-0.000539	-0.001848	0.000644
08637	0.021813	-0.027218	9.788986	0.999998	-0.000524	-0.001838	0.000646
08638	0.039842	0.000260	9.788780	0.999998	-0.000510	-0.001851	0.000639
08639	0.008874	-0.010499	9.785421	0.999998	-0.000513	-0.001844	0.000659
08640	0.025080	-0.013866	9.773320	0.999998	-0.000519	-0.001858	0.000643
08641	0.008398	-0.010419	9.785421	0.999998	-0.000506	-0.001862	0.000639
08642	0.012195	0.002607	9.769753	0.999998	-0.000515	-0.001859	0.000652
08643	0.020058	-0.026681	9.788991	0.999998	-0.000526	-0.001854	0.000642
08644	0.021615	-0.012207	9.787734	0.999998	-0.000516	-0.001847	0.000650
08645	0.021346	-0.012051	9.787735	0.999998	-0.000514	-0.001860	0.000650
08646	0.021191	-0.011987	9.787735	0.999998	-0.000515	-0.001869	0.000631
08647	0.035244	-0.013623	9.790049	0.999998	-0.000505	-0.001866	0.000622
08648	0.018745	-0.026244	9.788995	0.999998	-0.000513	-0.001889	0.000616
08649	0.037099	-0.015121	9.775640	0.999998	-0.000512	-0.001890	0.000639
08650	0.020331	-0.011758	9.787737	0.999998	-0.000514	-0.001896	0.000642
08651	0.003568	-0.008386	9.799833	0.999998	-0.000512	-0.001895	0.000656
08652	0.021919	-0.013100	9.773329	0.999998	-0.000505	-0.001901	0.000660
08653	0.031887	-0.027622	9.791313	0.999998	-0.000501	-0.001902	0.000662
08654	0.033613	-0.013100	9.790055	0.999998	-0.000502	-0.001909	0.000651
08655	0.018739	-0.011180	9.787741	0.999998	-0.000492	-0.001885	0.000641
08656	0.003898	-0.009340	9.785425	0.999998	-0.000501	-0.001894	0.000663
08657	0.015885	-0.009679	9.802152	0.999998	-0.000509	-0.001893	0.000654
08658	0.029764	-0.011374	9.804470	0.999998	-0.000499	-0.001879	0.000655
08659	0.033555	-0.014300	9.775654	0.999998	-0.000497	-0.001879	0.000668
08660	-0.001694	-0.022058	9.801093	0.999998	-0.000499	-0.001884	0.000670
08661	0.028831	-0.027046	9.791324	0.999998	-0.000491	-0.001880	0.000672
08662	0.015996	-0.010633	9.787747	0.999998	-0.000487	-0.001872	0.000672
08663	0.032018	-0.013871	9.775660	0.999998	-0.000487	-0.001869	0.000651
08664	0.029713	-0.012370	9.790069	0.999998	-0.000495	-0.001889	0.000662
08665	0.029737	-0.028392	9.776920	0.999998	-0.000491	-0.001892	0.000663
08666	0.014764	-0.010430	9.787749	0.999998	-0.000481	-0.001879	0.000661
08667	0.032929	-0.015121	9.761256	0.999998	-0.000477	-0.001881	0.000653
08668	0.030413	-0.013604	9.775666	0.999998	-0.000490	-0.001877	0.000651
08669	0.027878	-0.012207	9.790075	0.999998	-0.000499	-0.001876	0.000662
08670	0.029375	0.002202	9.788817	0.999998	-0.000500	-0.001861	0.000673
08671	0.014750	-0.011898	9.773344	0.999998	-0.000491	-0.001868	0.000655
08672	0.026697	-0.011963	9.790078	0.999998	-0.000490	-0.001868	0.000677
08673	0.026413	-0.027954	9.776931	0.999998	-0.000496	-0.001859	0.000656
08674	0.025846	-0.011818	9.790081	0.999998	-0.000482	-0.001859	0.000667
08675	0.027473	0.002810	9.788823	0.999998	-0.000483	-0.001855	0.000657
08676	0.008554	-0.008293	9.802162	0.999998	-0.000485	-0.001849	0.000658
08677	0.020483	-0.024505	9.805750	0.999998	-0.000486	-0.001845	0.000650
08678	0.040642	-0.014857	9.778008	0.999998	-0.000482	-0.001835	0.000661
08679	0.009578	-0.025577	9.774609	0.999998	-0.000473	-0.001844	0.000646
08680	0.040026	-0.014599	9.778011	0.999998	-0.000480	-0.001847	0.000637
08681	0.025244	-0.012706	9.775681	0.999998	-0.000467	-0.001838	0.000659
08682	0.024620	0.003482	9.788830	0.999998	-0.000466	-0.001835	0.000637
08683	0.024351	-0.012496	9.775684	0.999998	-0.000468	-0.001829	0.000637
08684	0.019779	-0.025279	9.791351	0.999998	-0.000460	-0.001825	0.000641
08685	0.033660	-0.010838	9.806833	0.999998	-0.000453	-0.001833	0.000652
08686	0.019247	-0.024862	9.791353	0.999998	-0.000446	-0.001839	0.000654
08687	0.021036	-0.010292	9.790094	0.999998	-0.000448	-0.001846	0.000647
08688	0.020672	-0.010212	9.790095	0.999998	-0.000443	-0.001837	0.000638
08689	0.020139	-0.010278	9.790096	0.999998	-0.000459	-0.001826	0.000626
08690	0.019596	-0.010360	9.790097	0.999998	-0.000455	-0.001816	0.000636
08691	0.035719	-0.013636	9.778029	0.999998	-0.000458	-0.001823	0.000640
08692	0.019042	-0.026303	9.776952	0.999998	-0.000461	-0.001818	0.000639
08693	0.018462	-0.010270	9.790099	0.999998	-0.000462	-0.001813	0.000631
08694	0.032608	-0.027973	9.779293	0.999998	-0.000458	-0.001817	0.000611
08695	0.027934	-0.024687	9.808105	0.999998	-0.000450	-0.001812	0.000622
08696	0.019364	0.004518	9.788841	0.999998	-0.000457	-0.001814	0.000615
08697	0.033661	-0.013160	9.778037	0.999998	-0.000443	-0.001828	0.000618
08698	0.035554	-0.014552	9.763633	0.999998	-0.000446	-0.001822	0.000618
08699	0.016454	-0.009653	9.790103	0.999998	-0.000449	-0.001818	0.000630
08700	0.016068	-0.009603	9.790104	0.999998	-0.000446	-0.001819	0.000641
08701	0.048706	-0.000266	9.779123	0.999998	-0.000454	-0.001831	0.000634
08702	0.017729	-0.011107	9.775700	0.999998	-0.000446	-0.001826	0.000657
08703	0.031754	-0.012784	9.778044	0.999998	-0.000448	-0.001833	0.000648
08704	0.019155	0.003633	9.774441	0.999998	-0.000432	-0.001835	0.000637
08705	0.010534	-0.021926	9.805772	0.999998	-0.000427	-0.001837	0.000618
08706	0.028994	-0.026706	9.779308	0.999998	-0.000426	-0.001846	0.000634
08707	0.045181	-0.013985	9.780392	0.999998	-0.000428	-0.001853	0.000626
08708	0.001818	-0.008611	9.773358	0.999998	-0.000429	-0.001850	0.000616
08709	0.013586	-0.008807	9.790108	0.999998	-0.000429	-0.001847	0.000609
08710	0.027454	-0.010517	9.792456	0.999998	-0.000424	-0.001838	0.000617
08711	0.037051	-0.025120	9.810469	0.999998	-0.000424	-0.001823	0.000606
08712	0.012144	-0.008587	9.790111	0.999998	-0.000422	-0.001833	0.000619
08713	0.026162	-0.010273	9.792459	0.999998	-0.000420	-0.001822	0.000631
08714	0.023936	-0.040683	9.780579	0.999998	-0.000422	-0.001829	0.000633
08715	0.013332	-0.009922	9.775708	0.999998	-0.000418	-0.001831	0.000627
08716	0.025305	-0.010135	9.792462	0.999998	-0.000426	-0.001842	0.000622
08717	0.023090	-0.024574	9.793723	0.999998	-0.000421	-0.001843	0.000612
08718	0.012819	-0.009770	9.775709	0.999998	-0.000418	-0.001868	0.000594
08719	0.010238	0.007880	9.803255	0.999998	-0.000419	-0.001852	0.000586
08720	0.053069	-0.013324	9.797166	0.999998	-0.000406	-0.001863	0.000608
08721	0.014237	-0.011099	9.761307	0.999998	-0.000425	-0.001874	0.000601
08722	0.009738	-0.008033	9.790114	0.999998	-0.000417	-0.001881	0.000602
08723	0.021860	-0.024175	9.793727	0.999998	-0.000420	-0.001888	0.000614
08724	0.027973	-0.012842	9.763660	0.999998	-0.000422	-0.001893	0.000615
08725	0.039623	0.003015	9.793558	0.999998	-0.000417	-0.001883	0.000606
08726	0.006490	-0.022201	9.791377	0.999998	-0.000416	-0.001883	0.000618
08727	0.026761	0.003536	9.776804	0.999998	-0.000406	-0.001892	0.000602
08728	0.024441	0.005354	9.791208	0.999998	-0.000395	-0.001903	0.000624
08729	0.038519	-0.012430	9.780422	0.999998	-0.000409	-0.001882	0.000602
08730	0.007503	-0.039441	9.763835	0.999998	-0.000410	-0.001888	0.000592
08731	0.021208	-0.009176	9.792472	0.999998	-0.000410	-0.001882	0.000582
08732	0.023222	-0.026733	9.764930	0.999998	-0.000413	-0.001889	0.000584
08733	0.034976	-0.010776	9.794830	0.999998	-0.000398	-0.001890	0.000577
08734	0.022370	-0.010532	9.778072	0.999998	-0.000418	-0.001880	0.000588
08735	0.017648	-0.007447	9.806878	0.999998	-0.000409	-0.001888	0.000572
08736	0.017560	-0.023283	9.793738	0.999998	-0.000406	-0.001890	0.000575
08737	0.019247	-0.008812	9.792477	0.999998	-0.000412	-0.001891	0.000568
08738	0.006759	-0.008560	9.775716	0.999998	-0.000408	-0.001893	0.000559
08739	0.035137	-0.012013	9.780436	0.999998	-0.000405	-0.001894	0.000562
08740	0.022425	0.004294	9.776815	0.999998	-0.000407	-0.001891	0.000563
08741	0.032322	-0.026387	9.781701	0.999998	-0.000408	-0.001887	0.000565
08742	0.044123	-0.010381	9.811604	0.999998	-0.000390	-0.001906	0.000560
08743	0.017394	-0.008161	9.792481	0.999998	-0.000393	-0.001899	0.000580
08744	0.016906	-0.008194	9.792482	0.999998	-0.000397	-0.001888	0.000560
08745	0.018497	0.006391	9.791220	0.999998	-0.000384	-0.001888	0.000574
08746	0.001824	-0.022127	9.776981	0.999998	-0.000386	-0.001871	0.000584
08747	0.027738	-0.024176	9.796111	0.999998	-0.000394	-0.001860	0.000585
08748	0.015190	-0.023988	9.779346	0.999998	-0.000397	-0.001864	0.000590
08749	0.029085	-0.009720	9.794851	0.999998	-0.000395	-0.001864	0.000611
08750	0.030984	-0.011240	9.780451	0.999998	-0.000398	-0.001869	0.000613
08751	0.012221	-0.022252	9.793749	0.999998	-0.000391	-0.001873	0.000635
08752	0.018052	0.005161	9.776824	0.999998	-0.000397	-0.001863	0.000616
08753	0.023587	-0.022384	9.810518	0.999998	-0.000392	-0.001863	0.000616
08754	0.029539	-0.010931	9.780456	0.999998	-0.000390	-0.001855	0.000619
08755	0.008452	-0.020390	9.808152	0.999998	-0.000389	-0.001861	0.000599
08756	0.028805	-0.010778	9.780458	0.999998	-0.000387	-0.001851	0.000611
08757	0.026246	-0.009151	9.794859	0.999998	-0.000389	-0.001855	0.000604
08758	0.030232	0.003660	9.779197	0.999998	-0.000401	-0.001861	0.000586
