// Start Time: Unknown
// Update Rate: 60.0Hz
// Filter Profile: human (46.1)
// Option Flags: AHS Disabled ICC Disabled 
// Firmware Version: 4.3.5
PacketCounter	Acc_X	Acc_Y	Acc_Z	Quat_q0	Quat_q1	Quat_q2	Quat_q3
43442	9.075611	-1.566721	3.515777	-0.038592	0.562621	-0.072524	0.822623
43443	9.031196	-1.566305	3.462395	-0.038566	0.562711	-0.072599	0.822556
43444	9.007497	-1.578782	3.485599	-0.038592	0.562753	-0.072690	0.822518
43445	9.012150	-1.634586	3.492414	-0.038572	0.562739	-0.072767	0.822522
43446	9.072036	-1.614116	3.491178	-0.038508	0.562713	-0.072787	0.822541
43447	9.103954	-1.614194	3.497572	-0.038382	0.562653	-0.072829	0.822584
43448	9.060012	-1.598649	3.523956	-0.038253	0.562661	-0.072883	0.822580
43449	9.103714	-1.614652	3.497985	-0.038179	0.562700	-0.073039	0.822543
43450	9.075809	-1.643191	3.460019	-0.038152	0.562583	-0.073076	0.822621
43451	9.012187	-1.698575	3.475041	-0.038024	0.562355	-0.073055	0.822784
43452	9.089380	-1.663695	3.528644	-0.037846	0.562141	-0.073021	0.822942
43453	9.095617	-1.582625	3.532227	-0.037679	0.562006	-0.073106	0.823034
43454	9.075131	-1.589517	3.530798	-0.037517	0.561892	-0.073294	0.823103
43455	9.056068	-1.621243	3.557199	-0.037346	0.561615	-0.073458	0.823285
43456	9.096715	-1.636701	3.539590	-0.037057	0.561184	-0.073613	0.823578
43457	9.076640	-1.599110	3.569296	-0.036574	0.560605	-0.073805	0.823976
43458	9.085310	-1.604026	3.582191	-0.036092	0.560101	-0.074015	0.824321
43459	9.055128	-1.589931	3.590848	-0.035695	0.559606	-0.074251	0.824653
43460	8.977208	-1.603684	3.603120	-0.035256	0.558984	-0.074429	0.825079
43461	9.000906	-1.612303	3.604024	-0.034824	0.558427	-0.074527	0.825465
43462	9.013336	-1.573788	3.638461	-0.034441	0.558049	-0.074633	0.825727
43463	8.969348	-1.627319	3.613392	-0.034108	0.557818	-0.074748	0.825887
43464	8.974186	-1.645068	3.616976	-0.033864	0.557540	-0.074774	0.826082
43465	9.028087	-1.631862	3.606003	-0.033644	0.557179	-0.074744	0.826337
43466	9.034034	-1.613561	3.603270	-0.033311	0.556838	-0.074737	0.826581
43467	8.996603	-1.540360	3.661814	-0.032974	0.556551	-0.074782	0.826784
43468	8.957698	-1.516064	3.650586	-0.032701	0.556270	-0.074839	0.826978
43469	8.962388	-1.592889	3.689620	-0.032507	0.556010	-0.074840	0.827161
43470	9.008280	-1.595118	3.687945	-0.032321	0.555796	-0.074801	0.827316
43471	9.012324	-1.546861	3.701389	-0.032062	0.555646	-0.074720	0.827433
43472	8.924505	-1.551106	3.705118	-0.031797	0.555348	-0.074595	0.827655
43473	8.934109	-1.547411	3.758850	-0.031465	0.555112	-0.074476	0.827837
43474	8.964731	-1.542713	3.770486	-0.031047	0.554866	-0.074450	0.828020
43475	9.038208	-1.531397	3.729095	-0.031072	0.554802	-0.074502	0.828057
43476	8.983617	-1.692210	3.800289	-0.031271	0.554610	-0.074437	0.828184
43477	8.949096	-1.786438	3.657651	-0.031124	0.554744	-0.074236	0.828118
43478	9.010090	-1.535937	3.631766	-0.030986	0.555097	-0.073889	0.827917
43479	9.084011	-1.477622	3.678222	-0.030864	0.555383	-0.073716	0.827746
43480	9.034943	-1.441168	3.700619	-0.030611	0.555555	-0.073802	0.827632
43481	8.911728	-1.547595	3.761038	-0.030383	0.555748	-0.073871	0.827505
43482	8.895226	-1.631954	3.676024	-0.030288	0.556133	-0.073714	0.827264
43483	8.955788	-1.643295	3.688863	-0.030225	0.556715	-0.073448	0.826898
43484	9.024515	-1.560947	3.582470	-0.030135	0.557204	-0.073287	0.826586
43485	9.058574	-1.486042	3.625616	-0.029866	0.557254	-0.073356	0.826556
43486	9.033148	-1.521315	3.693121	-0.029440	0.556946	-0.073329	0.826782
43487	9.085671	-1.508823	3.694031	-0.029007	0.556833	-0.073450	0.826862
43488	9.083328	-1.549049	3.671312	-0.028714	0.556918	-0.073489	0.826811
43489	8.872221	-1.631882	3.739107	-0.028386	0.556886	-0.073572	0.826837
43490	8.937896	-1.642078	3.672293	-0.027993	0.556981	-0.073586	0.826785
43491	9.075038	-1.552800	3.735691	-0.027584	0.557452	-0.073601	0.826480
43492	9.072357	-1.538340	3.694050	-0.027158	0.558085	-0.073785	0.826050
43493	8.990943	-1.554158	3.646799	-0.026671	0.558689	-0.074072	0.825632
43494	8.966493	-1.636370	3.690801	-0.026099	0.559067	-0.074265	0.825377
43495	9.028552	-1.678671	3.688009	-0.025655	0.559106	-0.074397	0.825353
43496	9.217910	-1.673629	3.597764	-0.025294	0.559258	-0.074446	0.825257
43497	9.219624	-1.691316	3.482214	-0.025048	0.559647	-0.074496	0.824996
43498	9.120375	-1.662653	3.491471	-0.024798	0.560035	-0.074523	0.824738
43499	8.957823	-1.618491	3.556753	-0.024465	0.560139	-0.074532	0.824676
43500	9.108907	-1.600787	3.612358	-0.024247	0.560316	-0.074510	0.824564
43501	9.215145	-1.511899	3.656670	-0.024137	0.560602	-0.074638	0.824361
43502	9.047068	-1.463285	3.632496	-0.023901	0.560751	-0.074981	0.824236
43503	8.915474	-1.469065	3.623918	-0.023655	0.560643	-0.075238	0.824293
43504	9.042682	-1.491315	3.536559	-0.023761	0.560675	-0.075420	0.824252
43505	9.180166	-1.517667	3.549726	-0.024309	0.561169	-0.075724	0.823872
43506	9.191818	-1.525406	3.488443	-0.025365	0.562259	-0.076288	0.823044
43507	9.224427	-1.492978	3.262184	-0.026733	0.563671	-0.077127	0.821956
43508	9.081346	-1.395717	3.214829	-0.027996	0.564897	-0.078011	0.820988
43509	9.020362	-1.480941	3.228441	-0.028829	0.565723	-0.078636	0.820331
43510	8.942845	-1.590711	3.213711	-0.029507	0.566130	-0.078840	0.820007
43511	8.862990	-1.662043	3.469105	-0.030008	0.566341	-0.078829	0.819844
43512	8.951683	-1.677714	3.280573	-0.030770	0.566602	-0.078544	0.819662
43513	9.073937	-1.654067	3.391944	-0.031745	0.566770	-0.078143	0.819547
43514	9.102384	-1.722116	3.458990	-0.032216	0.566809	-0.077892	0.819526
43515	9.175731	-1.651785	3.376682	-0.032310	0.566961	-0.077577	0.819446
43516	9.150308	-1.575509	3.338417	-0.032567	0.567139	-0.077164	0.819352
43517	9.153743	-1.597076	3.363075	-0.032797	0.567224	-0.076834	0.819316
43518	9.126245	-1.587747	3.330119	-0.032796	0.567229	-0.076487	0.819345
43519	8.966009	-1.562256	3.430939	-0.032727	0.567218	-0.076104	0.819390
43520	8.914772	-1.519141	3.518285	-0.032602	0.567487	-0.075778	0.819240
43521	8.940808	-1.526653	3.585430	-0.032377	0.568140	-0.075639	0.818808
43522	9.002892	-1.515330	3.560598	-0.032186	0.569299	-0.075726	0.818003
43523	9.103579	-1.537555	3.509453	-0.032111	0.570871	-0.075959	0.816888
43524	9.135152	-1.573731	3.438545	-0.032114	0.572613	-0.076135	0.815651
43525	9.201563	-1.508574	3.359212	-0.032113	0.574304	-0.076371	0.814439
43526	9.131730	-1.564220	3.495769	-0.032037	0.575931	-0.076620	0.813269
43527	9.086406	-1.618009	3.512051	-0.031935	0.577954	-0.076854	0.811814
43528	9.085612	-1.666090	3.290436	-0.032080	0.580002	-0.076638	0.810367
43529	9.176934	-1.610483	3.291930	-0.032010	0.582196	-0.076452	0.808813
43530	8.979085	-1.580430	3.364821	-0.031769	0.585047	-0.076549	0.806753
43531	8.968308	-1.424971	3.215286	-0.031339	0.588364	-0.076854	0.804325
43532	9.284584	-1.468697	2.996505	-0.030800	0.591612	-0.077417	0.801906
43533	9.310563	-1.561539	3.028270	-0.030440	0.594390	-0.077702	0.799835
43534	9.135901	-1.602316	3.113362	-0.029793	0.597554	-0.078622	0.797409
43535	9.045967	-1.616870	3.107962	-0.028956	0.601516	-0.079531	0.794364
43536	9.346812	-1.689591	2.805202	-0.028160	0.605783	-0.080156	0.791081
43537	9.648179	-1.843825	2.526146	-0.027435	0.609635	-0.079877	0.788170
43538	10.100416	-1.430842	2.158017	-0.027583	0.613438	-0.079022	0.785295
43539	9.871453	-1.453436	1.801209	-0.027746	0.615443	-0.078673	0.783755
43540	9.657618	-1.585221	2.144562	-0.027728	0.616785	-0.078330	0.782733
43541	9.531682	-1.490528	1.954014	-0.027797	0.617592	-0.077471	0.782180
43542	9.475611	-1.371408	2.231256	-0.027575	0.617889	-0.076403	0.782059
43543	9.371019	-1.415769	2.054735	-0.027381	0.617649	-0.075775	0.782315
43544	9.712290	-1.437126	2.037183	-0.027141	0.617312	-0.075305	0.782635
43545	9.637553	-1.460527	2.139696	-0.026763	0.617261	-0.075023	0.782716
43546	9.752055	-1.412797	1.823827	-0.026355	0.617286	-0.075243	0.782689
43547	9.667293	-1.239557	1.976471	-0.026354	0.617125	-0.075775	0.782765
43548	9.359275	-1.153001	2.098131	-0.025857	0.616566	-0.076660	0.783135
43549	9.116782	-1.438261	2.254498	-0.024871	0.616139	-0.077776	0.783393
43550	9.223978	-1.759382	1.794686	-0.024096	0.616015	-0.078145	0.783478
43551	9.149145	-1.947158	2.338874	-0.023426	0.615891	-0.077688	0.783642
43552	9.115647	-1.975685	2.102625	-0.023229	0.616440	-0.076332	0.783349
43553	9.391628	-1.614446	1.768352	-0.023043	0.616922	-0.074652	0.783137
43554	9.451787	-1.222315	1.958859	-0.022102	0.617066	-0.073373	0.783172
43555	9.499509	-1.366300	1.910913	-0.020405	0.617166	-0.072461	0.783223
43556	9.434762	-1.406801	2.114538	-0.018809	0.617631	-0.071337	0.783000
43557	9.530716	-1.654611	1.991596	-0.017989	0.618309	-0.069846	0.782619
43558	9.353489	-1.357658	2.252910	-0.017102	0.618876	-0.068047	0.782349
43559	9.270338	-1.178509	2.324793	-0.015641	0.619828	-0.066599	0.781750
43560	9.487977	-1.239778	2.005236	-0.014034	0.620904	-0.065310	0.781035
43561	9.590179	-1.207767	1.967278	-0.012581	0.622038	-0.064069	0.780260
43562	9.633111	-1.203293	1.940367	-0.011316	0.622915	-0.062973	0.779668
43563	9.462541	-1.008617	2.239020	-0.009777	0.623485	-0.062342	0.779284
43564	9.299560	-0.915203	1.954314	-0.007823	0.624086	-0.061995	0.778853
43565	9.220938	-1.127839	1.944282	-0.005667	0.625358	-0.061888	0.777859
43566	8.932296	-1.134407	2.339130	-0.003737	0.626756	-0.061286	0.776793
43567	8.580262	-1.061874	2.493289	-0.001691	0.628493	-0.060445	0.775461
43568	8.688942	-1.227943	2.291370	0.000286	0.630572	-0.059388	0.773855
43569	8.947379	-1.169960	2.532628	0.001860	0.632622	-0.057799	0.772298
43570	9.350794	-0.930590	2.369396	0.002774	0.634974	-0.056147	0.770486
43571	9.581166	-0.841810	2.316976	0.003527	0.637698	-0.054945	0.768316
43572	9.459769	-0.779024	2.290896	0.004368	0.640647	-0.054026	0.765920
43573	9.240013	-0.741594	2.426508	0.004740	0.643720	-0.052963	0.763411
43574	8.927522	-0.826772	2.525497	0.003827	0.647266	-0.051777	0.760494
43575	9.459941	-0.601247	2.151360	0.001614	0.651422	-0.050906	0.757004
43576	9.245941	-0.319029	2.118141	-0.000560	0.656030	-0.050747	0.753026
43577	8.693615	-0.246993	2.057156	-0.002508	0.660597	-0.051007	0.749001
43578	8.295159	-0.547151	2.014186	-0.005184	0.665070	-0.050857	0.745030
43579	8.636509	-0.735998	1.740978	-0.008963	0.669867	-0.050363	0.740717
43580	9.463644	-0.718173	1.192063	-0.012485	0.674999	-0.050525	0.735981
43581	9.871870	-0.541322	0.730037	-0.014274	0.680082	-0.051716	0.731170
43582	9.497845	-0.607622	1.122145	-0.014700	0.685237	-0.053504	0.726203
43583	8.940385	-0.595004	1.525174	-0.015318	0.690268	-0.055163	0.721285
43584	9.001423	-0.761310	1.728025	-0.016504	0.695299	-0.056577	0.716301
43585	9.232924	-0.438762	1.201921	-0.017224	0.700313	-0.057524	0.711305
43586	8.716156	-0.397107	0.140918	-0.015457	0.705246	-0.059203	0.706317
43587	8.156554	-0.684428	-0.495988	-0.012247	0.709912	-0.060834	0.701552
43588	8.032767	-1.187405	0.347801	-0.009529	0.715240	-0.061978	0.696061
43589	7.705531	-1.298750	0.938631	-0.008756	0.722376	-0.062612	0.688605
43590	7.293931	-0.920451	0.250647	-0.009619	0.730869	-0.062962	0.679540
43591	7.329401	-0.979346	-0.351810	-0.011319	0.740054	-0.063138	0.669482
43592	7.919494	-0.928848	-0.973817	-0.012597	0.748799	-0.063252	0.659651
43593	8.764013	-0.799374	-0.905434	-0.012387	0.756876	-0.064158	0.650284
43594	9.034056	-0.946237	-1.452466	-0.012398	0.764017	-0.064996	0.641794
43595	9.473833	-0.757569	-1.633793	-0.012325	0.770489	-0.066134	0.633893
43596	9.279082	-0.733623	-2.010564	-0.012804	0.776815	-0.067362	0.625985
43597	9.263209	-0.835812	-2.581861	-0.013250	0.783141	-0.068696	0.617896
43598	9.356502	-1.010784	-3.367152	-0.013281	0.789147	-0.070085	0.610048
43599	9.786533	-1.141377	-3.727341	-0.012439	0.794382	-0.071642	0.603050
43600	10.256552	-1.242480	-4.358236	-0.012263	0.799146	-0.073038	0.596557
43601	11.748908	-1.584602	-5.018432	-0.011656	0.803131	-0.074678	0.590989
43602	12.229626	-1.899371	-5.217891	-0.011862	0.806430	-0.076028	0.586302
43603	12.646307	-2.003911	-5.875243	-0.012834	0.809202	-0.077076	0.582312
43604	12.698427	-1.964526	-5.828751	-0.013114	0.811019	-0.078262	0.579614
43605	12.725001	-1.931527	-5.852704	-0.013408	0.812303	-0.079182	0.577680
43606	13.463971	-1.956588	-6.246801	-0.012841	0.812609	-0.080239	0.577117
43607	13.547128	-2.148122	-6.135101	-0.012562	0.811957	-0.080867	0.577952
43608	13.398515	-2.025087	-6.141649	-0.012980	0.810574	-0.081195	0.579836
43609	13.086189	-1.832423	-5.929912	-0.013468	0.808318	-0.081370	0.582941
43610	12.816968	-1.650794	-5.582999	-0.013624	0.805204	-0.081502	0.587212
43611	12.532267	-1.645898	-5.245719	-0.013477	0.801265	-0.081449	0.592586
43612	12.199463	-1.722130	-4.926995	-0.013328	0.796445	-0.081117	0.599098
43613	11.723750	-1.801099	-4.576891	-0.013146	0.790729	-0.080596	0.606695
43614	11.230063	-1.783895	-4.294019	-0.013044	0.784144	-0.079884	0.615278
43615	10.750594	-1.714101	-3.879190	-0.013210	0.776745	-0.079077	0.624691
43616	10.286949	-1.603779	-3.629806	-0.013684	0.768688	-0.078185	0.634681
43617	9.866834	-1.562238	-3.212647	-0.014352	0.759979	-0.077210	0.645186
43618	9.456664	-1.498068	-2.824039	-0.015338	0.750736	-0.075994	0.656038
43619	8.883441	-1.426889	-2.367646	-0.016481	0.741115	-0.074489	0.667029
43620	8.431410	-1.399515	-1.806605	-0.017634	0.731177	-0.072788	0.678064
43621	8.161322	-1.376713	-1.393873	-0.018897	0.721167	-0.070737	0.688881
43622	7.945350	-1.341620	-0.757373	-0.019804	0.711335	-0.068792	0.699198
43623	7.949918	-1.501643	-0.326447	-0.020504	0.701328	-0.066781	0.709407
43624	7.857069	-1.267475	0.367625	-0.021284	0.691166	-0.064486	0.719498
43625	7.492184	-1.057876	0.538432	-0.022680	0.681082	-0.061529	0.729265
43626	7.386837	-0.947732	0.585731	-0.024170	0.671126	-0.058644	0.738624
43627	7.332262	-1.027433	1.002815	-0.025438	0.661098	-0.055977	0.747776
43628	7.197089	-1.139857	1.306765	-0.026754	0.651453	-0.053368	0.756337
43629	7.310059	-1.041692	1.453505	-0.028293	0.642396	-0.050739	0.764168
43630	7.569858	-0.937226	1.413461	-0.030092	0.633728	-0.047908	0.771484
43631	7.898493	-0.931344	1.510610	-0.031997	0.625282	-0.044903	0.778449
43632	7.941806	-0.889220	1.721210	-0.033821	0.616851	-0.041863	0.785238
43633	7.970650	-0.862494	1.870524	-0.035686	0.608373	-0.038668	0.791905
43634	8.082675	-0.823151	1.910567	-0.037618	0.599743	-0.035348	0.798526
43635	8.324295	-0.695537	2.175352	-0.039417	0.590484	-0.032139	0.805445
43636	8.336413	-0.560875	2.644319	-0.041132	0.580692	-0.028973	0.812567
43637	8.122791	-0.428024	3.224844	-0.042888	0.570641	-0.025838	0.819672
43638	8.026884	-0.452526	3.328737	-0.044769	0.560316	-0.022563	0.826760
43639	8.039001	-0.347468	3.747089	-0.046685	0.549824	-0.019313	0.833751
43640	7.951433	-0.205145	3.985366	-0.048531	0.539413	-0.016076	0.840488
43641	7.610990	-0.028633	4.549378	-0.050251	0.529378	-0.013027	0.846796
43642	7.246633	0.032929	4.967591	-0.052176	0.520351	-0.009814	0.852301
43643	7.331383	0.133147	5.390345	-0.054003	0.512151	-0.006850	0.857169
43644	7.965675	0.005755	5.944646	-0.055479	0.504393	-0.004329	0.861679
43645	8.658307	-0.138112	6.359663	-0.056516	0.496545	-0.002223	0.866166
43646	8.683880	-0.038269	6.895449	-0.057104	0.489153	-0.000442	0.870326
43647	8.290044	0.281085	7.544884	-0.057222	0.482588	0.000971	0.873976
43648	7.762556	0.428257	7.952833	-0.056531	0.477396	0.001774	0.876866
43649	7.467753	0.322399	7.583930	-0.055051	0.473894	0.001896	0.878858
43650	7.545318	0.063770	7.189979	-0.053098	0.471458	0.001756	0.880287
43651	7.893106	0.196253	7.109987	-0.051100	0.469884	0.001921	0.881246
43652	8.030419	0.396064	7.465142	-0.048812	0.469363	0.001711	0.881654
43653	8.093554	0.514598	7.687187	-0.046344	0.469828	0.001116	0.881540
43654	8.282373	0.368343	7.438299	-0.043890	0.471074	0.000125	0.881001
43655	8.386264	0.193891	7.136837	-0.041522	0.472907	-0.001301	0.880132
43656	8.248157	-0.051390	6.466998	-0.039291	0.475724	-0.003120	0.878711
43657	8.115398	-0.325220	6.232693	-0.037134	0.479283	-0.005405	0.876858
43658	7.731541	-0.104321	6.393479	-0.035089	0.483599	-0.007878	0.874551
43659	7.448491	-0.301972	6.003000	-0.032993	0.488857	-0.010613	0.871675
43660	7.509238	-0.714049	5.435256	-0.030999	0.494860	-0.013559	0.868314
43661	7.865430	-0.960844	5.070145	-0.029443	0.501368	-0.016615	0.864574
43662	8.110745	-1.212301	5.329371	-0.028157	0.508131	-0.020012	0.860587
43663	8.217499	-1.421823	5.350670	-0.026983	0.515153	-0.023805	0.856343
43664	8.224317	-1.614519	5.365643	-0.026001	0.522405	-0.027509	0.851857
43665	8.082630	-1.687034	5.106058	-0.025124	0.529918	-0.030740	0.847119
43666	7.788736	-1.863290	4.691090	-0.024306	0.537776	-0.033309	0.842079
43667	7.568362	-1.989050	4.483584	-0.023396	0.546076	-0.035429	0.836659
43668	7.434477	-1.967240	4.447362	-0.022374	0.554909	-0.037175	0.830779
43669	7.360575	-2.019413	4.088595	-0.021397	0.564616	-0.038257	0.824189
43670	7.437785	-1.868616	3.983490	-0.020057	0.574756	-0.038689	0.817163
43671	7.348851	-1.723246	3.427484	-0.018456	0.585535	-0.038159	0.809538
43672	7.007884	-1.442581	2.835843	-0.016371	0.596770	-0.036793	0.801402
43673	6.740274	-1.108853	2.253818	-0.014197	0.608715	-0.034313	0.792519
43674	6.874146	-0.769904	1.812140	-0.011576	0.621072	-0.031178	0.783048
43675	7.224168	-0.493140	1.642952	-0.008584	0.633515	-0.027478	0.773195
43676	7.361255	0.025312	1.535206	-0.005379	0.645797	-0.023392	0.763132
43677	7.500428	0.450087	1.432323	-0.001936	0.658039	-0.019205	0.752737
43678	7.512977	0.815928	0.997740	0.001490	0.669878	-0.014988	0.742318
43679	7.360998	0.981552	0.705595	0.004814	0.681496	-0.010976	0.731724
43680	7.464138	0.956232	0.334894	0.007891	0.693348	-0.007409	0.720522
43681	7.630872	0.942746	-0.271634	0.010825	0.705157	-0.004645	0.708954
43682	7.827972	1.080290	-0.805804	0.013249	0.716730	-0.002799	0.697219
43683	8.180423	1.158242	-1.397975	0.014508	0.728490	-0.001692	0.684901
43684	9.038017	1.183292	-2.269524	0.014655	0.740120	-0.001515	0.672314
43685	9.746253	0.910617	-2.477677	0.014008	0.751099	-0.002385	0.660037
43686	10.213378	0.704666	-2.307645	0.012700	0.761020	-0.004409	0.648589
43687	10.411717	0.585161	-2.203733	0.010337	0.769560	-0.007276	0.638449
43688	10.430899	0.373873	-2.678774	0.006679	0.777094	-0.010895	0.629255
43689	10.376991	0.399244	-3.338881	0.001928	0.783862	-0.015241	0.620744
43690	10.263758	0.269462	-4.034368	-0.003557	0.790332	-0.020704	0.612319
43691	10.236227	0.013061	-4.184238	-0.009522	0.795985	-0.027492	0.604616
43692	10.212944	-0.446642	-4.211168	-0.017191	0.800842	-0.034648	0.597625
43693	10.610268	-0.760067	-4.715082	-0.026263	0.805326	-0.042083	0.590753
43694	11.099170	-1.090330	-5.138092	-0.036309	0.809113	-0.049727	0.584418
43695	11.316179	-1.297880	-5.666906	-0.046980	0.811807	-0.057399	0.579196
43696	11.440905	-1.458928	-6.056497	-0.057828	0.813372	-0.065391	0.575157
43697	11.846228	-1.855977	-6.309308	-0.069082	0.813898	-0.073625	0.572169
43698	12.333737	-2.379267	-6.397782	-0.080827	0.813127	-0.082073	0.570575
43699	12.552721	-2.782831	-6.161168	-0.092724	0.810841	-0.090701	0.570712
43700	12.515100	-3.130849	-6.032726	-0.104738	0.807034	-0.099237	0.572607
43701	12.144339	-3.563927	-6.060255	-0.116472	0.801585	-0.107824	0.576428
43702	11.917329	-4.325282	-5.624831	-0.127891	0.794667	-0.116278	0.581917
43703	11.693698	-4.920264	-5.604628	-0.139141	0.786310	-0.124081	0.589033
43704	11.298860	-5.225716	-5.414818	-0.149205	0.776528	-0.131453	0.597881
43705	11.099226	-5.481048	-4.947685	-0.157824	0.765740	-0.138673	0.607867
43706	11.046449	-5.563392	-4.272616	-0.165658	0.753815	-0.145571	0.618975
43707	10.620990	-5.820121	-3.461188	-0.172727	0.740751	-0.152283	0.631081
43708	9.961382	-6.282438	-3.127416	-0.179056	0.726826	-0.158197	0.643923
43709	9.293906	-6.323991	-2.647752	-0.183875	0.712521	-0.163306	0.657142
43710	8.691620	-6.375599	-2.121985	-0.187333	0.698222	-0.167418	0.670345
43711	8.560248	-6.499810	-1.730572	-0.189688	0.683916	-0.170442	0.683540
43712	8.598627	-6.598208	-1.444831	-0.190673	0.669516	-0.172387	0.696903
43713	8.208196	-6.363692	-0.331990	-0.189175	0.654520	-0.173916	0.711034
43714	7.503480	-6.175970	0.713372	-0.185592	0.639267	-0.174642	0.725530
43715	6.982691	-5.883781	0.702590	-0.181773	0.624232	-0.173181	0.739799
43716	6.852448	-5.430125	0.699133	-0.176980	0.609590	-0.169928	0.753792
43717	6.617676	-5.439218	1.127803	-0.170467	0.595291	-0.165841	0.767506
43718	6.223560	-5.391110	1.937339	-0.162698	0.580966	-0.160671	0.781149
43719	5.889209	-5.087056	2.566596	-0.154230	0.566809	-0.154149	0.794468
43720	5.565023	-4.661554	2.871177	-0.144999	0.552803	-0.146433	0.807429
43721	5.589137	-4.178870	3.306055	-0.134898	0.538760	-0.137951	0.820067
43722	5.573065	-3.668202	3.957629	-0.124127	0.525048	-0.128881	0.832050
43723	5.411006	-3.390067	4.256793	-0.113116	0.511984	-0.119110	0.843143
43724	5.129744	-2.920762	4.901884	-0.101941	0.500075	-0.109011	0.853024
43725	4.775904	-2.524012	5.033904	-0.090826	0.489160	-0.098563	0.861834
43726	4.342380	-1.985396	5.683782	-0.079993	0.479473	-0.087841	0.869477
43727	4.373973	-1.637115	5.673105	-0.069806	0.471279	-0.076475	0.875885
43728	4.702094	-1.110388	6.039406	-0.059744	0.464379	-0.065138	0.881215
43729	4.817642	-0.847071	6.532387	-0.049674	0.458476	-0.053772	0.885687
43730	5.020490	-0.608705	6.483810	-0.039748	0.453747	-0.042235	0.889241
43731	5.264238	-0.352988	6.534332	-0.029953	0.450050	-0.030725	0.891972
43732	5.567855	0.090950	6.634128	-0.020481	0.447254	-0.019077	0.893969
43733	6.077978	0.392980	6.909022	-0.011116	0.445317	-0.007493	0.895273
43734	6.599672	0.454272	7.260433	-0.001753	0.443866	0.004009	0.896082
43735	6.783697	0.590511	7.874056	0.007533	0.442930	0.015471	0.896391
43736	6.684790	0.862878	7.688613	0.016691	0.443052	0.027003	0.895934
43737	6.396046	1.373295	7.191693	0.025878	0.444508	0.038366	0.894579
43738	6.037854	1.793974	6.884689	0.035167	0.447623	0.049494	0.892159
43739	5.721985	2.192413	6.747636	0.044684	0.452133	0.060291	0.888788
43740	5.687749	2.510103	6.303428	0.054217	0.457715	0.070893	0.884608
43741	5.621051	3.007717	6.156287	0.063877	0.463990	0.081191	0.879796
43742	5.654602	3.310037	5.573854	0.073333	0.470990	0.091520	0.874308
43743	5.475533	3.933886	5.457829	0.082653	0.478688	0.101684	0.868151
43744	5.707853	4.307947	4.860514	0.091725	0.487729	0.111477	0.860976
43745	6.229778	4.549096	4.477264	0.100553	0.497496	0.120612	0.853135
43746	6.844133	4.459529	4.261378	0.108667	0.507835	0.129349	0.844727
43747	7.122201	4.468912	4.416789	0.115811	0.518698	0.137864	0.835784
43748	7.395769	4.524557	4.347283	0.121894	0.530207	0.146023	0.826256
43749	7.817813	4.948893	3.780026	0.127340	0.542183	0.153043	0.816333
43750	7.980459	5.222748	3.924130	0.131906	0.554307	0.159102	0.806245
43751	8.027193	5.107644	3.515636	0.135488	0.566995	0.164073	0.795764
43752	8.072792	4.804069	3.020684	0.138136	0.580166	0.168060	0.784908
43753	8.335816	4.708391	2.275127	0.140157	0.593814	0.170729	0.773687
43754	8.517722	4.682651	1.973629	0.141542	0.607350	0.172257	0.762509
43755	8.186897	4.827366	1.492965	0.142079	0.621334	0.172785	0.750935
43756	8.072541	4.620036	0.741747	0.141803	0.636064	0.172056	0.738723
43757	8.443746	4.259603	0.244762	0.140623	0.651144	0.170457	0.726072
43758	8.762085	4.076409	-0.454302	0.138363	0.666177	0.168626	0.713182
43759	9.272070	3.843235	-0.777964	0.135594	0.680481	0.166278	0.700651
43760	9.515165	3.639650	-0.849176	0.132007	0.693906	0.163706	0.688672
43761	9.321618	3.710034	-0.863327	0.127696	0.706360	0.160677	0.677445
43762	9.040391	3.646264	-0.981736	0.122570	0.718349	0.157192	0.666514
43763	8.771913	3.415945	-1.083722	0.117112	0.729978	0.153056	0.655737
43764	8.907955	3.176104	-1.389231	0.111077	0.741549	0.148587	0.644739
43765	9.008576	2.974582	-1.403922	0.104550	0.752604	0.143817	0.634013
43766	9.080696	2.673705	-1.715228	0.097177	0.763338	0.138977	0.623344
43767	9.142683	2.590764	-2.033191	0.089344	0.773566	0.133835	0.612945
43768	9.007628	2.479003	-2.627233	0.081412	0.783475	0.128012	0.602621
43769	9.110547	2.278153	-3.615056	0.073005	0.793245	0.121498	0.592174
43770	9.467645	2.344963	-3.695234	0.064477	0.801995	0.114315	0.582733
43771	9.780949	2.147777	-4.396380	0.055293	0.810220	0.106394	0.573731
43772	10.415490	2.160961	-4.519942	0.046064	0.817639	0.097554	0.565533
43773	10.698631	2.127369	-5.070397	0.036379	0.824250	0.088251	0.558123
43774	10.969145	2.098255	-5.333526	0.026383	0.830176	0.078319	0.551342
43775	11.145994	1.907445	-5.557487	0.015442	0.835200	0.068076	0.545499
43776	11.084833	1.527017	-5.644016	0.003744	0.839255	0.057316	0.540696
43777	10.899221	0.982654	-5.666308	-0.008748	0.842117	0.046005	0.537258
43778	10.500793	0.607729	-5.859189	-0.021842	0.843816	0.034143	0.535100
43779	10.162322	0.429825	-6.008972	-0.035215	0.844611	0.021722	0.533779
43780	9.817006	-0.035099	-5.734150	-0.047968	0.844620	0.008689	0.533142
43781	9.462866	-0.575344	-5.663090	-0.060087	0.843720	-0.004751	0.533389
43782	9.294767	-1.252610	-5.864160	-0.071666	0.841971	-0.018596	0.534418
43783	9.523043	-1.798242	-5.870053	-0.083000	0.839177	-0.032699	0.536491
43784	9.531879	-2.072857	-5.266637	-0.093741	0.835368	-0.047136	0.539584
43785	9.617772	-2.508977	-5.645212	-0.105039	0.830775	-0.061476	0.543139
43786	9.674783	-2.951670	-5.883489	-0.116554	0.825104	-0.075713	0.547619
43787	9.852445	-3.250870	-5.807269	-0.127836	0.818132	-0.089769	0.553408
43788	9.842272	-3.211631	-5.704674	-0.138101	0.810157	-0.103760	0.560186
43789	9.782513	-3.439332	-5.651383	-0.146998	0.801291	-0.117444	0.567919
43790	9.247344	-3.964572	-5.307092	-0.154491	0.791026	-0.130568	0.577375
43791	8.592237	-5.269000	-4.710270	-0.160785	0.780068	-0.143183	0.587487
43792	8.399660	-6.176571	-4.223843	-0.165825	0.768158	-0.154998	0.598675
43793	8.345569	-6.219356	-3.720120	-0.169361	0.755463	-0.165810	0.610818
43794	7.818126	-5.963387	-2.921090	-0.171553	0.742834	-0.175550	0.622856
43795	7.860863	-6.074734	-2.763948	-0.172714	0.730405	-0.184334	0.634586
43796	8.113796	-6.284426	-2.607608	-0.173003	0.717679	-0.192213	0.646577
43797	8.387530	-6.574935	-1.927676	-0.172241	0.704662	-0.199383	0.658811
43798	8.173548	-6.575407	-1.180066	-0.170829	0.691540	-0.205512	0.671084
43799	7.999944	-6.589724	-0.832061	-0.169173	0.678745	-0.209934	0.683091
43800	8.210942	-6.543879	-0.573935	-0.166860	0.665775	-0.212852	0.695410
43801	8.022342	-6.498881	-0.334625	-0.163589	0.652479	-0.214563	0.708147
43802	7.521482	-6.430594	0.448710	-0.159217	0.639029	-0.215304	0.721065
43803	7.122770	-6.378535	1.172264	-0.153947	0.625689	-0.215267	0.733808
43804	7.037614	-6.196737	1.568736	-0.148335	0.612309	-0.213926	0.746532
43805	7.019603	-5.876854	2.150030	-0.142285	0.599265	-0.211381	0.758917
43806	6.917530	-5.592016	2.516100	-0.135684	0.586813	-0.208013	0.770695
43807	6.826759	-5.576586	3.451342	-0.128688	0.575083	-0.203755	0.781795
43808	6.774207	-5.104959	3.990844	-0.121999	0.563703	-0.198302	0.792485
43809	6.897867	-4.782627	4.087292	-0.115648	0.553361	-0.191626	0.802307
43810	6.857582	-4.442546	4.055750	-0.109221	0.543876	-0.184209	0.811379
43811	6.602115	-4.223813	4.628559	-0.102524	0.535237	-0.176170	0.819740
43812	6.284185	-3.833480	4.913049	-0.095755	0.527711	-0.167184	0.827286
43813	6.102930	-3.343389	4.976203	-0.088859	0.521136	-0.157431	0.834108
43814	6.094509	-2.720679	4.905819	-0.081806	0.515291	-0.147221	0.840303
43815	6.161650	-2.338865	4.897368	-0.074711	0.510173	-0.136818	0.845826
43816	6.244010	-1.940633	5.036382	-0.067850	0.505864	-0.126316	0.850613
43817	6.288881	-1.534834	5.332264	-0.061283	0.502624	-0.115863	0.854511
43818	6.345691	-1.170912	5.238518	-0.054808	0.500423	-0.105690	0.857556
43819	6.462785	-1.038613	5.037645	-0.048453	0.499134	-0.095867	0.859841
43820	6.764262	-0.860794	5.304189	-0.042304	0.498318	-0.086288	0.861652
43821	7.063881	-0.439438	5.965296	-0.035945	0.497924	-0.077615	0.862992
43822	7.353689	-0.313642	6.230087	-0.029758	0.497814	-0.069223	0.864005
43823	7.743468	-0.403024	6.327498	-0.023409	0.497895	-0.061548	0.864734
43824	7.887490	-0.237734	6.266969	-0.017104	0.498508	-0.054301	0.865014
43825	7.740223	0.012497	6.105249	-0.010749	0.500198	-0.047684	0.864530
43826	7.701166	0.223548	5.876402	-0.004412	0.502645	-0.041582	0.863481
43827	7.543244	0.298177	5.931015	0.001663	0.505770	-0.035921	0.861918
43828	7.663907	0.243739	5.613881	0.007203	0.509832	-0.030691	0.859696
43829	8.526380	0.112290	5.327395	0.012075	0.514529	-0.025866	0.856998
43830	9.018199	0.348932	5.223033	0.016234	0.519340	-0.021235	0.854150
43831	8.658422	0.373655	5.118990	0.020046	0.524236	-0.016954	0.851168
43832	7.934007	0.263500	4.770768	0.023042	0.529270	-0.012764	0.848045
43833	7.896900	0.279968	4.440774	0.024818	0.534697	-0.008585	0.844635
43834	8.670572	0.187897	4.362650	0.025782	0.540213	-0.004934	0.841119
43835	9.479525	-0.053364	4.164442	0.026321	0.545204	-0.001974	0.837888
43836	9.867968	-0.171027	3.998531	0.026543	0.549228	0.000435	0.835251
43837	9.360212	-0.179013	4.167236	0.026357	0.552587	0.002415	0.833035
43838	8.387597	-0.234741	4.068584	0.025536	0.555948	0.004228	0.830814
43839	7.714307	-0.425823	3.651555	0.024038	0.559970	0.005708	0.828144
43840	7.843675	-0.690562	3.552316	0.021960	0.564412	0.006572	0.825175
43841	8.671343	-1.109107	3.411639	0.019845	0.568867	0.006509	0.822165
43842	9.281374	-1.419957	3.754279	0.017882	0.572908	0.005704	0.819404
43843	9.561736	-1.443360	4.164903	0.016379	0.576566	0.004416	0.816874
43844	9.296517	-1.096512	4.427656	0.015436	0.579820	0.003129	0.814592
43845	8.923919	-0.667514	3.817709	0.015138	0.583168	0.001818	0.812209
43846	8.602549	-0.280146	3.776117	0.015934	0.586667	0.000192	0.809671
43847	8.290096	-0.140830	3.583701	0.018196	0.590333	-0.001914	0.806953
43848	8.525834	-0.155589	3.015091	0.022272	0.594212	-0.005030	0.803984
43849	8.956880	-0.033827	2.530605	0.028228	0.598331	-0.009540	0.800695
43850	9.114374	0.238745	2.127922	0.035450	0.602944	-0.015431	0.796846
43851	9.315631	0.124752	1.826936	0.044592	0.607457	-0.023234	0.792760
43852	10.140877	0.076670	1.708947	0.055679	0.611198	-0.032661	0.788841
43853	10.591584	0.396012	2.037819	0.068904	0.613578	-0.043556	0.785415
43854	10.317632	0.472016	1.803574	0.083706	0.614896	-0.055400	0.782194
43855	9.693627	0.631210	1.625584	0.099577	0.615849	-0.067777	0.778602
43856	9.567864	0.505363	1.268932	0.116194	0.617095	-0.080585	0.774079
43857	10.069960	0.655653	1.291749	0.133173	0.618558	-0.093911	0.768656
43858	10.841305	1.580869	1.366430	0.150644	0.619676	-0.107936	0.762665
43859	10.982496	2.404904	1.281638	0.169043	0.619997	-0.122699	0.756289
43860	10.375636	2.665629	0.923109	0.188250	0.619709	-0.137830	0.749350
43861	10.664853	2.684246	1.191794	0.208293	0.618250	-0.153975	0.742073
43862	11.240212	2.321647	1.454505	0.227362	0.615474	-0.169327	0.735409
43863	11.197198	1.441696	1.127438	0.245322	0.612530	-0.184138	0.728504
43864	11.359249	1.038833	1.135672	0.263142	0.609234	-0.199513	0.720961
43865	11.327300	0.963314	1.302014	0.280843	0.605251	-0.215866	0.712882
43866	10.659948	0.550114	1.670320	0.297543	0.601141	-0.232050	0.704450
43867	10.279869	0.483683	1.930687	0.312976	0.596257	-0.246915	0.696819
43868	10.784147	0.719106	1.743606	0.327178	0.590566	-0.260500	0.690164
43869	9.906673	1.116281	1.354911	0.340947	0.583303	-0.272934	0.684851
43870	9.966629	1.432926	1.422993	0.353657	0.575848	-0.284826	0.679853
43871	8.637320	1.505976	1.735871	0.365592	0.568321	-0.295788	0.675177
43872	8.096576	1.308908	1.781301	0.377800	0.560683	-0.306725	0.669941
43873	7.997962	1.107413	1.418097	0.389409	0.553097	-0.317950	0.664344
43874	8.809824	0.921807	0.980810	0.400603	0.545627	-0.329238	0.658339
43875	9.484444	0.935474	1.051093	0.410934	0.538048	-0.340179	0.652623
43876	9.568122	0.856989	1.137541	0.420933	0.530437	-0.350721	0.646875
43877	9.311395	0.676068	1.512687	0.431198	0.522227	-0.360207	0.641559
43878	9.244978	0.872497	1.547929	0.441534	0.513788	-0.369342	0.636126
43879	9.349783	1.061365	1.635024	0.451797	0.505357	-0.378296	0.630385
43880	9.534620	1.345449	1.909706	0.461500	0.497306	-0.386931	0.624491
43881	9.508925	1.411552	1.805580	0.471060	0.489322	-0.395020	0.618568
43882	9.623451	1.355725	1.549554	0.481093	0.480907	-0.402957	0.612294
43883	9.353032	1.242178	1.244941	0.491520	0.472012	-0.410661	0.605780
43884	9.389859	1.207206	1.336403	0.502016	0.463152	-0.418089	0.598892
43885	9.594367	0.918177	1.020018	0.512374	0.454606	-0.425329	0.591525
43886	9.643930	0.937035	1.714280	0.523541	0.445675	-0.432365	0.583385
43887	9.768672	0.785471	1.597436	0.535280	0.435949	-0.439564	0.574637
43888	9.557310	0.680224	1.602956	0.547133	0.425644	-0.446732	0.565599
43889	9.267002	0.574833	1.905191	0.558848	0.415060	-0.453607	0.556466
43890	9.328193	0.400272	1.715677	0.570438	0.404182	-0.460467	0.546999
43891	9.427427	0.238023	1.508379	0.582015	0.393092	-0.467456	0.536864
43892	9.598412	-0.108563	1.704627	0.593328	0.382121	-0.474296	0.526297
43893	10.286712	-0.470489	1.727154	0.604362	0.371028	-0.480807	0.515664
43894	10.005398	-0.671708	2.299334	0.615173	0.359519	-0.487241	0.504880
43895	9.496436	-1.099874	2.572000	0.625838	0.347440	-0.493280	0.494254
43896	8.891793	-1.401429	3.014857	0.636156	0.335209	-0.498637	0.484048
43897	7.991815	-1.304110	2.833768	0.646041	0.323347	-0.503223	0.474178
43898	8.164231	-1.182240	2.774399	0.656123	0.311294	-0.507682	0.463528
43899	9.048719	-1.468211	2.722512	0.666149	0.299856	-0.512530	0.451271
43900	9.887485	-1.464613	3.211167	0.675640	0.289337	-0.517247	0.438464
43901	10.241741	-1.565486	3.601933	0.684402	0.279078	-0.522048	0.425647
43902	10.400837	-1.934802	3.482402	0.692755	0.267991	-0.527129	0.412804
43903	10.256890	-2.505938	3.137025	0.700972	0.256276	-0.531766	0.400232
43904	9.697698	-2.739433	3.234814	0.708758	0.244491	-0.536114	0.387901
43905	9.302425	-2.827059	3.652860	0.716092	0.233041	-0.540209	0.375604
43906	8.898431	-2.618953	3.800333	0.723062	0.221988	-0.544086	0.363142
43907	8.462337	-2.456330	3.513953	0.729626	0.211365	-0.547889	0.350413
43908	8.240446	-2.343939	3.108727	0.735792	0.201095	-0.551694	0.337350
43909	8.229473	-2.341148	2.882835	0.741500	0.191025	-0.555620	0.323996
43910	8.496860	-2.419644	2.471280	0.746854	0.180895	-0.559586	0.310403
43911	8.536028	-2.603090	2.902687	0.751967	0.170482	-0.563474	0.296611
43912	8.619140	-2.694561	2.614023	0.756501	0.160176	-0.567441	0.282949
43913	8.790996	-2.810315	2.296179	0.760729	0.149934	-0.571183	0.269371
43914	8.974050	-2.984868	2.084375	0.764813	0.139784	-0.574641	0.255555
43915	9.384004	-2.916818	2.082887	0.768729	0.130027	-0.577750	0.241563
43916	9.339757	-2.609857	2.441248	0.772592	0.120454	-0.580360	0.227543
43917	9.173293	-2.318420	2.631371	0.776275	0.110823	-0.582584	0.213801
43918	9.118382	-2.172303	2.266884	0.779784	0.100983	-0.584543	0.200122
43919	8.998445	-2.077863	2.413315	0.782753	0.091772	-0.586423	0.187037
43920	9.078352	-1.851274	2.517930	0.785295	0.082953	-0.588254	0.174321
43921	9.506040	-1.295289	2.515658	0.787480	0.074259	-0.590060	0.161835
43922	10.237960	-0.780450	2.738964	0.789272	0.065017	-0.592095	0.149154
43923	11.353245	-0.541808	2.666877	0.790833	0.055314	-0.594014	0.136640
43924	12.662297	0.155128	2.555251	0.792496	0.045209	-0.595445	0.123904
43925	12.474128	0.736539	3.726567	0.794376	0.034373	-0.596319	0.110402
43926	10.520571	0.952571	4.015228	0.796076	0.023833	-0.596761	0.097827
43927	9.051496	1.565318	2.851525	0.797522	0.013542	-0.597025	0.085657
43928	8.961167	1.949227	2.266448	0.798585	0.002669	-0.597471	0.072685
43929	9.300446	2.146047	1.666361	0.798679	-0.008989	-0.598758	0.059336
43930	9.577207	1.822761	1.693611	0.797958	-0.021079	-0.600570	0.046200
43931	9.812667	1.082365	1.552041	0.797115	-0.033637	-0.601980	0.033121
43932	9.787814	0.486418	1.592654	0.796648	-0.046255	-0.602333	0.020195
43933	9.522782	0.304647	1.876481	0.796399	-0.059153	-0.601830	0.007060
43934	9.436552	0.109763	1.650358	0.796278	-0.071819	-0.600625	-0.005721
43935	9.314519	-0.006790	1.522505	0.796522	-0.084322	-0.598396	-0.019088
43936	9.206649	-0.030524	1.965765	0.796651	-0.096661	-0.595749	-0.032977
43937	9.585634	-0.119759	2.069911	0.796695	-0.108333	-0.592801	-0.046126
43938	9.960234	-0.174843	2.656105	0.796779	-0.119980	-0.589265	-0.059288
43939	9.888055	-0.282826	3.085128	0.796826	-0.131792	-0.585147	-0.072823
43940	9.308191	0.045997	3.184121	0.796828	-0.143333	-0.580540	-0.086566
43941	8.968332	0.510133	2.984208	0.796579	-0.154562	-0.575745	-0.100450
43942	9.055300	0.650860	2.675043	0.795818	-0.165477	-0.571110	-0.114561
43943	9.365592	0.679839	2.638437	0.794551	-0.176350	-0.566443	-0.129350
43944	9.558470	0.521826	3.020578	0.792766	-0.187033	-0.561697	-0.145042
43945	9.535566	0.407835	3.423289	0.790493	-0.197681	-0.556823	-0.161219
43946	9.462410	0.471645	3.258002	0.787802	-0.208253	-0.551791	-0.177556
43947	9.657796	0.665136	3.184585	0.784665	-0.219021	-0.546435	-0.194267
43948	9.658653	0.683547	2.881709	0.781068	-0.230232	-0.540618	-0.211325
43949	9.568914	0.532795	2.509578	0.776827	-0.241838	-0.534542	-0.228734
43950	9.663390	0.191402	2.269228	0.771871	-0.253630	-0.528399	-0.246334
43951	9.552531	-0.286872	2.437650	0.766209	-0.265483	-0.522132	-0.264236
43952	9.277909	-0.224628	2.636981	0.760073	-0.277189	-0.515537	-0.282273
43953	9.455326	-0.506218	2.416640	0.753427	-0.289042	-0.508503	-0.300378
43954	9.152396	-0.747786	2.063279	0.746528	-0.300468	-0.501435	-0.317770
43955	9.553663	-1.467379	1.776462	0.739702	-0.311354	-0.493935	-0.334557
43956	10.264036	-2.152921	1.917534	0.732726	-0.322004	-0.486085	-0.350924
43957	10.051301	-2.457806	2.674190	0.725665	-0.332282	-0.477718	-0.367130
43958	9.589721	-2.373316	3.040552	0.718284	-0.342254	-0.468799	-0.383611
43959	8.988487	-2.078776	3.467199	0.710433	-0.351448	-0.459902	-0.400325
43960	8.763554	-1.390872	3.502212	0.701780	-0.360000	-0.451583	-0.417105
43961	8.798019	-1.197442	3.357812	0.692214	-0.368787	-0.443506	-0.433748
43962	8.842132	-1.533740	3.105187	0.682075	-0.377868	-0.435268	-0.450034
43963	8.995741	-1.979253	3.208629	0.671641	-0.387193	-0.426625	-0.465802
43964	9.476479	-2.556350	3.190704	0.660974	-0.396583	-0.417761	-0.480948
43965	9.756040	-2.760019	3.511229	0.650030	-0.405824	-0.408574	-0.495816
43966	9.624430	-2.681898	3.523829	0.638715	-0.414948	-0.399140	-0.510439
43967	9.227443	-2.470138	3.324269	0.626871	-0.424196	-0.389630	-0.524670
43968	8.653384	-2.270201	3.067336	0.614493	-0.433490	-0.380040	-0.538567
43969	8.274877	-2.221437	2.661905	0.601689	-0.442819	-0.370207	-0.552112
43970	8.263792	-2.249872	2.342019	0.588608	-0.452107	-0.360281	-0.565099
43971	8.559281	-2.080734	2.047871	0.574984	-0.461617	-0.350283	-0.577585
43972	9.066060	-2.333878	2.298705	0.560674	-0.471196	-0.339988	-0.589939
43973	9.461955	-2.330066	2.341833	0.546021	-0.480380	-0.329750	-0.601964
43974	9.670063	-2.322597	2.344836	0.531193	-0.489151	-0.319338	-0.613668
43975	9.869352	-2.310169	2.683543	0.515827	-0.497532	-0.308344	-0.625546
43976	9.863809	-2.323109	2.830264	0.499941	-0.505549	-0.297057	-0.637366
43977	9.536623	-2.073268	2.915265	0.483583	-0.513267	-0.285813	-0.648857
43978	9.366444	-2.072409	2.704024	0.467353	-0.520643	-0.275061	-0.659435
43979	8.997903	-1.718925	2.767704	0.450851	-0.527774	-0.264134	-0.669643
43980	8.964784	-1.567454	2.748576	0.433759	-0.535090	-0.252612	-0.679499
43981	9.189076	-1.630440	2.598159	0.416174	-0.542196	-0.240983	-0.689022
43982	9.245953	-1.614890	2.676114	0.398390	-0.549118	-0.229800	-0.697815
43983	9.130141	-1.613275	2.513777	0.380809	-0.555792	-0.218860	-0.705818
43984	8.812911	-1.411266	2.680696	0.362727	-0.562547	-0.207392	-0.713414
43985	8.619835	-0.948574	1.903431	0.344449	-0.569790	-0.195909	-0.719940
43986	8.332247	-0.544290	1.706018	0.326200	-0.577439	-0.184060	-0.725451
43987	8.815698	-0.768365	0.915215	0.308328	-0.584624	-0.171712	-0.730523
43988	9.599193	-1.335852	0.897320	0.291438	-0.590852	-0.159728	-0.735149
43989	10.640409	-1.696232	1.598870	0.276141	-0.595139	-0.149239	-0.739786
43990	10.941658	-1.005334	2.515999	0.260899	-0.598859	-0.139805	-0.744146
43991	10.796185	-0.061203	2.698124	0.245441	-0.602642	-0.130885	-0.747964
43992	10.277602	1.162651	2.458269	0.230324	-0.606703	-0.121767	-0.751022
43993	10.534865	1.191561	1.113811	0.215967	-0.610598	-0.112602	-0.753557
43994	10.499542	0.779170	1.233601	0.202406	-0.614048	-0.103935	-0.755760
43995	10.092475	0.069179	1.173615	0.189591	-0.617346	-0.095348	-0.757527
43996	10.015396	-0.709625	0.955921	0.177940	-0.620230	-0.086907	-0.759012
43997	9.901601	-0.482795	1.277328	0.166899	-0.622574	-0.078286	-0.760538
43998	9.866474	-0.155738	1.026427	0.155920	-0.624226	-0.069048	-0.762406
43999	9.999834	0.094167	1.465872	0.144947	-0.624797	-0.059520	-0.764903
44000	10.031727	0.006524	1.636285	0.134373	-0.624232	-0.050472	-0.767939
44001	9.655610	-0.106722	2.134998	0.124419	-0.622946	-0.041821	-0.771174
44002	9.574705	-0.441177	2.221363	0.115157	-0.621408	-0.033285	-0.774263
44003	9.353735	-0.320063	2.520485	0.106424	-0.619817	-0.025124	-0.777090
44004	9.329861	-0.127907	2.522812	0.098103	-0.618442	-0.017318	-0.779490
44005	9.700931	0.100427	2.448361	0.090091	-0.617091	-0.009778	-0.781657
44006	9.820509	0.163243	2.543928	0.082300	-0.615464	-0.002486	-0.783853
44007	9.531513	-0.006668	2.773784	0.074885	-0.613780	0.004430	-0.785905
44008	9.237116	-0.046856	2.583315	0.068358	-0.612246	0.010602	-0.787635
44009	9.183615	-0.153751	2.538394	0.062006	-0.610725	0.016549	-0.789238
44010	9.210086	-0.226858	2.492583	0.055799	-0.609323	0.021981	-0.790651
44011	9.300935	0.015472	2.470465	0.049957	-0.608015	0.026941	-0.791894
44012	9.384181	-0.130280	2.752381	0.044012	-0.606869	0.031944	-0.792939
44013	9.570584	-0.488793	2.669524	0.038376	-0.605851	0.036582	-0.793809
44014	9.414915	-0.748999	2.682844	0.033251	-0.604819	0.040510	-0.794636
44015	9.036543	-1.081288	2.483083	0.028727	-0.603926	0.043770	-0.795319
44016	8.913122	-1.313881	2.302894	0.024678	-0.603260	0.046396	-0.795811
44017	8.812827	-1.349351	2.353175	0.020835	-0.602863	0.048451	-0.796100
44018	8.922200	-1.344359	2.494591	0.017073	-0.602631	0.050097	-0.796263
44019	9.226368	-1.371765	2.623721	0.013329	-0.602793	0.051771	-0.796104
44020	9.515361	-1.702715	2.746303	0.009974	-0.603372	0.053413	-0.795607
44021	9.720002	-2.243921	2.857730	0.007573	-0.604127	0.054630	-0.794977
44022	9.698127	-2.575470	2.869270	0.006087	-0.604910	0.055600	-0.794327
44023	9.518542	-2.681067	2.947838	0.005064	-0.605462	0.056369	-0.793859
44024	9.403152	-2.361708	2.975167	0.003981	-0.605552	0.056867	-0.793761
44025	9.236092	-1.809190	2.890831	0.002707	-0.605417	0.057080	-0.793854
44026	9.161130	-1.560024	2.769461	0.001601	-0.605409	0.057195	-0.793855
44027	9.058514	-1.544941	2.924766	0.000537	-0.605647	0.057542	-0.793650
44028	9.142528	-1.664782	3.086856	-0.000494	-0.606316	0.058202	-0.793091
44029	9.291281	-1.858996	3.002310	-0.001137	-0.607409	0.059048	-0.792191
44030	9.469544	-2.093909	2.722346	-0.001280	-0.608776	0.060091	-0.791062
44031	9.743532	-2.305127	2.132583	-0.000941	-0.610274	0.061161	-0.789825
44032	9.982648	-2.470760	1.939971	-0.000383	-0.611637	0.062090	-0.788698
44033	10.056207	-2.355798	1.894648	0.000371	-0.612684	0.062748	-0.787833
44034	9.857705	-2.129601	1.900309	0.001123	-0.613281	0.062972	-0.787350
44035	9.421683	-1.765457	2.145241	0.001795	-0.613475	0.062871	-0.787206
44036	9.160157	-1.601615	2.182451	0.002391	-0.613515	0.062682	-0.787188
44037	9.140828	-1.453133	2.470247	0.002918	-0.613475	0.062632	-0.787221
44038	9.296692	-1.590298	2.599383	0.003443	-0.613629	0.062648	-0.787097
44039	9.562268	-1.652285	3.046942	0.003959	-0.613783	0.062475	-0.786989
44040	9.735704	-1.584401	3.054292	0.004863	-0.613854	0.061815	-0.786980
44041	9.528292	-1.620050	2.680997	0.005900	-0.613780	0.061046	-0.787091
44042	9.346362	-1.996551	2.244921	0.006909	-0.613457	0.060251	-0.787396
44043	9.329942	-2.111752	1.566923	0.008214	-0.612678	0.058810	-0.788099
44044	9.483603	-1.819128	1.167882	0.009742	-0.611747	0.056525	-0.788971
44045	9.584695	-1.514938	1.555397	0.011211	-0.611233	0.053132	-0.789586
44046	9.720485	-1.483605	1.226952	0.013199	-0.610994	0.048467	-0.790040
44047	9.940783	-1.876305	1.399635	0.016302	-0.610556	0.042718	-0.790652
44048	10.351461	-1.657616	1.132543	0.020978	-0.609964	0.036320	-0.791318
44049	10.053340	-0.604794	1.071113	0.025520	-0.608385	0.029758	-0.792673
44050	9.372871	-0.120101	1.850069	0.028681	-0.605952	0.023206	-0.794645
44051	8.819994	-0.075189	2.388183	0.029752	-0.603225	0.017348	-0.796827
44052	8.806675	-0.319146	2.285510	0.030648	-0.600299	0.012051	-0.799097
44053	9.121546	-0.432887	2.582070	0.032088	-0.597412	0.006929	-0.801262
44054	9.246246	-0.044639	3.404102	0.033549	-0.595092	0.002607	-0.802953
44055	9.243550	0.135477	3.059428	0.034798	-0.593504	-0.000515	-0.804078
44056	9.419183	0.064200	3.222850	0.036202	-0.591844	-0.002934	-0.805234
44057	9.563694	0.132745	3.950877	0.038310	-0.590576	-0.005751	-0.806052
44058	9.469742	0.423609	4.193662	0.040470	-0.590218	-0.008398	-0.806185
44059	9.276791	0.776099	3.932738	0.042410	-0.590814	-0.010224	-0.805627
44060	9.698758	0.700517	4.079779	0.043612	-0.591767	-0.010930	-0.804854
44061	9.777965	0.202119	4.311631	0.044861	-0.592257	-0.010786	-0.804427
44062	9.766878	-0.382464	4.205908	0.046344	-0.592349	-0.011056	-0.804271
44063	9.695057	-0.148706	3.893751	0.048063	-0.591543	-0.011911	-0.804751
44064	9.329921	-0.064862	4.021696	0.048939	-0.590064	-0.012299	-0.805778
44065	8.937232	0.231452	3.966548	0.049601	-0.588716	-0.012299	-0.806723
44066	8.862501	0.209407	3.913073	0.050361	-0.587588	-0.012253	-0.807499
44067	8.643764	0.042936	3.611636	0.051185	-0.586760	-0.012502	-0.808045
44068	8.513786	-0.140650	3.326144	0.052096	-0.586220	-0.013062	-0.808370
44069	8.638260	-0.204100	3.066167	0.052868	-0.585951	-0.013580	-0.808506
44070	8.969700	-0.262402	2.678191	0.053460	-0.585815	-0.014010	-0.808558
44071	9.220233	-0.264764	2.856838	0.053908	-0.585591	-0.014289	-0.808686
44072	9.181808	-0.326232	2.824583	0.054244	-0.585533	-0.014545	-0.808701
44073	9.322874	-0.458625	2.778533	0.054527	-0.585612	-0.014907	-0.808618
44074	9.435587	-0.284070	2.837173	0.054878	-0.585718	-0.015484	-0.808507
44075	9.387939	-0.160155	3.008537	0.055073	-0.585780	-0.016100	-0.808436
44076	9.430920	-0.223549	3.096031	0.055118	-0.585973	-0.016610	-0.808283
44077	9.586744	-0.263947	3.106882	0.055105	-0.586106	-0.017000	-0.808179
44078	9.602200	-0.272135	3.223000	0.054994	-0.586190	-0.017176	-0.808123
44079	9.443772	-0.190265	3.222685	0.054505	-0.586195	-0.017013	-0.808155
44080	9.236968	-0.265562	3.230170	0.053821	-0.586183	-0.016581	-0.808219
44081	9.183273	-0.442421	3.367099	0.053446	-0.586341	-0.016400	-0.808133
44082	9.237620	-0.541889	3.380269	0.053491	-0.586677	-0.016634	-0.807881
44083	9.239633	-0.460137	3.387384	0.053570	-0.587166	-0.016942	-0.807514
44084	9.264224	-0.290780	3.367790	0.053458	-0.587550	-0.017138	-0.807238
44085	9.293097	-0.221158	3.377621	0.053283	-0.587882	-0.017179	-0.807007
44086	9.267829	-0.309166	3.453424	0.053119	-0.588187	-0.017148	-0.806797
44087	9.249374	-0.442555	3.439674	0.052980	-0.588664	-0.017059	-0.806459
44088	9.338620	-0.452909	3.508751	0.052893	-0.589437	-0.016768	-0.805907
44089	9.233042	-0.273842	3.277659	0.053017	-0.590234	-0.016580	-0.805319
44090	9.116539	-0.462415	3.448269	0.052888	-0.591072	-0.016351	-0.804717
44091	9.214412	-0.486081	3.199981	0.052598	-0.592083	-0.016380	-0.803992
44092	9.327107	-0.417963	3.201996	0.052463	-0.593200	-0.016392	-0.803177
44093	9.427823	-0.436698	3.125332	0.052225	-0.594307	-0.016292	-0.802375
44094	9.447446	-0.470766	2.997978	0.051896	-0.595289	-0.015807	-0.801678
44095	9.400770	-0.387864	2.900507	0.051466	-0.596151	-0.015234	-0.801076
44096	9.396216	-0.434597	2.805508	0.050837	-0.596935	-0.014254	-0.800551
44097	9.377021	-0.556829	2.708480	0.050170	-0.597674	-0.013053	-0.800061
44098	9.419454	-0.642955	2.618263	0.049525	-0.598367	-0.011900	-0.799602
44099	9.513584	-0.797617	2.515532	0.048861	-0.598986	-0.010653	-0.799197
44100	9.632000	-0.840501	2.480738	0.048054	-0.599482	-0.009134	-0.798892
44101	9.616151	-0.779937	2.447038	0.046847	-0.599470	-0.007555	-0.798989
44102	9.490195	-0.770071	2.264532	0.045183	-0.599112	-0.005855	-0.799368
44103	9.232354	-0.903227	2.205692	0.042926	-0.598278	-0.003779	-0.800129
44104	8.895787	-0.989415	2.165003	0.040750	-0.597103	-0.001762	-0.801127
44105	8.590666	-1.013191	2.004080	0.038520	-0.595498	0.000428	-0.802433
44106	8.276354	-1.190707	1.988116	0.036522	-0.593072	0.002534	-0.804317
44107	7.985644	-1.544518	2.165944	0.035342	-0.589750	0.004126	-0.806802
44108	8.007246	-1.527686	2.422910	0.034506	-0.585348	0.005486	-0.810029
44109	8.224555	-1.160170	2.878463	0.033555	-0.579586	0.007396	-0.814186
44110	8.757808	-0.966470	3.647817	0.032513	-0.573029	0.010697	-0.818820
44111	9.137107	-0.885775	3.713604	0.032868	-0.566628	0.013576	-0.823206
44112	10.383980	-1.070220	3.438404	0.033595	-0.560037	0.016572	-0.827620
44113	10.241698	-1.543641	3.692814	0.033258	-0.552102	0.020436	-0.832862
44114	9.954045	-1.970391	4.104262	0.032611	-0.545827	0.023542	-0.836932
44115	9.977576	-0.829288	3.891928	0.032018	-0.539961	0.025309	-0.840700
44116	9.311304	-0.699777	4.264783	0.030091	-0.535327	0.027305	-0.843667
44117	8.884965	-0.782521	4.658537	0.027359	-0.531902	0.029217	-0.845860
44118	8.354074	-0.644539	4.603647	0.023746	-0.529891	0.031255	-0.847157
44119	8.274304	-0.597329	4.884362	0.018166	-0.528627	0.034122	-0.847974
44120	7.736517	-0.501757	5.630277	0.010176	-0.526880	0.038165	-0.849021
44121	6.512995	-0.753341	6.026611	-0.000289	-0.524381	0.044413	-0.850325
44122	6.383614	-0.470912	6.601414	-0.011499	-0.523815	0.050917	-0.850231
44123	7.158981	-0.768823	6.010531	-0.021245	-0.525470	0.057731	-0.848585
44124	9.182099	-1.451572	6.290629	-0.027730	-0.529845	0.063825	-0.845234
44125	10.860131	-2.325947	5.456702	-0.031160	-0.537144	0.068481	-0.840128
44126	13.074427	-1.179593	3.145567	-0.033783	-0.542388	0.072667	-0.836297
44127	11.479598	-0.368504	3.161648	-0.036741	-0.544285	0.076424	-0.834603
44128	10.524885	0.321835	3.055582	-0.040400	-0.546195	0.080594	-0.832792
44129	9.774452	0.163744	3.119198	-0.045201	-0.547734	0.084768	-0.831119
44130	8.520535	-0.252292	3.125155	-0.050693	-0.549236	0.088591	-0.829411
44131	7.826621	-0.479640	3.204106	-0.057320	-0.551531	0.092893	-0.826982
44132	7.923012	-0.599655	3.237241	-0.064822	-0.554685	0.097683	-0.823760
44133	8.294764	-0.713499	2.891271	-0.072529	-0.557988	0.102295	-0.820320
44134	8.879336	-0.577824	2.649707	-0.080073	-0.561074	0.106570	-0.816962
44135	9.398996	-0.305532	2.597237	-0.087923	-0.563465	0.110782	-0.813943
44136	9.503155	0.158164	3.010779	-0.096353	-0.565400	0.115534	-0.810981
44137	9.716506	0.236960	2.916210	-0.104885	-0.567110	0.120820	-0.807953
44138	10.027652	0.384065	3.224631	-0.113269	-0.567996	0.126205	-0.805371
44139	10.216792	0.549467	3.306226	-0.121510	-0.568077	0.131850	-0.803206
44140	10.324111	0.743671	3.691496	-0.129793	-0.567130	0.137563	-0.801620
44141	10.177718	0.731133	3.398731	-0.137812	-0.564951	0.143103	-0.800850
44142	9.955877	0.725914	3.328583	-0.145458	-0.561787	0.148364	-0.800765
44143	9.433024	0.654033	3.554171	-0.152278	-0.558304	0.153213	-0.801021
44144	9.270899	0.655391	3.409388	-0.158428	-0.554838	0.157860	-0.801334
44145	9.354690	0.594294	3.361584	-0.164263	-0.551393	0.162333	-0.801643
44146	9.171040	0.525000	3.582939	-0.169866	-0.548101	0.166619	-0.801854
44147	9.013971	0.503248	3.691026	-0.175301	-0.545148	0.170688	-0.801841
44148	9.164060	0.334890	3.534381	-0.180692	-0.542422	0.174472	-0.801678
44149	9.153098	0.182466	3.423083	-0.186115	-0.539685	0.177850	-0.801542
44150	9.056278	-0.025339	3.560620	-0.191414	-0.537028	0.180735	-0.801434
44151	9.295589	-0.213924	3.688592	-0.196351	-0.534546	0.183077	-0.801367
44152	9.467377	-0.499543	3.910670	-0.200969	-0.532114	0.184855	-0.801433
44153	9.005822	-0.589995	3.870534	-0.205185	-0.529647	0.186351	-0.801652
44154	9.266902	-0.944589	3.802136	-0.208912	-0.527108	0.187654	-0.802059
44155	9.258082	-1.027778	4.145949	-0.212506	-0.524210	0.189027	-0.802692
44156	9.006655	-1.121461	4.037901	-0.216018	-0.521109	0.190632	-0.803393
44157	8.892346	-1.075167	3.978638	-0.219657	-0.518011	0.192552	-0.803952
44158	8.794226	-0.981584	3.664819	-0.223635	-0.514925	0.194748	-0.804309
44159	8.602857	-0.892472	3.638750	-0.227934	-0.511857	0.197127	-0.804481
44160	8.562579	-0.773065	3.869738	-0.232502	-0.508931	0.199675	-0.804401
44161	8.622090	-0.824657	4.083334	-0.237296	-0.506217	0.202303	-0.804058
44162	8.699452	-0.944376	4.272766	-0.242470	-0.503598	0.205102	-0.803449
44163	8.873273	-1.026600	4.015761	-0.247685	-0.501060	0.207697	-0.802778
44164	8.957837	-1.035672	4.241013	-0.252951	-0.498756	0.210194	-0.801921
44165	8.873781	-0.962448	4.188935	-0.258344	-0.496611	0.212560	-0.800908
44166	8.722298	-0.918379	4.253021	-0.263704	-0.494915	0.214785	-0.799616
44167	8.625331	-0.872034	3.729522	-0.268895	-0.493775	0.216832	-0.798039
44168	8.800330	-0.873915	3.787076	-0.274212	-0.492917	0.219298	-0.796084
44169	8.865046	-0.834129	3.818839	-0.279635	-0.491910	0.221579	-0.794186
44170	8.785959	-0.671619	3.802991	-0.285188	-0.491009	0.223878	-0.792122
44171	8.842303	-0.604874	3.722160	-0.290802	-0.490307	0.226154	-0.789866
44172	9.124507	-0.623156	3.599931	-0.296506	-0.489563	0.228464	-0.787538
44173	9.223603	-0.746395	3.658315	-0.302460	-0.488482	0.230745	-0.785277
44174	9.044222	-0.731611	3.723264	-0.308557	-0.487183	0.233055	-0.783026
44175	9.082595	-0.764731	3.700035	-0.314582	-0.485822	0.235260	-0.780812
44176	9.166841	-0.810981	3.592439	-0.320521	-0.484427	0.237564	-0.778563
44177	9.292461	-0.854559	3.592624	-0.326207	-0.482909	0.239560	-0.776530
44178	9.286765	-0.820117	3.761130	-0.331852	-0.481145	0.241662	-0.774579
44179	9.240244	-0.779483	3.766708	-0.337248	-0.479181	0.243556	-0.772871
44180	9.203569	-0.720792	3.887858	-0.342402	-0.477050	0.245213	-0.771398
44181	9.128854	-0.785092	3.934494	-0.347142	-0.474999	0.246532	-0.770124
44182	9.026610	-0.785132	4.026877	-0.351659	-0.472789	0.247662	-0.769071
44183	9.013287	-0.769337	4.107321	-0.355746	-0.470804	0.248636	-0.768095
44184	8.992130	-0.787013	4.326433	-0.359495	-0.468983	0.249542	-0.767168
44185	9.008247	-0.733162	4.168213	-0.362827	-0.467387	0.250278	-0.766334
44186	9.003359	-0.700742	4.418141	-0.365864	-0.465880	0.250934	-0.765592
44187	8.954186	-0.682075	4.364034	-0.368480	-0.464444	0.251429	-0.765047
44188	8.842226	-0.606789	4.427150	-0.370688	-0.463082	0.251772	-0.764694
44189	8.787258	-0.675098	4.405408	-0.372547	-0.461765	0.252059	-0.764492
44190	8.716403	-0.687069	4.449676	-0.373973	-0.460589	0.252165	-0.764470
44191	8.632084	-0.680318	4.496020	-0.374922	-0.459636	0.252204	-0.764566
44192	8.650064	-0.740254	4.529781	-0.375426	-0.458898	0.252221	-0.764756
44193	8.835017	-0.753145	4.522744	-0.375546	-0.458269	0.252121	-0.765108
44194	8.858384	-0.678324	4.559798	-0.375402	-0.457628	0.251817	-0.765662
44195	8.819030	-0.632612	4.628627	-0.374926	-0.457067	0.251412	-0.766363
44196	8.841712	-0.635624	4.625319	-0.374188	-0.456566	0.250984	-0.767162
44197	8.821924	-0.570477	4.646035	-0.373272	-0.456116	0.250529	-0.768024
44198	8.900563	-0.535175	4.517215	-0.372317	-0.455676	0.250098	-0.768889
44199	8.862422	-0.500929	4.571746	-0.371506	-0.455111	0.249678	-0.769752
44200	8.666748	-0.551055	4.515931	-0.370755	-0.454589	0.249281	-0.770551
44201	8.477332	-0.562954	4.605909	-0.369988	-0.454273	0.249012	-0.771192
44202	8.348845	-0.639408	4.475335	-0.369049	-0.454326	0.248823	-0.771672
44203	8.344662	-0.712118	4.306457	-0.367934	-0.454753	0.248814	-0.771956
44204	8.409990	-0.658891	4.691042	-0.366611	-0.455578	0.248901	-0.772071
44205	8.542091	-0.568832	4.657762	-0.365200	-0.456505	0.248794	-0.772227
44206	8.636603	-0.585465	4.464504	-0.363602	-0.457719	0.248436	-0.772377
44207	8.690663	-0.569752	4.453923	-0.361938	-0.459016	0.248161	-0.772478
44208	8.869141	-0.603173	4.304167	-0.360164	-0.460194	0.247818	-0.772716
44209	8.845545	-0.608019	4.529693	-0.358360	-0.461353	0.247347	-0.773014
44210	8.702434	-0.512650	4.448568	-0.356520	-0.462590	0.246767	-0.773311
44211	8.756180	-0.487622	4.450203	-0.354619	-0.464014	0.246213	-0.773508
44212	8.885081	-0.514855	4.380716	-0.352846	-0.465380	0.245678	-0.773669
44213	8.967371	-0.484027	4.396609	-0.351150	-0.466514	0.245108	-0.773939
44214	8.917257	-0.467558	4.371129	-0.349537	-0.467531	0.244442	-0.774265
44215	8.820783	-0.459438	4.353792	-0.347981	-0.468496	0.243772	-0.774594
44216	8.749249	-0.497676	4.350781	-0.346423	-0.469462	0.243118	-0.774913
44217	8.720208	-0.543319	4.370340	-0.344798	-0.470457	0.242440	-0.775246
44218	8.842840	-0.576841	4.328469	-0.343138	-0.471484	0.241828	-0.775550
44219	8.896333	-0.520376	4.331081	-0.341420	-0.472444	0.241160	-0.775933
44220	8.853731	-0.496567	4.427557	-0.339636	-0.473379	0.240416	-0.776376
44221	8.865850	-0.437651	4.375900	-0.337823	-0.474330	0.239673	-0.776817
44222	8.912696	-0.463087	4.364826	-0.336014	-0.475185	0.238901	-0.777316
44223	8.903699	-0.451326	4.347119	-0.334196	-0.476107	0.238085	-0.777786
44224	8.862339	-0.460475	4.345480	-0.332332	-0.476938	0.237226	-0.778337
44225	8.895339	-0.455941	4.351189	-0.330443	-0.477776	0.236352	-0.778894
44226	8.899934	-0.462852	4.311416	-0.328569	-0.478596	0.235492	-0.779443
44227	8.874129	-0.453711	4.315334	-0.326695	-0.479349	0.234643	-0.780024
44228	8.908027	-0.430475	4.325902	-0.324846	-0.480051	0.233831	-0.780608
44229	8.921564	-0.459005	4.339273	-0.323002	-0.480646	0.233001	-0.781255
44230	8.879195	-0.450001	4.346608	-0.321227	-0.481096	0.232193	-0.781951
44231	8.864582	-0.461798	4.333116	-0.319475	-0.481527	0.231406	-0.782636
44232	8.833638	-0.484088	4.328013	-0.317772	-0.481900	0.230694	-0.783309
44233	8.876390	-0.497228	4.349191	-0.316099	-0.482293	0.230068	-0.783928
44234	8.865400	-0.512182	4.261405	-0.314486	-0.482697	0.229550	-0.784480
44235	8.882939	-0.500536	4.262141	-0.312918	-0.483066	0.229054	-0.785025
44236	8.908293	-0.536883	4.299089	-0.311379	-0.483451	0.228622	-0.785526
44237	8.905493	-0.567701	4.314678	-0.309887	-0.483793	0.228194	-0.786029
44238	8.946263	-0.610727	4.301474	-0.308437	-0.483979	0.227828	-0.786591
44239	8.878175	-0.561965	4.314634	-0.307052	-0.484143	0.227525	-0.787120
44240	8.883364	-0.545036	4.255794	-0.305715	-0.484203	0.227317	-0.787663
44241	8.854460	-0.549860	4.234784	-0.304494	-0.484228	0.227093	-0.788185
44242	8.867208	-0.555289	4.268528	-0.303374	-0.484280	0.226947	-0.788627
44243	8.892571	-0.589239	4.268672	-0.302370	-0.484266	0.226804	-0.789062
44244	8.935359	-0.553993	4.383589	-0.301516	-0.484068	0.226693	-0.789542
44245	8.892762	-0.573170	4.250289	-0.300741	-0.483843	0.226388	-0.790062
44246	8.807700	-0.602568	4.353754	-0.300112	-0.483614	0.226271	-0.790476
44247	8.884497	-0.740372	4.193550	-0.299511	-0.483385	0.226391	-0.790809
44248	8.854702	-0.729043	4.501216	-0.298990	-0.483055	0.226520	-0.791171
44249	8.799678	-0.614557	4.391204	-0.298491	-0.482732	0.226595	-0.791535
44250	8.783650	-0.544623	4.278120	-0.298065	-0.482548	0.226607	-0.791804
44251	8.889548	-0.537794	4.227751	-0.297813	-0.482346	0.226666	-0.792005
44252	8.872562	-0.597263	4.371174	-0.297682	-0.482159	0.226632	-0.792178
44253	8.851433	-0.652205	4.306943	-0.297592	-0.481922	0.226532	-0.792385
44254	8.876753	-0.666789	4.302990	-0.297558	-0.481674	0.226447	-0.792572
44255	8.894060	-0.636495	4.282964	-0.297550	-0.481344	0.226342	-0.792806
44256	8.817130	-0.620920	4.318515	-0.297550	-0.480981	0.226258	-0.793050
44257	8.761439	-0.661522	4.360512	-0.297511	-0.480642	0.226137	-0.793305
44258	8.811387	-0.710200	4.346423	-0.297474	-0.480291	0.226030	-0.793561
44259	8.851550	-0.709373	4.367882	-0.297423	-0.479964	0.225889	-0.793819
44260	8.843487	-0.653938	4.329174	-0.297356	-0.479554	0.225803	-0.794116
44261	8.844577	-0.687738	4.418991	-0.297330	-0.479096	0.225724	-0.794425
44262	8.835504	-0.729248	4.403705	-0.297268	-0.478670	0.225595	-0.794741
44263	8.776686	-0.726745	4.336576	-0.297151	-0.478256	0.225447	-0.795076
