// Start Time: Unknown
// Update Rate: 60.0Hz
// Filter Profile: human (46.1)
// Option Flags: AHS Disabled ICC Disabled 
// Firmware Version: 4.3.5
PacketCounter	Acc_X	Acc_Y	Acc_Z	Quat_q0	Quat_q1	Quat_q2	Quat_q3
40913	-0.430761	9.510551	4.536998	-0.504734	-0.342190	0.406609	0.680308
40914	-0.481938	9.327371	4.325407	-0.505447	-0.342388	0.406155	0.679950
40915	-0.447587	8.907833	4.249485	-0.505954	-0.342802	0.405856	0.679543
40916	-0.574790	8.716494	4.103724	-0.506179	-0.343609	0.405881	0.678953
40917	-0.673313	8.873049	4.125956	-0.506101	-0.344438	0.406380	0.678291
40918	-0.671170	8.978561	4.126357	-0.506081	-0.345231	0.406720	0.677700
40919	-0.794602	8.912482	4.095332	-0.506222	-0.345823	0.406816	0.677234
40920	-0.841845	8.874219	4.090756	-0.506195	-0.346292	0.407055	0.676872
40921	-0.802503	8.938050	4.066260	-0.506063	-0.346610	0.407245	0.676693
40922	-0.696330	8.908742	4.177514	-0.505961	-0.346835	0.407158	0.676706
40923	-0.771074	8.869309	4.300718	-0.505997	-0.347013	0.406761	0.676827
40924	-0.752653	8.870504	4.280588	-0.505827	-0.346953	0.406733	0.677002
40925	-0.592308	8.906363	4.327384	-0.505595	-0.346936	0.406833	0.677123
40926	-0.623525	8.775292	4.387015	-0.505650	-0.347080	0.406467	0.677228
40927	-0.628434	8.670503	4.318441	-0.505480	-0.347171	0.406490	0.677295
40928	-0.648642	8.729678	4.315515	-0.505276	-0.347405	0.406602	0.677259
40929	-0.713896	8.734749	4.402325	-0.505337	-0.347644	0.406361	0.677237
40930	-0.742239	8.790612	4.318771	-0.505251	-0.347818	0.406407	0.677184
40931	-0.707979	8.839459	4.321880	-0.505147	-0.347954	0.406462	0.677158
40932	-0.719557	8.874261	4.278717	-0.505113	-0.348085	0.406386	0.677162
40933	-0.683672	8.903616	4.274794	-0.505087	-0.348092	0.406328	0.677212
40934	-0.669926	8.777959	4.246569	-0.505130	-0.348176	0.406229	0.677196
40935	-0.624190	8.744466	4.335600	-0.505076	-0.348374	0.406273	0.677109
40936	-0.677725	8.738353	4.315888	-0.504969	-0.348544	0.406432	0.677006
40937	-0.706622	8.773258	4.333253	-0.504781	-0.348665	0.406705	0.676919
40938	-0.604908	8.803005	4.252936	-0.504432	-0.348809	0.407253	0.676776
40939	-0.577045	8.896920	4.301365	-0.504258	-0.348965	0.407592	0.676621
40940	-0.610238	8.845262	4.216510	-0.504151	-0.349099	0.407847	0.676478
40941	-0.577252	8.884224	4.236446	-0.503955	-0.349255	0.408282	0.676281
40942	-0.549676	8.959136	4.254677	-0.503816	-0.349454	0.408589	0.676097
40943	-0.545396	8.888877	4.188237	-0.503730	-0.349645	0.408729	0.675977
40944	-0.636515	8.890367	4.234543	-0.503758	-0.349837	0.408734	0.675854
40945	-0.585828	8.843986	4.154175	-0.503605	-0.349982	0.409036	0.675710
40946	-0.512524	8.876670	4.149034	-0.503391	-0.350238	0.409393	0.675521
40947	-0.632483	8.892828	4.185124	-0.503470	-0.350492	0.409307	0.675382
40948	-0.682297	8.887694	4.207373	-0.503400	-0.350650	0.409471	0.675253
40949	-0.538844	8.957650	4.102679	-0.503212	-0.350833	0.409771	0.675116
40950	-0.556058	8.902528	4.113628	-0.503278	-0.350917	0.409656	0.675093
40951	-0.652711	8.871130	4.132890	-0.503215	-0.350950	0.409847	0.675007
40952	-0.616831	8.919914	4.114012	-0.503189	-0.351027	0.410034	0.674873
40953	-0.665852	8.857684	4.045657	-0.503280	-0.351210	0.409954	0.674758
40954	-0.519423	8.888739	4.100121	-0.503111	-0.351373	0.410259	0.674613
40955	-0.386407	8.875584	4.124685	-0.503163	-0.351674	0.410289	0.674400
40956	-0.592758	8.827111	4.091397	-0.503535	-0.352147	0.409815	0.674164
40957	-0.800701	8.807772	4.003391	-0.503598	-0.352647	0.409812	0.673857
40958	-0.750149	9.002299	4.022227	-0.503342	-0.353034	0.410369	0.673506
40959	-0.592520	9.061816	4.024862	-0.503262	-0.353359	0.410778	0.673146
40960	-0.601684	8.984634	3.967520	-0.503311	-0.353732	0.410995	0.672782
40961	-0.634172	8.942888	3.994034	-0.503273	-0.354102	0.411357	0.672394
40962	-0.610471	8.997729	3.937880	-0.503241	-0.354436	0.411692	0.672036
40963	-0.668820	9.066161	3.952327	-0.503219	-0.354716	0.411896	0.671780
40964	-0.691804	8.961198	3.900975	-0.503141	-0.354882	0.412127	0.671610
40965	-0.525394	8.898468	3.914405	-0.502980	-0.355045	0.412477	0.671429
40966	-0.484894	8.913332	3.914839	-0.503086	-0.355432	0.412410	0.671186
40967	-0.657338	8.901775	3.928068	-0.503332	-0.355775	0.412098	0.671011
40968	-0.647628	8.957437	3.690505	-0.503425	-0.356431	0.412164	0.670553
40969	-0.579504	9.154037	3.840365	-0.503545	-0.357275	0.412229	0.669973
40970	-0.585096	9.099712	3.740015	-0.503852	-0.358030	0.411993	0.669485
40971	-0.484069	9.062196	3.694493	-0.503940	-0.358601	0.412107	0.669042
40972	-0.418880	9.167329	3.548489	-0.504131	-0.359377	0.412160	0.668449
40973	-0.411678	9.290218	3.446310	-0.504579	-0.360285	0.412147	0.667631
40974	-0.412159	9.418460	3.330163	-0.505085	-0.361435	0.412335	0.666508
40975	-0.414078	9.774886	3.337311	-0.505831	-0.362188	0.412314	0.665547
40976	-0.482127	9.852587	3.423338	-0.506814	-0.362127	0.411575	0.665289
40977	-0.489361	9.346991	3.591418	-0.507924	-0.361742	0.409810	0.665741
40978	-0.676477	8.800454	3.667501	-0.508801	-0.361093	0.408083	0.666485
40979	-0.358181	9.065037	3.365234	-0.508570	-0.359911	0.408580	0.666996
40980	0.045819	9.818568	3.550665	-0.508347	-0.358464	0.409251	0.667533
40981	-0.042805	9.648973	3.731273	-0.510032	-0.356860	0.406383	0.668858
40982	-0.176942	8.922141	3.826417	-0.512061	-0.355291	0.402471	0.670506
40983	-0.294661	8.908862	4.081030	-0.513033	-0.353706	0.400315	0.671891
40984	-0.430952	9.045506	4.036552	-0.513512	-0.352121	0.398528	0.673418
40985	-0.387894	8.483065	3.932969	-0.514550	-0.350010	0.394822	0.675905
40986	-0.249297	7.884106	3.927647	-0.515532	-0.347092	0.391323	0.678690
40987	-0.511340	8.639602	4.796823	-0.516670	-0.344559	0.388624	0.680664
40988	-0.598992	8.938156	4.257607	-0.517005	-0.343409	0.387723	0.681503
40989	-0.027131	9.388350	4.759989	-0.516660	-0.341665	0.387674	0.682668
40990	0.091132	8.112126	4.024037	-0.517197	-0.339242	0.385377	0.684768
40991	-0.061449	7.401475	4.782469	-0.519183	-0.335358	0.381644	0.687264
40992	-1.297539	7.465203	5.457140	-0.522219	-0.331558	0.378014	0.688812
40993	-1.044832	9.142209	5.917256	-0.521761	-0.327874	0.381367	0.689074
40994	-0.337538	9.846927	5.357730	-0.518684	-0.326937	0.386411	0.689032
40995	-0.031549	8.078994	4.248098	-0.518411	-0.326776	0.383528	0.690923
40996	0.113746	6.025025	4.384917	-0.520239	-0.322700	0.377895	0.694558
40997	-0.934104	6.504199	5.521811	-0.522129	-0.320149	0.375839	0.695435
40998	-0.997018	8.232442	5.479239	-0.520374	-0.318300	0.382339	0.694055
40999	0.041373	10.779977	5.234791	-0.515956	-0.319324	0.393265	0.690771
41000	0.465700	10.418983	3.478557	-0.513176	-0.322265	0.398648	0.688385
41001	0.141517	8.723520	3.520483	-0.514091	-0.320339	0.396691	0.689732
41002	-0.366585	7.577107	5.074511	-0.517380	-0.313203	0.391170	0.693692
41003	-0.983599	7.405957	5.662410	-0.518964	-0.308709	0.389722	0.695336
41004	-1.196263	8.847202	5.721901	-0.516296	-0.308917	0.396055	0.693649
41005	0.040730	10.002701	4.747712	-0.513424	-0.311896	0.401616	0.691246
41006	0.551757	10.241472	3.810541	-0.512593	-0.313796	0.402909	0.690250
41007	-0.059511	9.434177	4.226772	-0.514438	-0.311824	0.398830	0.692138
41008	-1.622311	8.265120	5.273683	-0.516840	-0.307303	0.393662	0.695321
41009	-1.201735	7.497646	5.775745	-0.517415	-0.302708	0.392000	0.697844
41010	-0.742604	8.218070	5.198248	-0.516246	-0.300643	0.393451	0.698785
41011	-1.126992	8.627830	4.861227	-0.515542	-0.298250	0.392715	0.700741
41012	-1.769300	8.197509	5.015460	-0.515234	-0.295566	0.389726	0.703767
41013	-2.113018	7.600397	5.518079	-0.512886	-0.292046	0.388914	0.707391
41014	-1.903332	7.563712	5.708149	-0.510158	-0.288651	0.389553	0.710400
41015	-1.955470	7.783063	5.233695	-0.506863	-0.285941	0.391717	0.712660
41016	-2.184894	7.971006	4.972455	-0.502894	-0.283251	0.394587	0.714960
41017	-2.182002	8.289627	4.645171	-0.497676	-0.280498	0.398752	0.717382
41018	-1.792017	8.641714	4.474030	-0.491630	-0.277278	0.402493	0.720705
41019	-1.385498	8.552652	4.150417	-0.485818	-0.274161	0.404289	0.724822
41020	-1.589817	8.548787	4.080087	-0.479768	-0.271619	0.405551	0.729091
41021	-2.066416	8.711548	4.251185	-0.473691	-0.267909	0.406082	0.734124
41022	-2.083633	8.912725	4.411358	-0.467733	-0.262970	0.406518	0.739470
41023	-2.016176	9.150735	4.369120	-0.461901	-0.258712	0.407362	0.744158
41024	-2.388482	9.052010	4.125238	-0.456333	-0.254636	0.407471	0.748925
41025	-2.092458	8.691047	3.857138	-0.450468	-0.250063	0.408117	0.753649
41026	-1.856114	8.717823	3.896919	-0.444165	-0.245433	0.409875	0.757946
41027	-1.764491	8.715359	3.644522	-0.438193	-0.240472	0.411412	0.762168
41028	-2.166273	8.382033	4.031749	-0.433142	-0.235361	0.411615	0.766528
41029	-2.310116	7.829343	3.685848	-0.428152	-0.230756	0.412444	0.770278
41030	-2.381171	7.946293	3.804988	-0.422534	-0.226755	0.414861	0.773265
41031	-2.625883	8.389957	4.429316	-0.417194	-0.222849	0.415997	0.776681
41032	-3.068495	8.809043	4.922022	-0.411968	-0.218382	0.415960	0.780749
41033	-2.952132	9.122257	5.520028	-0.406519	-0.212933	0.415481	0.785352
41034	-2.849427	9.239285	5.995475	-0.400947	-0.207830	0.414874	0.789891
41035	-3.288420	8.985233	6.104417	-0.395077	-0.203074	0.413878	0.794594
41036	-3.550198	8.115016	5.992380	-0.388433	-0.198072	0.412879	0.799637
41037	-3.124065	7.786786	6.312136	-0.379869	-0.192628	0.414011	0.804481
41038	-1.181290	9.532885	6.154002	-0.368538	-0.187192	0.419878	0.807986
41039	0.931145	12.056381	6.467754	-0.357686	-0.180797	0.424843	0.811715
41040	3.029646	12.443199	5.972902	-0.350016	-0.174912	0.425168	0.816166
41041	3.366633	9.885793	6.397449	-0.346055	-0.168699	0.419978	0.821830
41042	2.509132	6.593924	6.885332	-0.343318	-0.162473	0.413570	0.827463
41043	2.340730	4.658820	7.311382	-0.338988	-0.157280	0.409829	0.832100
41044	2.586064	4.902857	6.998747	-0.332279	-0.153262	0.410334	0.835301
41045	3.288767	6.919750	6.979114	-0.324171	-0.149805	0.413904	0.837350
41046	3.655337	8.823373	6.518349	-0.316691	-0.147126	0.416552	0.839372
41047	3.310180	8.900007	6.265761	-0.310868	-0.144608	0.415566	0.842469
41048	2.728255	7.977260	6.018999	-0.305838	-0.142068	0.413740	0.845635
41049	2.839647	6.970787	6.036445	-0.301155	-0.139563	0.412247	0.848458
41050	3.012528	6.374511	5.837232	-0.296674	-0.137354	0.411842	0.850591
41051	3.143745	5.993838	5.786348	-0.292869	-0.135729	0.411605	0.852283
41052	2.819309	5.854244	5.864764	-0.289811	-0.134784	0.411422	0.853566
41053	2.957839	6.086391	5.824161	-0.286879	-0.134417	0.412032	0.854319
41054	2.955788	6.207305	5.851339	-0.284397	-0.134172	0.412153	0.855129
41055	2.799042	6.488164	5.802304	-0.281970	-0.133875	0.412789	0.855673
41056	2.233094	6.532920	5.521482	-0.279625	-0.133679	0.412697	0.856517
41057	1.539367	6.145067	5.165248	-0.277345	-0.133260	0.411708	0.857798
41058	1.467890	6.531453	5.025910	-0.274215	-0.132457	0.412433	0.858581
41059	1.479028	7.192623	5.101917	-0.271012	-0.131625	0.413068	0.859420
41060	-0.078395	7.383811	4.721637	-0.268501	-0.131321	0.412573	0.860491
41061	-1.808781	7.575474	4.959807	-0.265747	-0.129453	0.411846	0.861977
41062	-2.597775	7.935819	5.924760	-0.262406	-0.125808	0.408796	0.864986
41063	-2.861044	8.081512	6.417540	-0.257518	-0.122160	0.405303	0.868614
41064	-2.943398	8.091958	6.647555	-0.251431	-0.118253	0.400739	0.873045
41065	-3.433263	7.969794	6.785362	-0.244385	-0.114297	0.396391	0.877546
41066	-4.242376	7.123460	7.564924	-0.237895	-0.109687	0.387078	0.884050
41067	-4.617303	5.863559	6.540288	-0.231130	-0.105649	0.378249	0.890138
41068	-4.143802	6.490415	5.159247	-0.221700	-0.101468	0.383161	0.890921
41069	-2.483386	8.056563	4.998013	-0.210615	-0.096085	0.395314	0.888896
41070	-1.602127	8.137735	5.147903	-0.201518	-0.092143	0.401008	0.888871
41071	-2.063005	6.780078	5.321416	-0.195688	-0.089191	0.395744	0.892826
41072	-2.601522	5.164627	5.621285	-0.192638	-0.085801	0.383952	0.898949
41073	-0.568503	4.554559	5.523842	-0.191121	-0.081001	0.377148	0.902591
41074	3.571033	7.243076	6.059758	-0.190928	-0.080496	0.388538	0.897834
41075	5.094102	11.227648	5.238991	-0.194540	-0.087883	0.411394	0.886107
41076	4.911692	13.334342	5.111614	-0.205006	-0.098733	0.427416	0.874951
41077	4.391039	13.183649	4.788785	-0.222473	-0.111560	0.430527	0.867587
41078	2.650558	11.783229	4.175569	-0.245103	-0.126198	0.426950	0.861227
41079	0.637622	11.182185	3.403901	-0.270604	-0.144985	0.427148	0.850469
41080	-0.111834	11.597528	2.248046	-0.297670	-0.168628	0.435072	0.832868
41081	0.783736	13.000411	1.332327	-0.326610	-0.196477	0.447864	0.808789
41082	1.772328	14.700738	1.523918	-0.358435	-0.227081	0.456558	0.781993
41083	1.363512	13.823552	0.808622	-0.395776	-0.260653	0.454184	0.754413
41084	-0.771218	12.108058	-0.512883	-0.435925	-0.298960	0.446611	0.721893
41085	-2.744002	11.133452	-1.743874	-0.473432	-0.339550	0.439870	0.683435
41086	-3.843134	10.324411	-2.006271	-0.507256	-0.374515	0.432469	0.644516
41087	-4.365802	9.499121	-1.311050	-0.541979	-0.397393	0.418930	0.610602
41088	-4.961278	9.333546	0.081102	-0.579307	-0.409777	0.399402	0.580486
41089	-4.908863	9.447416	3.175735	-0.621936	-0.409240	0.369191	0.556252
41090	-3.954729	8.268050	5.287095	-0.673606	-0.398303	0.321571	0.533105
41091	-7.485365	4.538875	3.632446	-0.720500	-0.392595	0.270001	0.503834
41092	-9.271386	5.246524	5.781639	-0.749213	-0.394275	0.246877	0.471465
41093	-2.945472	4.557263	7.706825	-0.773333	-0.394120	0.225607	0.442410
41094	-2.988001	3.910723	8.089395	-0.799259	-0.388853	0.193684	0.415288
41095	-5.031713	4.951034	11.258031	-0.814843	-0.388878	0.173572	0.393290
41096	-7.369485	9.120733	13.086462	-0.822328	-0.391700	0.163475	0.378977
41097	-10.152005	5.588896	14.233254	-0.834497	-0.377394	0.142379	0.375389
41098	-12.432171	-1.108212	13.043669	-0.836690	-0.369760	0.135856	0.380488
41099	-9.202326	4.286904	14.455782	-0.828767	-0.368878	0.149273	0.393435
41100	-7.516155	5.906725	13.013592	-0.818645	-0.362737	0.165563	0.413317
41101	-5.611372	8.234120	11.984947	-0.802928	-0.355831	0.190614	0.438585
41102	-2.897222	8.047015	11.105613	-0.785065	-0.342905	0.216503	0.468205
41103	-2.361221	7.137395	9.386689	-0.763002	-0.330268	0.242193	0.500094
41104	-3.304661	7.989234	6.791750	-0.735580	-0.317890	0.269872	0.533889
41105	-3.357516	9.362682	4.371511	-0.703191	-0.301720	0.299417	0.569945
41106	-1.296240	9.863020	1.825035	-0.667127	-0.281019	0.327543	0.607195
41107	0.845036	9.542766	0.665536	-0.629070	-0.256876	0.351308	0.644103
41108	2.441214	8.737647	-0.443818	-0.588256	-0.231614	0.371315	0.680026
41109	3.856467	7.354353	0.144367	-0.545599	-0.204417	0.384423	0.716069
41110	4.232258	5.903748	1.678174	-0.501230	-0.177143	0.391372	0.751143
41111	5.470673	5.573564	3.419106	-0.455542	-0.151773	0.394511	0.783459
41112	4.388160	5.259210	3.653201	-0.413176	-0.131868	0.388679	0.812911
41113	1.205752	2.725318	1.941222	-0.373865	-0.113303	0.375325	0.840547
41114	-0.312555	-0.697975	2.820099	-0.337664	-0.093017	0.357362	0.865808
41115	1.486647	-1.318856	4.661697	-0.303701	-0.079092	0.351615	0.881973
41116	2.263382	4.641523	4.527048	-0.271164	-0.077048	0.368624	0.885805
41117	2.276908	10.157917	5.731625	-0.241317	-0.073013	0.382691	0.888810
41118	2.568678	12.259859	6.767522	-0.218299	-0.068651	0.381324	0.895670
41119	2.169672	13.016315	6.912567	-0.199932	-0.066812	0.378582	0.901243
41120	2.550175	13.157427	8.004566	-0.186017	-0.065941	0.370152	0.907765
41121	2.704855	9.074731	8.735834	-0.178194	-0.065040	0.350617	0.917106
41122	1.620285	7.081930	9.390094	-0.174001	-0.067989	0.347206	0.918993
41123	0.823466	11.362945	10.497054	-0.172280	-0.072848	0.352725	0.916841
41124	-0.330762	10.958114	9.552436	-0.174784	-0.078834	0.348580	0.917457
41125	-1.444580	10.150332	8.153726	-0.179535	-0.085797	0.351175	0.914922
41126	-1.162684	12.414650	7.494261	-0.186988	-0.092947	0.356657	0.910600
41127	-0.576026	12.130985	6.584838	-0.198029	-0.100480	0.359196	0.906458
41128	-1.181261	9.764789	5.407719	-0.213191	-0.109506	0.360591	0.901406
41129	-1.671206	8.363050	4.833516	-0.232719	-0.120228	0.362689	0.894340
41130	-2.031530	8.521926	4.784567	-0.256169	-0.132357	0.364412	0.885473
41131	-3.009978	8.214176	4.474693	-0.282331	-0.143680	0.363218	0.876195
41132	-3.827901	6.228526	3.185704	-0.309707	-0.154380	0.360274	0.866286
41133	-3.839122	3.998230	2.712758	-0.336987	-0.164232	0.357231	0.855484
41134	-3.245620	3.056762	3.552284	-0.362960	-0.173982	0.355740	0.843469
41135	-2.827612	3.169421	4.584213	-0.386850	-0.186289	0.354863	0.830491
41136	-3.058362	4.492455	4.251485	-0.408114	-0.203063	0.355877	0.815819
41137	-5.570865	7.482651	4.874317	-0.427421	-0.220692	0.355313	0.801473
41138	-4.102514	8.919444	4.490947	-0.444225	-0.234427	0.353141	0.789303
41139	-1.225919	9.468655	4.924160	-0.460854	-0.246392	0.351379	0.776813
41140	-1.126337	10.105873	4.973847	-0.478015	-0.258173	0.349291	0.763442
41141	-2.487209	9.936094	5.098217	-0.494011	-0.269748	0.346946	0.750212
41142	-3.657080	9.010055	5.846322	-0.507204	-0.280365	0.344712	0.738453
41143	-3.392918	9.314958	6.740254	-0.516070	-0.291342	0.344704	0.727991
41144	-2.710788	10.905450	6.989876	-0.522294	-0.301545	0.344127	0.719622
41145	-2.200044	11.144966	6.717564	-0.527878	-0.311018	0.340547	0.713190
41146	-2.156119	9.017932	5.887892	-0.533891	-0.318931	0.333901	0.708346
41147	-1.611297	7.224825	5.255023	-0.538611	-0.325321	0.328891	0.704198
41148	-0.854319	6.893735	5.522115	-0.542226	-0.330007	0.325133	0.700981
41149	-0.240450	7.137943	5.548264	-0.545216	-0.332859	0.321611	0.698935
41150	-0.709721	8.275379	5.161496	-0.547649	-0.334083	0.318826	0.697724
41151	-1.447801	8.754914	5.012585	-0.550414	-0.332278	0.314838	0.698222
41152	-1.030957	7.602098	4.507402	-0.553154	-0.328825	0.310597	0.699589
41153	0.065322	6.844714	3.514635	-0.555535	-0.324356	0.307100	0.701330
41154	0.571819	5.345073	2.119982	-0.558211	-0.317982	0.302343	0.704185
41155	0.968893	3.075341	1.104688	-0.561034	-0.308759	0.295219	0.709052
41156	1.221236	0.456519	-0.371258	-0.564124	-0.297363	0.284992	0.715625
41157	1.789324	-1.153421	-1.311423	-0.566140	-0.286125	0.275455	0.722317
41158	2.832914	-1.002403	-1.476222	-0.567255	-0.276867	0.267490	0.728022
41159	3.115575	-0.809363	-0.821519	-0.570030	-0.266965	0.255531	0.733825
41160	2.101059	-1.238876	-1.701197	-0.573596	-0.259109	0.242494	0.738273
41161	0.417507	-0.727171	-0.964208	-0.576186	-0.254557	0.231781	0.741274
41162	-0.489813	-0.126068	-0.074481	-0.578453	-0.250573	0.221667	0.743955
41163	-0.215301	0.997947	0.879508	-0.580619	-0.247567	0.214311	0.745428
41164	-0.009784	1.287271	2.223831	-0.584193	-0.243498	0.204459	0.746743
41165	-0.481574	0.024397	3.087478	-0.588595	-0.238619	0.193604	0.747753
41166	-1.149858	0.147165	3.426680	-0.591544	-0.236840	0.186643	0.747761
41167	-1.866179	1.883261	4.274933	-0.593563	-0.235326	0.181776	0.747838
41168	-0.822068	2.894490	4.889759	-0.595813	-0.232387	0.177247	0.748055
41169	-0.380459	5.171985	6.951959	-0.598390	-0.229561	0.172545	0.747970
41170	-0.835441	4.442440	9.496386	-0.602852	-0.223953	0.161625	0.748527
41171	-3.646769	2.049201	10.394194	-0.606758	-0.219091	0.151580	0.748911
41172	-3.975181	1.143915	10.231769	-0.608362	-0.215755	0.148145	0.749266
41173	-2.557241	4.620961	10.578542	-0.608300	-0.214845	0.149251	0.749358
41174	-1.868820	5.384578	13.428629	-0.609141	-0.211052	0.144765	0.750631
41175	-2.725294	3.181335	14.854258	-0.609109	-0.210749	0.141241	0.751413
41176	-4.423485	3.690235	15.290908	-0.607460	-0.212123	0.143250	0.751981
41177	-2.585733	6.578800	15.881073	-0.603945	-0.216469	0.152924	0.751669
41178	-2.513630	9.839783	16.665858	-0.600718	-0.219163	0.161523	0.751675
41179	-2.720440	9.621461	19.961706	-0.598234	-0.219132	0.165126	0.752882
41180	-4.695807	9.753097	22.891019	-0.595214	-0.220365	0.169912	0.753850
41181	-4.840573	14.083012	25.388484	-0.590919	-0.223600	0.178481	0.754296
41182	-5.909440	18.787479	25.806981	-0.586160	-0.225133	0.185055	0.755967
41183	-4.741293	18.828121	26.153281	-0.582415	-0.221959	0.186280	0.759491
41184	-2.827562	17.440188	25.704288	-0.579175	-0.218683	0.186570	0.762840
41185	-3.058811	16.200407	23.832693	-0.575400	-0.216448	0.187298	0.766149
41186	-2.877461	14.892829	21.566616	-0.570679	-0.214225	0.187823	0.770166
41187	-2.171123	12.475608	18.977264	-0.565733	-0.211152	0.186862	0.774883
41188	-1.633021	9.801788	17.446295	-0.560808	-0.207985	0.185101	0.779727
41189	-1.122440	7.582869	16.051422	-0.556059	-0.205662	0.184011	0.783990
41190	-1.435919	6.000776	13.905006	-0.550919	-0.204603	0.185063	0.787640
41191	-1.890862	3.252445	13.622207	-0.544897	-0.201690	0.187112	0.792084
41192	-2.630453	2.866659	13.353444	-0.536547	-0.200249	0.196111	0.795964
41193	-2.016156	3.918870	12.579517	-0.526546	-0.198295	0.207609	0.800204
41194	-2.072858	4.243229	11.168770	-0.515459	-0.196442	0.218575	0.804946
41195	-1.872174	4.728221	10.353388	-0.503665	-0.194908	0.228931	0.809890
41196	-1.275183	5.581282	9.964011	-0.491926	-0.194651	0.238079	0.814517
41197	-0.993408	5.534222	10.114819	-0.481370	-0.194676	0.244138	0.819012
41198	-0.831566	5.594499	9.379247	-0.471608	-0.195971	0.250005	0.822605
41199	-1.282131	5.762490	8.409226	-0.462359	-0.196903	0.255418	0.825963
41200	-1.794906	5.927976	6.636471	-0.452837	-0.196817	0.260855	0.829552
41201	-1.621802	5.888867	5.187225	-0.442294	-0.194879	0.265637	0.834167
41202	-1.642769	4.538950	4.151297	-0.430987	-0.192004	0.269780	0.839407
41203	-0.862615	2.588687	3.942908	-0.419179	-0.188668	0.274550	0.844580
41204	-0.031026	2.032809	3.431388	-0.407129	-0.186870	0.282038	0.848399
41205	0.016950	1.907560	3.247719	-0.395257	-0.185241	0.289108	0.851983
41206	-0.175236	1.707370	2.901871	-0.383992	-0.183933	0.295351	0.855270
41207	0.226479	2.192623	1.753023	-0.374206	-0.183771	0.301423	0.857521
41208	0.418601	2.317536	0.643605	-0.366042	-0.183197	0.306916	0.859217
41209	0.793432	1.082465	0.483765	-0.359560	-0.181159	0.310842	0.860973
41210	1.178996	-0.489134	0.126053	-0.354191	-0.180019	0.316497	0.861378
41211	1.021743	-0.061081	-0.027111	-0.349727	-0.181161	0.326185	0.859346
41212	0.719572	0.992868	-0.219783	-0.346394	-0.182396	0.336491	0.856456
41213	0.801955	1.646407	-0.561598	-0.344444	-0.183340	0.346225	0.853155
41214	0.045570	2.199584	-0.275409	-0.343129	-0.184462	0.355019	0.849822
41215	-1.051563	2.470370	0.151835	-0.341643	-0.185561	0.362633	0.846962
41216	-2.036230	3.124404	0.623759	-0.338930	-0.186322	0.370957	0.844276
41217	-1.513335	4.068526	2.204160	-0.335158	-0.186515	0.380479	0.841497
41218	-0.514148	5.767358	3.491991	-0.331719	-0.189145	0.390658	0.837599
41219	-2.789052	9.816429	4.319034	-0.326537	-0.192448	0.399341	0.834784
41220	-4.628086	13.509092	5.584274	-0.318965	-0.194736	0.402508	0.835659
41221	-6.367056	14.572747	5.750481	-0.309477	-0.194281	0.400376	0.840344
41222	-5.614100	11.413446	5.414306	-0.298381	-0.190796	0.396844	0.846806
41223	-3.977404	10.221074	5.816253	-0.285497	-0.185390	0.395737	0.852944
41224	-4.389562	9.724539	6.228697	-0.272643	-0.179209	0.391711	0.860298
41225	-5.174509	7.990983	4.848000	-0.258755	-0.172577	0.388862	0.867208
41226	-5.138072	7.236529	3.354164	-0.243445	-0.164478	0.388522	0.873346
41227	-5.083801	6.289545	2.942462	-0.226854	-0.153992	0.387797	0.880021
41228	-4.319950	5.869084	3.218389	-0.209532	-0.143083	0.387140	0.886423
41229	-3.065216	5.735563	2.512124	-0.192867	-0.133961	0.386962	0.891693
41230	-1.787169	5.393361	2.192548	-0.178348	-0.126675	0.385309	0.896484
41231	-0.869031	4.724188	2.250897	-0.167652	-0.121839	0.381717	0.900744
41232	-1.168376	3.994875	3.286407	-0.163241	-0.120099	0.375004	0.904600
41233	-1.751148	4.866369	3.704027	-0.164827	-0.121179	0.374727	0.904283
41234	-0.176264	9.805302	4.498500	-0.170241	-0.125089	0.386935	0.897581
41235	2.909936	13.795521	4.787780	-0.181110	-0.134022	0.394927	0.890657
41236	1.557557	11.987072	2.045094	-0.199637	-0.148459	0.392560	0.885439
41237	-0.940939	11.438907	1.524053	-0.221689	-0.164787	0.392704	0.877202
41238	0.081371	14.611721	0.873460	-0.246533	-0.184267	0.399009	0.863747
41239	0.495252	19.456342	1.374757	-0.276125	-0.207144	0.410388	0.844055
41240	-0.941687	21.038238	0.899633	-0.313606	-0.231643	0.416709	0.821186
41241	-4.992330	18.066302	1.145971	-0.358950	-0.254230	0.412153	0.797905
41242	-6.468598	13.078710	0.679701	-0.407041	-0.272348	0.403515	0.772865
41243	-6.310242	9.811419	0.779290	-0.453424	-0.288324	0.396614	0.744294
41244	-4.728579	8.039373	2.248415	-0.497005	-0.301395	0.389959	0.714198
41245	-3.382536	7.457052	4.410268	-0.542543	-0.309300	0.371825	0.686824
41246	-3.853277	7.280017	7.433304	-0.589546	-0.311001	0.343006	0.661862
41247	-4.736475	6.074612	9.062741	-0.633193	-0.309353	0.311622	0.637385
41248	-10.484869	6.908848	11.133222	-0.672341	-0.308665	0.277875	0.612755
41249	-6.717631	-0.405627	9.689392	-0.713891	-0.287973	0.228633	0.595951
41250	-4.096273	-9.809081	4.076969	-0.744186	-0.287240	0.196604	0.570112
41251	-3.140796	4.170881	10.299490	-0.761289	-0.311017	0.191084	0.535906
41252	-4.395945	9.794049	13.150310	-0.783517	-0.316756	0.167176	0.507758
41253	-9.056558	4.220879	13.864460	-0.802436	-0.311248	0.140404	0.489395
41254	-10.378850	-0.406477	13.279698	-0.810926	-0.308328	0.126652	0.480929
41255	-9.069427	0.709031	13.990191	-0.811875	-0.307964	0.123185	0.480461
41256	-5.811673	1.860970	13.898812	-0.807670	-0.306088	0.128519	0.487301
41257	-4.802172	4.248308	14.110336	-0.799804	-0.304663	0.137180	0.498675
41258	-4.506382	5.355748	12.814869	-0.789490	-0.300099	0.147894	0.514562
41259	-3.915425	4.273995	11.355594	-0.776923	-0.292575	0.161248	0.533657
41260	-4.295788	4.103810	11.236471	-0.761279	-0.284544	0.178051	0.554785
41261	-4.309958	5.159160	10.619196	-0.741863	-0.275394	0.197871	0.578485
41262	-3.483122	5.695638	9.673586	-0.719510	-0.263875	0.217200	0.604566
41263	-1.928040	5.161649	7.871157	-0.695427	-0.249741	0.233740	0.631962
41264	-1.339567	4.782342	6.705550	-0.668273	-0.235441	0.250468	0.659731
41265	-1.768149	5.578612	7.544058	-0.637683	-0.219034	0.267537	0.688338
41266	-0.980647	5.069017	7.930478	-0.603843	-0.198849	0.281672	0.718675
41267	0.175714	4.305896	8.103822	-0.565866	-0.177213	0.292574	0.750194
41268	0.584177	2.418232	7.237072	-0.523956	-0.155431	0.298532	0.782426
41269	0.646518	1.189156	6.668317	-0.477100	-0.135806	0.303664	0.813462
41270	0.821474	1.752480	6.031773	-0.425969	-0.118980	0.311457	0.841064
41271	0.564609	4.190088	6.043045	-0.373630	-0.105374	0.323021	0.863107
41272	0.620878	5.585117	8.331952	-0.322963	-0.092090	0.327252	0.883244
41273	-1.499743	3.738893	7.773715	-0.272722	-0.079978	0.329081	0.900518
41274	-2.425022	2.464855	4.858734	-0.221063	-0.066849	0.336497	0.912925
41275	-1.982876	3.181073	2.861892	-0.169796	-0.053615	0.349392	0.919902
41276	-2.695805	4.191312	0.976630	-0.121314	-0.040518	0.360487	0.923954
41277	-3.111878	4.584669	-0.152177	-0.075618	-0.026524	0.370140	0.925513
41278	-3.707753	6.236268	-0.894560	-0.032192	-0.013128	0.381303	0.923796
41279	-3.484972	8.003235	-0.487649	0.010753	0.001680	0.388452	0.921405
41280	-2.271603	8.792040	1.072334	0.052138	0.014473	0.390564	0.918984
41281	-3.245358	9.453803	2.178195	0.091030	0.024302	0.390684	0.915690
41282	-1.966230	9.827983	3.707737	0.127023	0.032606	0.387034	0.912692
41283	0.933402	10.009776	4.649918	0.157854	0.038846	0.383978	0.908919
41284	0.158917	9.910092	6.701213	0.181775	0.041714	0.380077	0.905958
41285	-2.551760	11.757508	8.730430	0.201210	0.045749	0.377902	0.902558
41286	-2.937541	12.948067	10.724725	0.218129	0.049058	0.372986	0.900497
41287	-2.794508	10.515018	11.590761	0.233017	0.051504	0.366521	0.899285
41288	-1.729628	9.676277	11.768760	0.244870	0.053962	0.364164	0.896945
41289	-0.069876	12.326560	11.313464	0.253220	0.057022	0.363906	0.894539
41290	1.186449	12.448901	10.155508	0.257399	0.058400	0.362085	0.893996
41291	0.841002	10.551753	9.354101	0.257559	0.058140	0.359960	0.894825
41292	-0.329582	8.432021	9.119337	0.254969	0.056042	0.357878	0.896534
41293	-1.381801	6.323648	8.755390	0.251125	0.052778	0.356526	0.898354
41294	-1.966441	5.569280	8.191331	0.246981	0.049469	0.357590	0.899268
41295	-2.010964	5.737737	7.785404	0.242688	0.046122	0.360073	0.899624
41296	-1.930067	6.234492	7.143963	0.237636	0.042900	0.363543	0.899736
41297	-1.748419	6.716485	6.552818	0.231422	0.039430	0.366847	0.900174
41298	-1.769580	6.446292	6.507958	0.223951	0.035418	0.369032	0.901336
41299	-1.980731	6.241313	6.147600	0.215124	0.031173	0.371825	0.902495
41300	-2.444501	6.991754	5.856474	0.205274	0.027166	0.374711	0.903724
41301	-2.078344	8.240946	6.173227	0.194154	0.023152	0.377692	0.905051
41302	-1.435214	9.819536	6.460587	0.181117	0.018254	0.379957	0.906916
41303	-0.956591	10.405906	6.438747	0.165171	0.011735	0.381177	0.909552
41304	-0.833381	10.596779	7.010738	0.145717	0.003891	0.381090	0.912974
41305	-1.149190	10.178623	6.789590	0.121668	-0.006037	0.381579	0.916274
41306	-1.595430	9.549548	5.566513	0.092919	-0.018555	0.382454	0.919103
41307	-1.675197	9.150217	3.285589	0.059522	-0.035440	0.385035	0.920298
41308	-2.954727	9.569237	-0.338388	0.023260	-0.054639	0.389279	0.919204
41309	-4.022653	9.654926	-0.392922	-0.015514	-0.072499	0.388999	0.918250
41310	-3.411896	8.709663	0.119666	-0.057143	-0.090637	0.388800	0.915071
41311	-3.295019	8.973702	-0.128734	-0.101796	-0.113507	0.398600	0.904363
41312	-4.070424	9.206132	0.052888	-0.150638	-0.141569	0.405536	0.890397
41313	-4.787328	8.008566	-0.018633	-0.205507	-0.172006	0.392881	0.879673
41314	-5.827733	5.682436	-1.227563	-0.266572	-0.201516	0.358566	0.871643
41315	-7.251597	4.251910	-2.962562	-0.326449	-0.223809	0.322758	0.859749
41316	-7.600871	3.070058	-2.447731	-0.378163	-0.240616	0.301508	0.841540
41317	-7.054322	2.842921	-0.832850	-0.424058	-0.255340	0.288513	0.819596
41318	-7.242111	3.150498	2.117802	-0.468116	-0.273587	0.271633	0.795131
41319	-10.456231	3.514481	7.616521	-0.510510	-0.283342	0.245220	0.773927
41320	-8.794982	0.180102	9.372787	-0.546006	-0.283464	0.224092	0.755849
41321	-8.101838	0.370389	11.271383	-0.572790	-0.294834	0.215463	0.733867
41322	-7.144004	2.560422	11.748251	-0.593112	-0.302303	0.212292	0.715376
41323	-5.607789	4.482607	13.133415	-0.609223	-0.309502	0.212073	0.698628
41324	-5.265486	6.030230	14.635048	-0.624396	-0.313311	0.208373	0.684504
41325	-5.853644	4.242895	14.807106	-0.639788	-0.312758	0.197393	0.673714
41326	-6.108960	3.493070	13.856388	-0.647890	-0.313322	0.196238	0.666002
41327	-4.230817	7.161443	14.840855	-0.649406	-0.315029	0.205148	0.661016
41328	-3.718338	8.707568	14.722645	-0.652534	-0.312263	0.205279	0.659206
41329	-4.693329	7.781137	13.216253	-0.653243	-0.308191	0.207076	0.659857
41330	-3.989539	8.604570	12.070138	-0.650459	-0.304196	0.213170	0.662515
41331	-3.659580	8.494290	11.002275	-0.645547	-0.299823	0.220150	0.667015
41332	-2.842503	8.166172	10.365275	-0.638321	-0.294989	0.229812	0.672840
41333	-2.240190	8.453920	9.586711	-0.629194	-0.289910	0.240958	0.679711
41334	-1.457645	8.850868	8.841567	-0.618515	-0.284328	0.252818	0.687517
41335	-0.671045	9.144378	8.437868	-0.606903	-0.278085	0.264201	0.696086
41336	0.147188	8.951828	8.159878	-0.595290	-0.271627	0.273534	0.705002
41337	0.733794	7.884426	7.835648	-0.584260	-0.265474	0.279532	0.714160
41338	0.618352	6.610032	7.004108	-0.573017	-0.260038	0.283816	0.723519
41339	0.303545	5.833275	6.095475	-0.560922	-0.255204	0.287824	0.733072
41340	0.596711	5.639967	5.676194	-0.548142	-0.250749	0.291395	0.742801
41341	1.718290	5.312647	5.496486	-0.535203	-0.246350	0.293712	0.752730
41342	2.542909	4.445686	5.762828	-0.523012	-0.241293	0.293510	0.762947
41343	2.492428	3.423892	5.872652	-0.511916	-0.236710	0.291457	0.772634
41344	2.050509	2.949625	5.727153	-0.501108	-0.233754	0.290786	0.780829
41345	1.764985	2.562914	6.690895	-0.490525	-0.231167	0.290424	0.788417
41346	1.806227	2.240957	6.075725	-0.479234	-0.229268	0.291518	0.795480
41347	2.039493	2.500742	6.515287	-0.467738	-0.229202	0.293243	0.801683
41348	2.580082	3.055192	5.721573	-0.456054	-0.230333	0.296010	0.807056
41349	3.121169	3.820782	5.514037	-0.444988	-0.231763	0.298779	0.811790
41350	2.940977	4.483193	5.733310	-0.435463	-0.233154	0.301057	0.815706
41351	2.537658	5.427761	5.897310	-0.427691	-0.234542	0.304242	0.818234
41352	2.555311	6.014542	5.639470	-0.422623	-0.236250	0.306739	0.819443
41353	2.691869	5.746668	5.366489	-0.420764	-0.238709	0.308763	0.818926
41354	2.189683	5.204455	5.194192	-0.421853	-0.242008	0.310861	0.816601
41355	1.642575	5.145299	5.450006	-0.424641	-0.246808	0.314962	0.812136
41356	1.104378	6.407311	6.033944	-0.428354	-0.253281	0.320571	0.805975
41357	-0.454121	8.046549	5.849509	-0.432661	-0.259434	0.326144	0.799455
41358	-1.863960	9.184392	5.434532	-0.437729	-0.265110	0.331342	0.792667
41359	-2.002579	9.523234	5.161167	-0.443754	-0.270365	0.335974	0.785561
41360	-1.967186	8.569612	5.250690	-0.451628	-0.274861	0.337531	0.778817
41361	-2.643852	8.233567	4.792192	-0.459479	-0.279990	0.340582	0.771031
41362	-3.408676	8.474061	4.890959	-0.467000	-0.285558	0.343532	0.763121
41363	-4.447817	7.506657	4.804688	-0.474973	-0.290456	0.343112	0.756512
41364	-4.461113	6.346297	4.733821	-0.482594	-0.294002	0.341972	0.750814
41365	-4.147207	6.907125	4.257698	-0.486320	-0.299474	0.348312	0.743295
41366	-3.836596	8.672279	4.454444	-0.488434	-0.305574	0.357946	0.734800
41367	-4.067010	10.135132	5.124601	-0.491574	-0.311599	0.363840	0.727242
41368	-4.241276	9.748296	5.431022	-0.496796	-0.316632	0.361878	0.722483
41369	-4.317580	8.381871	5.892823	-0.502678	-0.320149	0.355332	0.720110
41370	-3.629518	7.050072	5.163151	-0.506355	-0.324096	0.351699	0.717547
41371	-3.448731	7.349564	4.758004	-0.506865	-0.328765	0.354268	0.713790
41372	-3.032873	8.454420	4.646413	-0.505384	-0.333439	0.359798	0.709895
41373	-3.118193	8.743409	3.533112	-0.503853	-0.337989	0.363691	0.706841
41374	-4.078171	8.905087	3.268312	-0.502991	-0.339945	0.364135	0.706288
41375	-4.283305	8.706502	3.292991	-0.502196	-0.338229	0.363469	0.708018
41376	-3.821884	8.939512	3.666346	-0.500350	-0.335336	0.365585	0.709611
41377	-2.830295	8.558318	3.636325	-0.497994	-0.332837	0.369118	0.710614
41378	-2.636729	7.289068	4.196605	-0.498458	-0.329956	0.367305	0.712570
41379	-3.601962	5.974729	4.535417	-0.502024	-0.326364	0.359814	0.715536
41380	-3.968803	5.019874	4.477250	-0.504663	-0.322514	0.353993	0.718324
41381	-4.027426	5.385784	4.154968	-0.504319	-0.320962	0.354779	0.718872
41382	-2.617297	7.262742	2.987959	-0.498678	-0.320841	0.365267	0.717608
41383	-1.291986	8.737360	3.009005	-0.491486	-0.319391	0.377752	0.716752
41384	-0.785418	8.555666	3.737007	-0.488762	-0.317572	0.381057	0.717674
41385	-1.327937	7.492408	4.434877	-0.491092	-0.318281	0.375718	0.718583
41386	-2.316800	6.359451	4.627816	-0.494106	-0.319867	0.369313	0.719133
41387	-2.433292	5.787614	4.825146	-0.493906	-0.321954	0.368321	0.718847
41388	-1.310058	6.200086	4.378642	-0.490105	-0.324302	0.374151	0.717381
41389	-0.429098	7.496238	3.919091	-0.485475	-0.326405	0.382015	0.715429
41390	0.249435	8.497804	3.298454	-0.482188	-0.328538	0.388129	0.713382
41391	-0.114808	9.757215	3.095654	-0.479506	-0.331130	0.391391	0.712208
41392	-0.529509	9.836761	3.399852	-0.478512	-0.332658	0.389322	0.713298
41393	-0.256257	8.662614	4.225420	-0.478811	-0.332595	0.384412	0.715785
41394	0.014448	8.267068	5.179026	-0.478882	-0.332458	0.381173	0.717531
41395	0.521306	8.206423	5.596498	-0.479041	-0.331505	0.378969	0.719032
41396	0.390289	8.685034	6.075321	-0.480270	-0.330824	0.375203	0.720499
41397	-0.417254	8.961150	6.137954	-0.481710	-0.330396	0.370588	0.722121
41398	-0.092851	7.953747	6.132187	-0.482714	-0.329846	0.366733	0.723668
41399	-0.357408	7.149794	5.944595	-0.483465	-0.330322	0.364466	0.724095
41400	-0.227652	8.066586	5.298720	-0.482814	-0.331181	0.365875	0.723426
41401	0.486289	9.916166	5.197319	-0.481516	-0.332012	0.369533	0.722050
41402	0.197133	11.295954	5.377732	-0.481851	-0.333294	0.370397	0.720791
41403	-0.929476	12.039326	5.597653	-0.483242	-0.334710	0.368726	0.720061
41404	-1.143866	11.680735	6.976402	-0.484590	-0.335109	0.366065	0.720327
41405	-1.816143	12.130741	7.541196	-0.484817	-0.336703	0.364949	0.719997
41406	-1.914260	13.072851	7.632434	-0.484047	-0.337812	0.365739	0.719595
41407	-1.585992	14.035416	7.551601	-0.483324	-0.338830	0.367083	0.718917
41408	-1.351896	14.344702	7.348343	-0.482882	-0.340042	0.367659	0.718347
41409	-1.532225	14.178055	7.870690	-0.483699	-0.340691	0.365997	0.718339
41410	-1.652361	14.265497	9.081310	-0.484549	-0.340287	0.364428	0.718755
41411	-2.077529	13.773770	9.315386	-0.485394	-0.340373	0.362713	0.719012
41412	-3.169439	13.123353	9.112557	-0.485707	-0.340937	0.361438	0.719175
41413	-3.260163	13.051152	8.400273	-0.484362	-0.341460	0.363159	0.718967
41414	-2.327531	13.587003	7.351116	-0.482090	-0.341955	0.367148	0.718232
41415	-1.925167	13.710129	6.414463	-0.480648	-0.342261	0.370213	0.717480
41416	-1.448287	13.331606	6.498105	-0.480272	-0.342000	0.371472	0.717206
41417	-0.901798	12.513848	7.375996	-0.480498	-0.341741	0.371938	0.716936
41418	-1.641763	12.036013	7.484065	-0.480662	-0.342086	0.373605	0.715794
41419	-2.034396	12.447870	7.215578	-0.479800	-0.342636	0.377297	0.714170
41420	-1.581323	12.579892	6.479015	-0.478525	-0.343808	0.381407	0.712277
41421	-1.417682	12.202210	5.924270	-0.477320	-0.344518	0.385283	0.710655
41422	-1.566381	12.053123	5.858043	-0.476460	-0.344801	0.388376	0.709410
41423	-1.838892	12.202879	5.762352	-0.475719	-0.344629	0.390582	0.708780
41424	-1.839039	11.669462	5.102498	-0.474853	-0.344383	0.392172	0.708601
41425	-1.348563	10.680155	4.463741	-0.473909	-0.343385	0.393843	0.708791
41426	-0.436150	9.584253	3.812958	-0.472856	-0.341694	0.395947	0.709139
41427	0.048356	8.454490	3.334860	-0.472394	-0.339572	0.397496	0.709600
41428	-0.058217	7.794025	3.038972	-0.472456	-0.337202	0.398056	0.710374
41429	-0.648516	7.647640	2.947496	-0.472207	-0.335458	0.398685	0.711013
41430	-1.012032	6.436946	2.375138	-0.471423	-0.333211	0.399448	0.712160
41431	-0.912390	5.044039	1.814793	-0.470176	-0.331068	0.401218	0.712989
41432	-0.368064	4.064971	1.599996	-0.468826	-0.327979	0.403619	0.713949
41433	0.618032	3.260992	1.211818	-0.467658	-0.324318	0.406403	0.714808
41434	1.567500	2.906704	1.251202	-0.466411	-0.320560	0.409867	0.715340
41435	2.249430	2.525898	1.471179	-0.465817	-0.316306	0.412487	0.716114
41436	2.315644	2.110697	1.610887	-0.467294	-0.315350	0.412671	0.715467
41437	1.255065	2.037980	1.711931	-0.470231	-0.317378	0.411164	0.713511
41438	0.468253	2.300887	2.017819	-0.472787	-0.319275	0.410171	0.711545
41439	0.375087	3.082407	2.125864	-0.473791	-0.321019	0.411307	0.709433
41440	0.675769	4.347645	2.445033	-0.473817	-0.321948	0.413873	0.707500
41441	0.976415	5.291258	2.943917	-0.475080	-0.322287	0.413999	0.706424
41442	0.520670	5.584440	3.282453	-0.477750	-0.323090	0.411429	0.705758
41443	-0.015132	6.047391	3.968068	-0.480329	-0.324547	0.408159	0.705237
41444	-0.580154	6.601293	3.561774	-0.481273	-0.328036	0.407065	0.703610
41445	-1.254723	7.911278	2.966587	-0.480536	-0.332978	0.409811	0.700190
41446	-1.131198	9.960580	2.893139	-0.479040	-0.337617	0.414182	0.696412
41447	-0.759342	11.802991	3.219979	-0.480239	-0.342296	0.414419	0.693153
41448	-0.616611	12.301997	3.133212	-0.483960	-0.346042	0.411385	0.690507
41449	-0.754149	11.706256	2.898736	-0.489919	-0.350153	0.406069	0.687372
41450	-1.151254	10.983116	2.467799	-0.497011	-0.354584	0.401043	0.682946
41451	-1.327595	10.768929	2.460738	-0.505667	-0.358113	0.395000	0.678256
41452	-0.733342	10.528946	3.024280	-0.516757	-0.361269	0.386395	0.673160
41453	-0.776954	10.188009	2.448461	-0.529409	-0.365314	0.377338	0.666249
41454	-0.969852	9.476310	1.845661	-0.543155	-0.369129	0.368389	0.658040
41455	-1.954078	8.345360	1.614160	-0.559162	-0.373034	0.357092	0.648590
41456	-3.062094	7.577009	1.918967	-0.574900	-0.376661	0.347104	0.638072
41457	-3.067227	7.884741	2.472461	-0.588189	-0.380422	0.341956	0.626402
41458	-2.422955	8.287665	3.741035	-0.601334	-0.384882	0.337698	0.613370
41459	-3.372247	8.945711	3.828192	-0.614566	-0.391748	0.334389	0.597517
41460	-3.441946	9.584829	3.664280	-0.627624	-0.398939	0.332200	0.580155
41461	-3.186931	9.413754	4.125951	-0.641565	-0.407160	0.328954	0.560717
41462	-3.039807	8.865941	3.170387	-0.655372	-0.415683	0.327141	0.539142
41463	-3.019786	8.750658	2.949277	-0.670355	-0.422194	0.324799	0.516606
41464	-3.626673	7.697999	3.172851	-0.687213	-0.426161	0.320034	0.493664
41465	-3.792509	7.467403	4.019030	-0.702276	-0.430162	0.317415	0.470124
41466	-3.309859	8.461909	4.021881	-0.716247	-0.433752	0.315912	0.446149
41467	-3.555405	10.162657	4.540749	-0.730291	-0.435665	0.314186	0.422089
41468	-2.558820	11.338685	4.339822	-0.743474	-0.436580	0.313881	0.397646
41469	-1.213739	11.844323	4.193328	-0.757071	-0.435555	0.313477	0.372649
41470	-1.072278	9.664966	4.514813	-0.773548	-0.431275	0.308973	0.346642
41471	-1.103616	8.018645	5.298113	-0.789151	-0.426320	0.305035	0.320072
41472	-0.038018	9.287745	6.610672	-0.803361	-0.420996	0.301151	0.294417
41473	0.046206	10.159272	7.489902	-0.818659	-0.412136	0.294664	0.270398
41474	-0.333930	10.708098	6.933470	-0.831982	-0.404190	0.289623	0.246080
41475	-0.243805	9.019729	7.829107	-0.847351	-0.389908	0.283454	0.222758
41476	-0.269259	5.449807	7.731120	-0.861057	-0.374116	0.280792	0.199436
41477	1.313331	5.098145	7.179325	-0.871274	-0.360184	0.282544	0.176967
41478	2.277382	4.910723	6.007717	-0.879185	-0.347094	0.286625	0.156225
41479	3.406922	4.293041	5.122601	-0.885280	-0.335109	0.292075	0.136647
41480	4.536742	4.373401	4.586606	-0.890126	-0.324953	0.297260	0.117120
41481	4.581186	4.513294	4.440055	-0.895082	-0.315124	0.300183	0.097031
41482	3.769852	5.340640	4.895318	-0.899626	-0.305402	0.302359	0.077338
41483	3.378464	5.633931	3.571726	-0.903934	-0.294785	0.304069	0.059556
41484	2.257888	4.414298	3.604080	-0.909200	-0.280131	0.304784	0.044604
41485	2.301554	1.725669	3.358966	-0.914306	-0.263466	0.306037	0.031174
41486	2.824444	0.095482	2.896426	-0.918521	-0.249392	0.306368	0.016178
41487	2.950554	0.205693	3.936238	-0.921800	-0.237898	0.306085	-0.000904
41488	3.770279	0.458242	4.284068	-0.924433	-0.226340	0.306340	-0.018685
41489	4.057711	-0.950716	4.872445	-0.926959	-0.213246	0.306644	-0.035257
41490	3.985191	-2.499296	5.074692	-0.928922	-0.202743	0.305624	-0.050924
41491	3.168949	-1.186131	4.596081	-0.929903	-0.198775	0.302160	-0.066849
41492	3.220612	0.503800	5.432907	-0.930637	-0.197098	0.297113	-0.082406
41493	5.162688	2.106908	6.617027	-0.931140	-0.195443	0.291615	-0.098698
41494	7.766145	4.700405	7.758793	-0.931693	-0.193635	0.284194	-0.116991
41495	8.507306	4.097245	7.168771	-0.933999	-0.184041	0.275310	-0.134088
41496	8.169100	-0.684629	7.621664	-0.937496	-0.168000	0.265458	-0.149694
41497	7.878804	-3.715504	7.608148	-0.939109	-0.159083	0.254564	-0.167222
41498	7.129823	-1.032329	8.783499	-0.938269	-0.161685	0.242243	-0.186619
41499	6.065327	1.924285	9.718331	-0.936542	-0.167009	0.229626	-0.205595
41500	5.193964	5.490385	14.490932	-0.934905	-0.167606	0.220670	-0.221734
41501	3.811769	5.637488	15.838560	-0.935047	-0.155417	0.217575	-0.232797
41502	2.859462	0.078348	14.095726	-0.935846	-0.139409	0.217424	-0.239759
41503	4.403233	-4.092155	12.176053	-0.935118	-0.132357	0.217335	-0.246580
41504	7.834664	0.201465	12.447692	-0.932384	-0.136956	0.216151	-0.255307
41505	9.980108	4.039827	12.164618	-0.930352	-0.139207	0.213421	-0.263662
41506	9.884944	3.965284	13.792302	-0.929858	-0.134272	0.211615	-0.269359
41507	8.039929	0.694559	14.500202	-0.930451	-0.126428	0.212025	-0.270779
41508	5.978966	-1.773733	14.360261	-0.930876	-0.123698	0.214175	-0.268883
41509	5.399921	-0.002189	13.506706	-0.930720	-0.129057	0.215681	-0.265683
41510	5.431499	0.899694	12.960343	-0.931019	-0.134107	0.217258	-0.260801
41511	6.089079	1.190900	14.187899	-0.930914	-0.140721	0.221624	-0.253928
41512	6.552542	-0.480325	14.814491	-0.931577	-0.144804	0.227054	-0.244218
41513	6.893188	-0.778973	13.806401	-0.931365	-0.153998	0.234073	-0.232496
41514	7.877861	0.327309	12.692652	-0.931000	-0.165536	0.241264	-0.218239
41515	7.209880	-1.160892	10.873941	-0.931366	-0.176677	0.246429	-0.201530
41516	6.360384	-1.599872	9.809690	-0.929989	-0.194598	0.252235	-0.183385
41517	7.451872	0.129945	9.984505	-0.926202	-0.218845	0.259272	-0.164420
41518	7.267252	2.489402	10.006972	-0.920932	-0.245538	0.265858	-0.144619
41519	7.791372	4.730674	10.069236	-0.913682	-0.273843	0.273754	-0.123507
41520	6.943883	5.919362	9.277723	-0.906837	-0.298552	0.279928	-0.100763
41521	5.995219	5.941587	9.073342	-0.899679	-0.320998	0.285807	-0.076501
41522	5.105006	5.404985	8.826919	-0.892530	-0.340060	0.291812	-0.050952
41523	5.015428	3.542684	8.302113	-0.885104	-0.355795	0.299031	-0.024118
41524	3.722948	2.084255	5.806922	-0.876118	-0.371949	0.306700	0.002612
41525	2.173734	2.968173	4.212608	-0.863413	-0.392686	0.315422	0.028722
41526	1.342990	4.307323	3.211611	-0.849122	-0.413030	0.324399	0.056252
41527	0.549869	4.751985	1.514808	-0.834478	-0.430772	0.332759	0.085749
41528	0.190451	4.383634	-0.467703	-0.819374	-0.445435	0.341249	0.117319
41529	0.101273	3.050406	-0.458553	-0.805237	-0.456084	0.347866	0.150232
41530	-0.619296	2.372464	-0.656894	-0.789015	-0.467311	0.354353	0.183055
41531	-0.349108	3.367949	-1.876138	-0.768040	-0.482477	0.362740	0.213893
41532	-0.735908	5.557600	-1.439031	-0.745462	-0.500535	0.369197	0.239675
41533	-1.472683	7.487512	-0.841605	-0.725380	-0.513841	0.374119	0.264246
41534	-0.940200	7.409886	-0.670772	-0.710702	-0.518038	0.377125	0.290372
41535	0.053469	6.209993	-1.220516	-0.698843	-0.518340	0.378617	0.315580
41536	0.052708	7.085285	-1.513910	-0.684320	-0.522424	0.381992	0.335950
41537	0.838410	9.881037	0.158645	-0.668485	-0.527238	0.387220	0.353848
41538	1.557534	11.112219	1.752483	-0.660463	-0.524797	0.386565	0.372753
41539	0.729028	9.841463	1.100060	-0.655129	-0.518984	0.384604	0.391844
41540	-0.245193	10.315498	1.756965	-0.646276	-0.516039	0.385842	0.408849
41541	-0.926432	9.894887	1.479647	-0.638906	-0.510158	0.385796	0.427432
41542	-0.656434	8.295336	0.087857	-0.631193	-0.504760	0.385792	0.444945
41543	0.495324	10.053934	0.275106	-0.618647	-0.504024	0.390776	0.458835
41544	1.030193	12.293091	0.735029	-0.607938	-0.502189	0.393767	0.472404
41545	-0.164987	12.105526	0.974236	-0.601432	-0.496718	0.391969	0.487762
41546	-0.560661	11.439060	0.534129	-0.594553	-0.491225	0.390303	0.502860
41547	-0.157378	12.135031	1.231326	-0.587828	-0.485381	0.388603	0.517544
41548	0.990834	12.207702	1.614821	-0.582552	-0.478388	0.385729	0.531969
41549	1.402779	12.193021	1.657985	-0.577899	-0.472239	0.382771	0.544527
41550	1.150034	13.109511	0.472968	-0.569766	-0.468572	0.384816	0.554728
41551	1.978642	13.895609	0.840693	-0.562844	-0.462518	0.386400	0.565667
41552	2.080869	11.523435	1.156961	-0.558693	-0.453949	0.385098	0.577487
41553	1.386463	9.182159	1.229987	-0.554320	-0.445984	0.384342	0.588310
41554	0.609291	6.959160	1.457313	-0.550869	-0.437689	0.381754	0.599362
41555	0.811358	5.721641	1.415467	-0.546310	-0.431985	0.379682	0.608914
41556	1.103707	7.412982	2.309771	-0.538803	-0.430308	0.380686	0.616120
41557	0.319901	9.102752	3.655704	-0.532288	-0.427811	0.379307	0.624319
41558	-0.353437	8.350152	5.218124	-0.526972	-0.423705	0.376471	0.633280
41559	-2.201356	8.840349	6.764993	-0.521571	-0.420812	0.374313	0.640914
41560	-3.512249	9.381522	6.644452	-0.515173	-0.417210	0.373575	0.648825
41561	-3.627065	9.555750	7.111308	-0.508216	-0.413137	0.373808	0.656735
41562	-3.339016	9.475063	7.535633	-0.501017	-0.407736	0.374852	0.664996
41563	-3.366729	9.092644	7.265701	-0.494676	-0.402086	0.375342	0.672861
41564	-3.260993	8.722144	5.756453	-0.488133	-0.396919	0.376492	0.680026
41565	-2.928083	8.737991	5.075936	-0.479939	-0.392539	0.380222	0.686297
41566	-2.002770	7.598402	3.936310	-0.472553	-0.388079	0.382695	0.692556
41567	-2.321400	6.621039	3.373387	-0.464757	-0.385170	0.386218	0.697482
41568	-2.556190	7.199373	3.730502	-0.456768	-0.383714	0.390594	0.701115
41569	-3.072800	7.591846	4.009661	-0.449829	-0.382648	0.393902	0.704326
41570	-3.703611	7.556454	4.395001	-0.443791	-0.382028	0.396475	0.707045
41571	-4.034831	7.545825	4.472797	-0.438315	-0.381431	0.398661	0.709549
41572	-4.468361	7.919350	3.725045	-0.431862	-0.381073	0.402706	0.711412
41573	-5.236719	8.714799	4.543805	-0.423134	-0.379523	0.409826	0.713416
41574	-4.986725	7.622685	5.317186	-0.415386	-0.374103	0.413598	0.718636
41575	-4.827783	6.975423	5.046795	-0.405332	-0.368058	0.419759	0.723907
41576	-4.633844	7.891665	5.134083	-0.393630	-0.361476	0.427337	0.729228
41577	-4.653973	8.414239	4.727305	-0.381379	-0.354122	0.434878	0.734867
41578	-4.126480	8.393749	4.575456	-0.368881	-0.345495	0.441999	0.741078
41579	-3.671079	7.946611	4.977790	-0.356095	-0.336167	0.449498	0.747088
41580	-3.254877	8.148562	5.346075	-0.342752	-0.326225	0.458086	0.752499
41581	-3.179317	8.438339	5.053493	-0.329188	-0.315851	0.466617	0.757722
41582	-3.235744	8.520041	5.272801	-0.315795	-0.304587	0.473627	0.763661
41583	-3.626894	8.318135	5.163441	-0.302508	-0.292670	0.479060	0.770282
41584	-3.613246	8.058164	4.700442	-0.287993	-0.280229	0.484516	0.777030
41585	-3.619765	8.174258	4.378898	-0.271566	-0.267542	0.491643	0.782917
41586	-3.361600	8.388160	4.402725	-0.254702	-0.254035	0.496915	0.789727
41587	-2.666654	8.055162	4.339758	-0.238620	-0.240812	0.498685	0.797737
41588	-2.276128	7.512093	3.904798	-0.222216	-0.227985	0.500562	0.805035
41589	-1.763205	7.916325	3.741253	-0.205262	-0.215974	0.504480	0.810384
41590	-1.104486	8.301231	3.810096	-0.188989	-0.204431	0.507708	0.815306
41591	-1.051666	8.004040	3.674601	-0.173839	-0.193799	0.510042	0.819804
41592	-1.244388	7.887103	3.566968	-0.159024	-0.184025	0.513694	0.822779
41593	-1.222160	8.035686	3.690607	-0.144910	-0.174843	0.517077	0.825265
41594	-1.079713	7.860272	3.975301	-0.131913	-0.166503	0.519174	0.827849
41595	-1.206950	8.152264	3.806006	-0.118943	-0.158782	0.522791	0.829054
41596	-1.231282	8.620220	3.763102	-0.106300	-0.151216	0.526298	0.829967
41597	-1.188251	8.519412	3.867488	-0.094446	-0.144071	0.528658	0.831171
41598	-1.042847	8.692220	4.120561	-0.082790	-0.137119	0.531843	0.831557
41599	-0.835674	9.239833	4.163465	-0.071570	-0.130204	0.535023	0.831670
41600	-0.787028	9.558495	4.366574	-0.061401	-0.123735	0.536466	0.832540
41601	-0.818059	9.385206	4.401240	-0.052002	-0.117690	0.536476	0.834049
41602	-1.069071	9.408272	4.292125	-0.042585	-0.111696	0.536358	0.835482
41603	-1.165731	9.659514	4.248789	-0.033235	-0.105449	0.535293	0.837399
41604	-1.125576	9.536256	4.100141	-0.024528	-0.099360	0.532585	0.840166
41605	-0.992642	9.123723	3.678009	-0.016324	-0.093421	0.530028	0.842661
41606	-0.670087	9.336120	3.399644	-0.008507	-0.087450	0.528911	0.844117
41607	-0.444491	10.075275	3.523067	-0.001352	-0.081931	0.528153	0.845186
41608	-0.365524	10.655483	3.807263	0.004913	-0.077213	0.526184	0.846844
41609	-0.504462	10.771092	4.197812	0.010515	-0.073300	0.522708	0.849289
41610	-0.858734	10.580599	4.280678	0.016315	-0.068949	0.519018	0.851822
41611	-0.820151	10.361011	4.724944	0.022326	-0.064279	0.515806	0.853999
41612	-0.933069	9.968826	4.717380	0.028403	-0.059916	0.512740	0.855979
41613	-1.086838	9.475898	4.565391	0.035052	-0.055442	0.510540	0.857348
41614	-1.103900	8.529026	4.588344	0.042060	-0.051228	0.507978	0.858816
41615	-1.239704	8.144270	4.527922	0.049869	-0.046963	0.507885	0.858697
41616	-0.980500	9.176879	4.560723	0.059247	-0.041061	0.510293	0.856974
41617	-0.771430	9.528522	4.580348	0.068408	-0.036184	0.510038	0.856664
41618	-0.959996	9.025097	4.328500	0.078007	-0.030955	0.509933	0.856111
41619	-0.824389	8.783912	4.376524	0.087747	-0.025407	0.510872	0.854789
41620	-0.815512	8.410866	4.267355	0.097390	-0.019985	0.511917	0.853262
41621	-0.648202	8.011224	3.937288	0.107020	-0.014563	0.513700	0.851145
41622	-0.411414	7.990129	3.642701	0.116579	-0.008992	0.516418	0.848316
41623	-0.047370	8.378901	3.431199	0.125745	-0.003515	0.519787	0.844984
41624	0.073481	8.594068	3.276595	0.134348	0.001393	0.522453	0.842016
41625	0.071428	8.500716	3.553151	0.142458	0.005814	0.524489	0.839395
41626	-0.211060	8.378121	3.687377	0.150089	0.009728	0.526443	0.836801
41627	-0.346466	8.360041	3.826011	0.157242	0.013109	0.528224	0.834315
41628	-0.246580	8.559437	3.790205	0.164222	0.016432	0.530263	0.831614
41629	-0.060270	9.008202	3.780915	0.170802	0.019483	0.532555	0.828754
41630	-0.048430	9.098530	3.578625	0.176654	0.022109	0.534151	0.826431
41631	-0.107612	8.678096	3.381788	0.181872	0.024551	0.535175	0.824565
41632	-0.306686	8.361164	3.646639	0.186489	0.026725	0.536920	0.822329
41633	-0.650773	8.255077	3.448983	0.190821	0.028794	0.539092	0.819840
41634	-0.893274	8.385187	3.487141	0.195080	0.030987	0.541645	0.817070
41635	-0.820004	8.963782	4.060000	0.199320	0.032820	0.544149	0.814307
41636	-0.720217	9.241650	3.565854	0.203530	0.033577	0.545699	0.812195
41637	-0.743737	9.705328	2.691073	0.208279	0.035193	0.547742	0.809543
41638	-0.356173	10.199551	2.729647	0.213599	0.037832	0.548323	0.807642
41639	-0.434641	9.093813	2.626738	0.218389	0.039639	0.546575	0.807459
41640	-1.096514	7.984495	3.045048	0.223252	0.042743	0.546078	0.806307
41641	-1.436820	8.569612	3.437061	0.228864	0.047649	0.547148	0.803729
41642	-1.206744	9.667600	3.631928	0.234943	0.053021	0.548569	0.800664
41643	-0.944505	10.055731	3.252355	0.240791	0.057507	0.548759	0.798484
41644	-0.499889	9.928012	2.585626	0.246861	0.062615	0.548261	0.796586
41645	0.097200	10.294288	2.491087	0.252820	0.068550	0.548010	0.794398
41646	0.580149	10.253742	2.460822	0.258300	0.074175	0.546630	0.793080
41647	0.697962	9.929710	2.790506	0.263096	0.079610	0.544783	0.792246
41648	0.605054	9.538272	3.153438	0.267392	0.084963	0.542739	0.791655
41649	0.394552	9.251079	3.339459	0.271254	0.090267	0.540822	0.791065
41650	0.423581	9.129080	3.526983	0.274762	0.095661	0.538997	0.790466
41651	0.595544	8.842529	3.517846	0.278043	0.100730	0.536548	0.790356
41652	0.378886	8.759778	3.759949	0.281002	0.105498	0.533897	0.790482
41653	0.166443	8.750228	3.671924	0.283912	0.110783	0.531772	0.790152
41654	-0.151888	8.849011	3.294041	0.287193	0.116867	0.530144	0.789183
41655	-0.407136	9.265679	3.156410	0.290881	0.123342	0.528566	0.787904
41656	-1.233529	11.150826	4.312749	0.295161	0.129620	0.527628	0.785931
41657	-1.689531	10.948513	4.865799	0.299687	0.132886	0.524817	0.785554
41658	-1.736850	7.270988	3.390669	0.302920	0.132794	0.520375	0.787283
41659	-2.752844	6.369308	2.969202	0.305033	0.135218	0.520403	0.786035
41660	-3.053249	8.131187	4.491940	0.308075	0.141040	0.522795	0.782229
41661	-3.213676	8.760404	5.598968	0.311302	0.143253	0.522394	0.780816
41662	-3.867598	8.286630	5.125796	0.315051	0.144348	0.521380	0.779788
41663	-2.903902	9.191805	4.877064	0.319117	0.148181	0.523527	0.775968
41664	-1.749925	10.777385	4.689605	0.322719	0.152269	0.525693	0.772214
41665	-1.328137	11.339604	4.769875	0.325252	0.155056	0.525949	0.770420
41666	-1.371696	10.947699	4.764264	0.326700	0.157298	0.525123	0.769915
41667	-1.811885	10.496963	4.908099	0.327613	0.159340	0.523988	0.769881
41668	-2.234623	9.220026	4.565173	0.328288	0.160376	0.522077	0.770676
41669	-2.487173	8.044184	3.870489	0.329126	0.162430	0.521104	0.770547
41670	-1.933551	8.031177	3.360544	0.330442	0.165978	0.521393	0.769031
41671	-1.306105	7.908636	2.882029	0.332170	0.169211	0.521233	0.767690
41672	-1.480721	7.814540	2.919785	0.334209	0.171462	0.520738	0.766640
41673	-2.151835	7.785142	2.958523	0.337012	0.173014	0.519512	0.765896
41674	-2.476938	7.811421	3.519463	0.340697	0.173953	0.517604	0.765344
41675	-2.320614	7.521652	3.575628	0.345259	0.174138	0.515021	0.765000
41676	-2.375728	7.706588	3.875473	0.350782	0.174071	0.512001	0.764530
41677	-2.981555	8.032418	4.309914	0.357526	0.174118	0.508899	0.763466
41678	-3.016627	7.994296	4.419398	0.365480	0.174496	0.505423	0.761920
41679	-2.907612	7.639900	4.423062	0.373376	0.174282	0.502230	0.760251
41680	-2.782180	8.055899	4.326807	0.381083	0.174756	0.500137	0.757693
41681	-2.475744	9.105242	4.305361	0.388614	0.175733	0.498731	0.754563
41682	-2.309987	9.493682	3.745489	0.395664	0.176981	0.497554	0.751377
41683	-2.184557	9.464537	3.319182	0.402329	0.179224	0.496689	0.747870
41684	-2.251118	9.452571	3.099216	0.408518	0.182791	0.496700	0.743633
41685	-2.375512	9.584394	3.145761	0.414350	0.186937	0.497006	0.739158
41686	-2.108127	9.564621	3.203900	0.419983	0.191230	0.497071	0.734824
41687	-1.897953	9.604742	3.280353	0.425459	0.195319	0.496597	0.730908
41688	-1.812000	9.469164	3.155616	0.430785	0.199018	0.495530	0.727507
41689	-1.792712	9.121938	2.939053	0.436052	0.202575	0.494054	0.724384
41690	-1.867956	8.883037	2.949525	0.441328	0.206088	0.492450	0.721284
41691	-2.071223	8.639785	3.177678	0.446549	0.209582	0.491042	0.718016
41692	-2.212497	8.540734	3.449165	0.451990	0.213036	0.489306	0.714773
41693	-2.210223	8.482262	3.450372	0.457544	0.216173	0.487204	0.711727
41694	-2.101131	8.586200	3.384987	0.463105	0.219317	0.485214	0.708520
41695	-1.898127	8.802750	3.235962	0.468518	0.222275	0.483272	0.705360
41696	-1.782554	8.972932	3.127297	0.473742	0.224992	0.481212	0.702412
41697	-1.659568	9.117901	3.153595	0.478758	0.227242	0.479006	0.699789
41698	-1.590363	9.146245	3.229457	0.483364	0.229017	0.476732	0.697593
41699	-1.659666	8.956368	3.187097	0.487642	0.230289	0.474359	0.695813
41700	-1.724143	8.843400	3.103606	0.491635	0.231474	0.471934	0.694258
41701	-1.662988	8.998624	3.375643	0.495332	0.232619	0.469637	0.692803
41702	-1.657477	8.857034	3.536170	0.498857	0.233230	0.467054	0.691814
41703	-1.822485	8.715280	3.786843	0.502292	0.233551	0.464373	0.691024
41704	-2.144943	8.682476	3.804195	0.505824	0.233916	0.461505	0.690245
41705	-2.243637	8.916699	3.998303	0.509808	0.234773	0.458230	0.689205
41706	-2.008028	8.687501	4.129049	0.513748	0.235552	0.454852	0.688251
41707	-2.022909	8.478060	4.222270	0.517300	0.236898	0.452261	0.686833
41708	-1.921513	8.890552	4.413537	0.520518	0.239009	0.450515	0.684816
41709	-1.885107	9.604684	4.618812	0.523329	0.241590	0.449633	0.682343
41710	-1.950194	10.113192	4.683926	0.525826	0.244402	0.449112	0.679760
41711	-1.910663	10.565858	5.015024	0.527987	0.247629	0.449045	0.676956
41712	-1.801847	11.028290	5.338872	0.529827	0.250782	0.449062	0.674340
41713	-1.742305	11.235436	5.611898	0.531387	0.253728	0.449063	0.672006
41714	-1.544390	11.298726	5.777221	0.532689	0.256451	0.448816	0.670104
41715	-1.112063	10.616091	5.469574	0.533395	0.258946	0.448535	0.668769
41716	-0.747082	9.551343	5.034584	0.533287	0.261369	0.448487	0.667945
41717	-0.630532	8.603193	4.826260	0.532589	0.263379	0.448656	0.667599
41718	-0.817798	7.675371	4.634582	0.531680	0.265035	0.448909	0.667498
41719	-1.017242	6.903781	4.553875	0.530773	0.266565	0.449312	0.667339
41720	-1.006921	6.704419	4.701389	0.529987	0.268271	0.449994	0.666821
41721	-0.892605	6.931918	5.002307	0.529597	0.269613	0.450405	0.666312
41722	-0.740478	7.250574	5.251295	0.529732	0.270141	0.450077	0.666212
41723	-0.572116	7.474072	5.128147	0.530159	0.269905	0.449460	0.666385
41724	-0.499334	7.715824	5.147652	0.530774	0.268841	0.448497	0.666974
41725	-0.444769	7.555446	5.187963	0.531652	0.267023	0.446999	0.668009
41726	-0.444774	7.351678	5.406301	0.532433	0.265239	0.445805	0.668896
41727	-0.404045	7.362792	5.587901	0.532964	0.263885	0.445171	0.669430
41728	-0.287387	7.793647	5.701591	0.533220	0.263247	0.445039	0.669566
41729	-0.297568	8.279911	5.692099	0.533297	0.262983	0.445090	0.669574
41730	-0.295265	8.648290	5.572233	0.533300	0.262760	0.445034	0.669696
41731	-0.298709	8.943655	5.673177	0.533364	0.262476	0.444633	0.670022
41732	-0.230291	9.102327	5.373862	0.533496	0.261997	0.443883	0.670602
41733	-0.386999	8.794871	4.941352	0.533455	0.261218	0.443320	0.671311
41734	-0.523534	8.424118	4.666426	0.533175	0.260346	0.443157	0.671980
41735	-0.432037	8.302618	4.781474	0.532621	0.259580	0.443423	0.672539
41736	-0.187978	8.254046	4.860565	0.531726	0.258528	0.443860	0.673364
41737	-0.171859	8.003116	4.946825	0.530523	0.257055	0.444167	0.674673
41738	-0.420634	7.714832	5.074782	0.529077	0.255485	0.444484	0.676194
41739	-0.550828	7.611934	5.099107	0.527500	0.253906	0.444926	0.677729
41740	-0.613480	7.777737	5.035684	0.525875	0.252276	0.445763	0.679049
41741	-0.660179	7.895381	5.071562	0.524298	0.250537	0.446833	0.680208
41742	-0.675464	7.804404	5.089139	0.522501	0.248955	0.448452	0.681106
41743	-0.621231	7.876723	4.977765	0.520349	0.247634	0.450657	0.681779
