// Start Time: Unknown
// Update Rate: 60.0Hz
// Filter Profile: human (46.1)
// Option Flags: AHS Disabled ICC Disabled 
// Firmware Version: 4.3.5
PacketCounter	Acc_X	Acc_Y	Acc_Z	Quat_q0	Quat_q1	Quat_q2	Quat_q3
43442	0.002324	0.053366	9.822514	0.999975	0.003380	-0.001391	-0.006067
43443	0.013319	0.056163	9.814087	0.999975	0.003380	-0.001393	-0.006074
43444	0.018039	0.072418	9.826100	0.999975	0.003378	-0.001395	-0.006079
43445	0.032033	0.060694	9.817645	0.999975	0.003379	-0.001405	-0.006082
43446	-0.006753	0.068128	9.842945	0.999975	0.003370	-0.001401	-0.006093
43447	0.010670	0.057116	9.814084	0.999975	0.003379	-0.001402	-0.006074
43448	0.023590	0.074920	9.838084	0.999975	0.003361	-0.001391	-0.006076
43449	0.025790	0.060708	9.838056	0.999975	0.003367	-0.001401	-0.006062
43450	0.028581	0.061833	9.817649	0.999975	0.003373	-0.001388	-0.006060
43451	0.007774	0.058159	9.814081	0.999975	0.003371	-0.001386	-0.006064
43452	0.011812	0.059252	9.846474	0.999975	0.003366	-0.001380	-0.006066
43453	0.016464	0.075388	9.858488	0.999975	0.003361	-0.001379	-0.006060
43454	0.004909	0.043664	9.834460	0.999975	0.003368	-0.001363	-0.006058
43455	0.009421	0.060058	9.846472	0.999975	0.003377	-0.001357	-0.006053
43456	0.032174	0.065233	9.829640	0.999975	0.003387	-0.001357	-0.006063
43457	0.012321	0.076629	9.805681	0.999975	0.003381	-0.001381	-0.006045
43458	0.022948	0.064102	9.817649	0.999975	0.003378	-0.001377	-0.006056
43459	0.015787	0.077876	9.838076	0.999975	0.003367	-0.001373	-0.006066
43460	0.010666	0.032335	9.793624	0.999975	0.003361	-0.001367	-0.006067
43461	0.011901	0.047860	9.826041	0.999975	0.003368	-0.001378	-0.006053
43462	0.019451	0.049945	9.838033	0.999975	0.003380	-0.001363	-0.006064
43463	0.008087	0.078073	9.805674	0.999975	0.003376	-0.001355	-0.006066
43464	0.014977	0.064858	9.838052	0.999975	0.003378	-0.001352	-0.006060
43465	0.017797	0.065937	9.817648	0.999975	0.003383	-0.001352	-0.006058
43466	0.025365	0.067845	9.829642	0.999975	0.003377	-0.001350	-0.006074
43467	-0.007059	0.061571	9.834461	0.999975	0.003369	-0.001349	-0.006079
43468	0.026795	0.053936	9.829627	0.999975	0.003386	-0.001333	-0.006081
43469	0.011346	0.066243	9.838048	0.999975	0.003375	-0.001336	-0.006084
43470	0.030731	0.070446	9.841640	0.999975	0.003376	-0.001335	-0.006085
43471	0.004586	0.050735	9.826033	0.999975	0.003382	-0.001316	-0.006089
43472	-0.006571	0.079042	9.793657	0.999975	0.003402	-0.001337	-0.006090
43473	0.018756	0.054715	9.797225	0.999975	0.003392	-0.001338	-0.006094
43474	0.022798	0.055845	9.829626	0.999975	0.003396	-0.001336	-0.006091
43475	-0.000723	0.066444	9.826038	0.999975	0.003394	-0.001340	-0.006104
43476	0.029732	0.058037	9.841626	0.999975	0.003396	-0.001334	-0.006105
43477	0.020751	0.056775	9.829625	0.999975	0.003406	-0.001335	-0.006116
43478	-0.003392	0.052241	9.846422	0.999975	0.003392	-0.001342	-0.006124
43479	0.023109	0.057882	9.809225	0.999975	0.003393	-0.001344	-0.006126
43480	0.018320	0.042442	9.850015	0.999974	0.003402	-0.001345	-0.006135
43481	0.015363	0.072147	9.829632	0.999974	0.003391	-0.001346	-0.006139
43482	0.006300	0.070605	9.817629	0.999975	0.003385	-0.001327	-0.006138
43483	0.021811	0.074062	9.841638	0.999975	0.003378	-0.001315	-0.006144
43484	-0.003650	0.069151	9.805624	0.999975	0.003368	-0.001317	-0.006125
43485	-0.001987	0.039814	9.826008	0.999975	0.003362	-0.001322	-0.006113
43486	0.017312	0.044192	9.829620	0.999975	0.003373	-0.001315	-0.006095
43487	0.017122	0.059834	9.809226	0.999975	0.003393	-0.001307	-0.006115
43488	0.018245	0.075639	9.841633	0.999975	0.003399	-0.001316	-0.006101
43489	0.009243	0.074046	9.829626	0.999975	0.003376	-0.001294	-0.006103
43490	0.022924	0.062205	9.821234	0.999975	0.003389	-0.001281	-0.006115
43491	0.033253	0.049938	9.833240	0.999975	0.003393	-0.001280	-0.006112
43492	0.021549	0.062911	9.821233	0.999975	0.003390	-0.001292	-0.006118
43493	0.024024	0.048681	9.821231	0.999975	0.003375	-0.001305	-0.006119
43494	-0.000122	0.044031	9.838004	0.999975	0.003373	-0.001300	-0.006130
43495	0.019826	0.063377	9.821233	0.999975	0.003372	-0.001307	-0.006123
43496	0.027415	0.065306	9.833244	0.999975	0.003375	-0.001311	-0.006120
43497	0.026726	0.065594	9.833244	0.999975	0.003375	-0.001312	-0.006105
43498	0.026735	0.080928	9.812848	0.999975	0.003376	-0.001313	-0.006106
43499	0.013651	0.063663	9.841627	0.999975	0.003369	-0.001310	-0.006106
43500	0.024574	0.066314	9.833245	0.999975	0.003376	-0.001300	-0.006105
43501	0.010270	0.048976	9.809219	0.999975	0.003380	-0.001301	-0.006102
43502	0.017189	0.036127	9.841630	0.999975	0.003406	-0.001304	-0.006101
43503	0.005353	0.049302	9.829610	0.999975	0.003405	-0.001296	-0.006113
43504	0.027665	0.039060	9.833252	0.999975	0.003382	-0.001310	-0.006113
43505	0.012825	0.066215	9.821226	0.999975	0.003390	-0.001285	-0.006112
43506	0.017307	0.082570	9.833236	0.999975	0.003389	-0.001295	-0.006118
43507	0.028398	0.085272	9.824858	0.999974	0.003389	-0.001381	-0.006140
43508	0.019284	0.083876	9.812840	0.999974	0.003387	-0.001370	-0.006136
43509	0.008954	0.052267	9.841623	0.999974	0.003386	-0.001366	-0.006149
43510	0.019985	0.055058	9.833249	0.999974	0.003400	-0.001364	-0.006149
43511	0.011043	0.053651	9.821229	0.999975	0.003388	-0.001358	-0.006136
43512	0.007498	0.068120	9.821219	0.999974	0.003386	-0.001370	-0.006142
43513	0.009756	0.054029	9.821228	0.999974	0.003388	-0.001358	-0.006150
43514	0.034264	0.074391	9.836889	0.999975	0.003383	-0.001365	-0.006139
43515	0.008463	0.054449	9.821227	0.999974	0.003379	-0.001372	-0.006151
43516	0.024228	0.058137	9.845270	0.999975	0.003385	-0.001369	-0.006135
43517	0.015388	0.056845	9.833247	0.999975	0.003389	-0.001372	-0.006126
43518	-0.008157	0.067414	9.829576	0.999975	0.003389	-0.001372	-0.006133
43519	0.025813	0.059701	9.824880	0.999975	0.003376	-0.001365	-0.006119
43520	0.033168	0.061549	9.836905	0.999975	0.003379	-0.001356	-0.006128
43521	0.021464	0.074491	9.824865	0.999975	0.003379	-0.001380	-0.006124
43522	0.006119	0.086650	9.833214	0.999975	0.003373	-0.001362	-0.006123
43523	0.002323	0.041406	9.841624	0.999975	0.003372	-0.001365	-0.006130
43524	0.005347	0.042402	9.821234	0.999975	0.003372	-0.001374	-0.006125
43525	0.001185	0.041970	9.841622	0.999975	0.003372	-0.001373	-0.006132
43526	0.010005	0.073954	9.812836	0.999975	0.003362	-0.001377	-0.006136
43527	0.021022	0.076931	9.804471	0.999974	0.003403	-0.001366	-0.006128
43528	0.005082	0.074477	9.833216	0.999974	0.003404	-0.001387	-0.006124
43529	0.019247	0.062764	9.824875	0.999975	0.003400	-0.001377	-0.006119
43530	0.009671	0.046280	9.833255	0.999975	0.003403	-0.001382	-0.006109
43531	0.002480	0.060329	9.853620	0.999974	0.003413	-0.001381	-0.006119
43532	0.016470	0.048781	9.845283	0.999974	0.003416	-0.001376	-0.006122
43533	0.031704	0.067418	9.796127	0.999974	0.003433	-0.001368	-0.006118
43534	0.007379	0.063023	9.812838	0.999974	0.003434	-0.001369	-0.006126
43535	0.020250	0.081268	9.836874	0.999974	0.003457	-0.001383	-0.006123
43536	0.005546	0.048906	9.833245	0.999974	0.003453	-0.001371	-0.006118
43537	0.021779	0.067499	9.836898	0.999974	0.003443	-0.001373	-0.006122
43538	0.027613	0.054093	9.816539	0.999974	0.003449	-0.001366	-0.006114
43539	0.029072	0.084857	9.828518	0.999974	0.003453	-0.001357	-0.006117
43540	0.014287	0.052331	9.824890	0.999974	0.003452	-0.001359	-0.006124
43541	0.005319	0.050940	9.812855	0.999974	0.003457	-0.001345	-0.006121
43542	0.000864	0.050390	9.833239	0.999974	0.003438	-0.001340	-0.006116
43543	0.014223	0.083455	9.836866	0.999974	0.003453	-0.001344	-0.006111
43544	0.036621	0.073630	9.840583	0.999974	0.003452	-0.001355	-0.006117
43545	0.013862	0.039238	9.824919	0.999974	0.003443	-0.001356	-0.006122
43546	0.015254	0.069953	9.836893	0.999974	0.003459	-0.001335	-0.006130
43547	0.009186	0.054340	9.824886	0.999974	0.003462	-0.001333	-0.006126
43548	0.004841	0.053732	9.845270	0.999974	0.003441	-0.001327	-0.006132
43549	0.010727	0.040144	9.824920	0.999974	0.003440	-0.001329	-0.006139
43550	0.006478	0.039655	9.845303	0.999974	0.003433	-0.001334	-0.006126
43551	0.025853	0.044159	9.849000	0.999974	0.003448	-0.001335	-0.006120
43552	-0.005100	0.068079	9.812805	0.999974	0.003445	-0.001345	-0.006125
43553	0.022453	0.074166	9.828545	0.999975	0.003442	-0.001349	-0.006109
43554	0.016513	0.058473	9.816539	0.999974	0.003455	-0.001342	-0.006115
43555	0.012073	0.058189	9.836920	0.999974	0.003458	-0.001338	-0.006118
43556	0.011390	0.058490	9.836919	0.999974	0.003459	-0.001344	-0.006119
43557	0.025533	0.046883	9.828618	0.999974	0.003463	-0.001341	-0.006116
43558	0.010729	0.074226	9.816495	0.999974	0.003472	-0.001337	-0.006104
43559	-0.002354	0.056973	9.845252	0.999974	0.003457	-0.001345	-0.006111
43560	0.016965	0.061550	9.848958	0.999974	0.003485	-0.001344	-0.006127
43561	-0.002911	0.072913	9.824824	0.999974	0.003476	-0.001353	-0.006118
43562	0.018728	0.047941	9.848998	0.999974	0.003482	-0.001344	-0.006110
43563	0.018598	0.063300	9.828574	0.999974	0.003481	-0.001341	-0.006123
43564	0.012738	0.047568	9.816570	0.999974	0.003491	-0.001346	-0.006106
43565	0.006134	0.076644	9.816480	0.999974	0.003492	-0.001346	-0.006101
43566	0.024604	0.066225	9.840619	0.999974	0.003509	-0.001331	-0.006102
43567	0.018686	0.050579	9.828615	0.999974	0.003510	-0.001338	-0.006105
43568	0.003837	0.077759	9.816473	0.999974	0.003505	-0.001329	-0.006099
43569	0.014280	0.065494	9.828567	0.999974	0.003518	-0.001337	-0.006099
43570	-0.009954	0.060945	9.845224	0.999974	0.003511	-0.001334	-0.006099
43571	0.015965	0.051666	9.828614	0.999974	0.003512	-0.001340	-0.006101
43572	0.032312	0.070348	9.832289	0.999974	0.003503	-0.001337	-0.006105
43573	0.011698	0.066341	9.828565	0.999974	0.003503	-0.001334	-0.006112
43574	0.019121	0.068231	9.840617	0.999974	0.003492	-0.001331	-0.006122
43575	0.006756	0.065981	9.848942	0.999974	0.003494	-0.001348	-0.006112
43576	0.029615	0.071219	9.832291	0.999974	0.003502	-0.001324	-0.006111
43577	0.020008	0.054709	9.840667	0.999974	0.003492	-0.001336	-0.006103
43578	-0.011637	0.063408	9.824829	0.999974	0.003503	-0.001332	-0.006114
43579	-0.003508	0.080480	9.816451	0.999974	0.003498	-0.001331	-0.006108
43580	0.010613	0.068875	9.808180	0.999974	0.003508	-0.001328	-0.006119
43581	-0.002629	0.051934	9.836929	0.999974	0.003524	-0.001319	-0.006114
43582	0.028379	0.058883	9.832344	0.999974	0.003514	-0.001319	-0.006118
43583	0.019739	0.057330	9.820287	0.999974	0.003516	-0.001336	-0.006108
43584	0.004269	0.069874	9.828547	0.999974	0.003551	-0.001320	-0.006115
43585	0.015282	0.072629	9.820227	0.999974	0.003522	-0.001321	-0.006113
43586	0.017793	0.058347	9.820285	0.999974	0.003531	-0.001337	-0.006117
43587	0.017260	0.058833	9.820283	0.999974	0.003545	-0.001333	-0.006117
43588	0.009842	0.072772	9.840598	0.999974	0.003535	-0.001327	-0.006127
43589	0.020976	0.075470	9.832282	0.999974	0.003547	-0.001331	-0.006133
43590	0.002627	0.042261	9.849031	0.999974	0.003546	-0.001319	-0.006152
43591	0.014372	0.060110	9.820280	0.999974	0.003560	-0.001325	-0.006147
43592	0.021888	0.061981	9.832341	0.999974	0.003530	-0.001326	-0.006145
43593	0.001295	0.057844	9.828593	0.999974	0.003540	-0.001323	-0.006155
43594	0.000718	0.058221	9.828591	0.999974	0.003542	-0.001333	-0.006151
43595	0.003216	0.044119	9.828653	0.999974	0.003539	-0.001337	-0.006141
43596	0.020184	0.078028	9.811903	0.999974	0.003553	-0.001334	-0.006141
43597	0.007053	0.060972	9.840648	0.999974	0.003553	-0.001339	-0.006143
43598	0.010074	0.061856	9.820275	0.999974	0.003545	-0.001335	-0.006142
43599	0.009159	0.062233	9.820273	0.999974	0.003565	-0.001314	-0.006139
43600	0.016527	0.064422	9.832336	0.999974	0.003561	-0.001324	-0.006143
43601	-0.006987	0.074769	9.828509	0.999974	0.003558	-0.001323	-0.006126
43602	0.043275	0.070854	9.848162	0.999974	0.003555	-0.001317	-0.006137
43603	-0.005492	0.060939	9.828573	0.999974	0.003557	-0.001310	-0.006139
43604	0.017340	0.066192	9.811962	0.999974	0.003564	-0.001301	-0.006131
43605	0.021010	0.067551	9.844400	0.999974	0.003559	-0.001300	-0.006126
43606	0.027053	0.054197	9.824100	0.999974	0.003567	-0.001295	-0.006135
43607	0.011462	0.066563	9.832329	0.999974	0.003579	-0.001285	-0.006139
43608	0.018839	0.068565	9.844398	0.999974	0.003562	-0.001287	-0.006129
43609	0.021752	0.069561	9.824027	0.999974	0.003584	-0.001273	-0.006144
43610	0.000394	0.050711	9.840698	0.999974	0.003576	-0.001279	-0.006143
43611	0.020440	0.070226	9.824025	0.999974	0.003586	-0.001283	-0.006148
43612	0.014722	0.054526	9.812027	0.999974	0.003589	-0.001284	-0.006144
43613	0.022201	0.056610	9.824099	0.999974	0.003588	-0.001288	-0.006144
43614	-0.005803	0.051532	9.861059	0.999974	0.003611	-0.001285	-0.006146
43615	0.037596	0.076024	9.827797	0.999974	0.003595	-0.001269	-0.006143
43616	0.024954	0.073584	9.836094	0.999974	0.003585	-0.001267	-0.006147
43617	0.027416	0.059533	9.836172	0.999974	0.003595	-0.001276	-0.006144
43618	-0.001176	0.053798	9.820316	0.999974	0.003583	-0.001275	-0.006147
43619	0.014369	0.057420	9.844466	0.999974	0.003572	-0.001275	-0.006150
43620	0.010722	0.071921	9.844386	0.999974	0.003570	-0.001280	-0.006149
43621	0.024942	0.060455	9.836173	0.999974	0.003583	-0.001277	-0.006149
43622	0.024945	0.075799	9.815725	0.999974	0.003576	-0.001278	-0.006142
43623	0.012518	0.073414	9.824015	0.999974	0.003563	-0.001286	-0.006151
43624	-0.000145	0.071162	9.832304	0.999974	0.003570	-0.001261	-0.006149
43625	0.013786	0.059805	9.824095	0.999974	0.003587	-0.001260	-0.006138
43626	0.004312	0.043354	9.832465	0.999974	0.003576	-0.001260	-0.006142
43627	0.012427	0.060343	9.824094	0.999974	0.003438	-0.001337	-0.006207
43628	0.008863	0.075059	9.824007	0.999974	0.003445	-0.001351	-0.006209
43629	0.023103	0.063499	9.815806	0.999974	0.003442	-0.001339	-0.006205
43630	0.006730	0.060764	9.844454	0.999974	0.003461	-0.001338	-0.006197
43631	0.021320	0.064358	9.815804	0.999974	0.003463	-0.001311	-0.006212
43632	0.028673	0.066437	9.827885	0.999974	0.003461	-0.001334	-0.006205
43633	0.016172	0.064174	9.836168	0.999974	0.003453	-0.001312	-0.006210
43634	0.003382	0.062034	9.844448	0.999974	0.003465	-0.001307	-0.006216
43635	0.006324	0.063116	9.824082	0.999974	0.003466	-0.001303	-0.006218
43636	0.001939	0.062852	9.844443	0.999974	0.003476	-0.001314	-0.006215
43637	0.028056	0.053970	9.827975	0.999974	0.003487	-0.001314	-0.006214
43638	0.000586	0.063831	9.844437	0.999974	0.003494	-0.001307	-0.006207
43639	0.014780	0.052308	9.836251	0.999974	0.003493	-0.001312	-0.006208
43640	0.010520	0.051890	9.856613	0.999974	0.003489	-0.001323	-0.006212
43641	0.014390	0.067965	9.815792	0.999974	0.003505	-0.001322	-0.006201
43642	0.009130	0.052721	9.856610	0.999974	0.003501	-0.001310	-0.006218
43643	0.020887	0.070357	9.827878	0.999974	0.003494	-0.001312	-0.006211
43644	0.003476	0.051940	9.824160	0.999974	0.003490	-0.001324	-0.006217
43645	0.013935	0.039674	9.836344	0.999974	0.003491	-0.001313	-0.006224
43646	0.030033	0.058756	9.840062	0.999974	0.003512	-0.001318	-0.006233
43647	-0.005232	0.066691	9.844416	0.999974	0.003498	-0.001338	-0.006229
43648	0.040778	0.061838	9.831791	0.999974	0.003508	-0.001324	-0.006217
43649	0.028836	0.074808	9.819601	0.999974	0.003518	-0.001322	-0.006228
43650	0.035513	0.061969	9.852152	0.999974	0.003516	-0.001322	-0.006212
43651	0.009966	0.041901	9.836340	0.999974	0.003525	-0.001328	-0.006216
43652	0.026187	0.060777	9.840061	0.999974	0.003513	-0.001330	-0.006219
43653	-0.005642	0.069318	9.824041	0.999974	0.003528	-0.001319	-0.006220
43654	0.023242	0.046087	9.807712	0.999974	0.003533	-0.001306	-0.006217
43655	0.000174	0.056827	9.856591	0.999974	0.003522	-0.001327	-0.006216
43656	0.007317	0.058529	9.815872	0.999973	0.003545	-0.001338	-0.006242
43657	0.034696	0.065109	9.831793	0.999973	0.003543	-0.001338	-0.006226
43658	0.013997	0.061116	9.827963	0.999973	0.003548	-0.001326	-0.006224
43659	0.021965	0.078269	9.819592	0.999973	0.003553	-0.001325	-0.006222
43660	0.004516	0.059917	9.815865	0.999973	0.003549	-0.001334	-0.006234
43661	0.020075	0.063794	9.840056	0.999973	0.003550	-0.001341	-0.006237
43662	0.018692	0.049071	9.860522	0.999973	0.003544	-0.001336	-0.006246
43663	0.025464	0.050756	9.819808	0.999973	0.003558	-0.001329	-0.006253
43664	0.021746	0.065522	9.819697	0.999973	0.003563	-0.001340	-0.006239
43665	0.009219	0.063323	9.827954	0.999973	0.003559	-0.001327	-0.006234
43666	0.005350	0.077901	9.827842	0.999973	0.003561	-0.001328	-0.006230
43667	0.027636	0.068222	9.831795	0.999973	0.003565	-0.001328	-0.006227
43668	0.010131	0.049931	9.828063	0.999973	0.003569	-0.001326	-0.006225
43669	0.009505	0.050237	9.828063	0.999973	0.003570	-0.001330	-0.006227
43670	0.016912	0.052510	9.840162	0.999973	0.003587	-0.001327	-0.006217
43671	0.013204	0.067138	9.840046	0.999973	0.003574	-0.001333	-0.006226
43672	0.004542	0.065533	9.827943	0.999973	0.003581	-0.001334	-0.006234
43673	0.017962	0.039037	9.840277	0.999973	0.003577	-0.001323	-0.006229
43674	0.025873	0.056127	9.831909	0.999973	0.003583	-0.001315	-0.006222
43675	0.028821	0.057122	9.811555	0.999973	0.003582	-0.001305	-0.006228
43676	0.001189	0.066815	9.827936	0.999973	0.003587	-0.001298	-0.006219
43677	0.023426	0.057140	9.831909	0.999973	0.003586	-0.001299	-0.006226
43678	0.034751	0.060012	9.823660	0.999973	0.003598	-0.001311	-0.006219
43679	-0.000649	0.067840	9.827929	0.999973	0.003591	-0.001306	-0.006219
43680	0.006557	0.069825	9.840034	0.999973	0.003584	-0.001297	-0.006212
43681	0.017630	0.072430	9.831788	0.999973	0.003575	-0.001295	-0.006218
43682	0.011326	0.041710	9.840276	0.999973	0.003600	-0.001300	-0.006216
43683	0.022584	0.044711	9.832030	0.999973	0.003601	-0.001305	-0.006218
43684	0.022791	0.059964	9.811554	0.999973	0.003601	-0.001316	-0.006213
43685	0.014659	0.058860	9.852257	0.999973	0.003590	-0.001321	-0.006210
43686	0.021664	0.060404	9.811554	0.999973	0.003598	-0.001321	-0.006198
43687	0.017111	0.060025	9.831905	0.999973	0.003590	-0.001315	-0.006197
43688	0.008326	0.058659	9.819793	0.999973	0.003619	-0.001310	-0.006212
43689	0.019366	0.061713	9.811550	0.999973	0.003620	-0.001301	-0.006221
43690	0.017860	0.046967	9.832029	0.999973	0.003614	-0.001301	-0.006216
43691	0.014084	0.061521	9.831900	0.999973	0.003618	-0.001299	-0.006213
43692	0.029566	0.065592	9.856122	0.999973	0.003624	-0.001308	-0.006221
43693	0.024795	0.064664	9.823660	0.999973	0.003616	-0.001308	-0.006213
43694	-0.003860	0.058836	9.807671	0.999973	0.003631	-0.001302	-0.006208
43695	0.007215	0.061487	9.799434	0.999973	0.003604	-0.001299	-0.006202
43696	0.007597	0.077041	9.831765	0.999973	0.003604	-0.001299	-0.006196
43697	0.013116	0.048802	9.832028	0.999973	0.003611	-0.001297	-0.006204
43698	0.012428	0.049194	9.832026	0.999973	0.003613	-0.001297	-0.006200
43699	0.012580	0.064523	9.811543	0.999973	0.003620	-0.001308	-0.006209
43700	0.000087	0.062485	9.819773	0.999973	0.003631	-0.001299	-0.006213
43701	0.004190	0.079105	9.831751	0.999973	0.003636	-0.001292	-0.006204
43702	0.018355	0.067640	9.823654	0.999973	0.003636	-0.001285	-0.006204
43703	0.032644	0.056119	9.815561	0.999973	0.003632	-0.001289	-0.006203
43704	0.000406	0.049510	9.819902	0.999973	0.003628	-0.001300	-0.006207
43705	0.008691	0.066676	9.811533	0.999973	0.003639	-0.001310	-0.006205
43706	-0.007585	0.063910	9.840106	0.999973	0.003637	-0.001310	-0.006212
43707	-0.000424	0.066112	9.852222	0.999973	0.003645	-0.001290	-0.006205
43708	0.017587	0.055331	9.823788	0.999973	0.003648	-0.001294	-0.006195
43709	0.048634	0.062531	9.819456	0.999973	0.003649	-0.001288	-0.006196
43710	-0.006723	0.066013	9.819748	0.999973	0.003657	-0.001300	-0.006193
43711	0.008779	0.070071	9.843987	0.999973	0.003652	-0.001305	-0.006181
43712	-0.000486	0.053585	9.852352	0.999973	0.003662	-0.001315	-0.006180
43713	0.022548	0.058981	9.835904	0.999973	0.003659	-0.001302	-0.006184
43714	0.014600	0.072312	9.803293	0.999973	0.003654	-0.001315	-0.006188
43715	0.026247	0.075760	9.847880	0.999973	0.003664	-0.001320	-0.006192
43716	0.016521	0.058733	9.803435	0.999973	0.003665	-0.001316	-0.006194
43717	0.008856	0.072744	9.823631	0.999973	0.003667	-0.001322	-0.006183
43718	0.019568	0.060712	9.835900	0.999973	0.003674	-0.001345	-0.006180
43719	0.024040	0.077206	9.847875	0.999973	0.003668	-0.001352	-0.006168
43720	0.015425	0.075500	9.835750	0.999973	0.003661	-0.001353	-0.006184
43721	0.025722	0.062647	9.795212	0.999973	0.003658	-0.001366	-0.006190
43722	0.006301	0.074150	9.823623	0.999973	0.003666	-0.001364	-0.006199
43723	0.016750	0.062066	9.835897	0.999973	0.003664	-0.001363	-0.006205
43724	-0.003060	0.072912	9.811492	0.999973	0.003666	-0.001365	-0.006201
43725	0.002551	0.044832	9.811792	0.999973	0.003690	-0.001368	-0.006198
43726	0.026527	0.065869	9.827677	0.999973	0.003684	-0.001357	-0.006192
43727	0.020916	0.050043	9.815702	0.999973	0.003697	-0.001360	-0.006186
43728	0.002157	0.076454	9.823607	0.999973	0.003684	-0.001361	-0.006188
43729	0.016593	0.064930	9.815547	0.999973	0.003696	-0.001369	-0.006187
43730	-0.010861	0.074685	9.831813	0.999973	0.003704	-0.001370	-0.006196
43731	0.006590	0.048969	9.823911	0.999973	0.003706	-0.001369	-0.006192
43732	0.010760	0.065495	9.835883	0.999973	0.003708	-0.001367	-0.006188
43733	0.005212	0.049675	9.823909	0.999973	0.003715	-0.001366	-0.006174
43734	0.009319	0.066232	9.835879	0.999973	0.003716	-0.001362	-0.006177
43735	-0.002628	0.079139	9.823585	0.999973	0.003736	-0.001354	-0.006161
43736	0.015726	0.068433	9.795195	0.999973	0.003735	-0.001378	-0.006157
43737	-0.001332	0.050639	9.844241	0.999973	0.003735	-0.001369	-0.006164
43738	0.016790	0.039642	9.815856	0.999973	0.003725	-0.001371	-0.006170
43739	0.020966	0.056035	9.827828	0.999973	0.003727	-0.001369	-0.006165
43740	0.017021	0.070749	9.827664	0.999973	0.003737	-0.001360	-0.006176
43741	0.004304	0.068532	9.835867	0.999973	0.003729	-0.001353	-0.006175
43742	0.018583	0.057064	9.827827	0.999973	0.003741	-0.001354	-0.006175
43743	0.022800	0.073528	9.839797	0.999973	0.003726	-0.001360	-0.006182
43744	0.012299	0.041326	9.815856	0.999973	0.003733	-0.001338	-0.006181
43745	-0.008364	0.037469	9.811918	0.999973	0.003757	-0.001348	-0.006208
43746	0.007913	0.056750	9.815685	0.999973	0.003764	-0.001365	-0.006189
43747	0.028868	0.091993	9.831423	0.999973	0.003762	-0.001357	-0.006201
43748	0.011392	0.073440	9.827653	0.999973	0.003756	-0.001353	-0.006202
43749	0.026550	0.076786	9.799118	0.999973	0.003758	-0.001365	-0.006200
43750	0.016388	0.045468	9.827989	0.999973	0.003774	-0.001354	-0.006202
43751	0.003767	0.043308	9.836185	0.999973	0.003769	-0.001358	-0.006191
43752	0.027017	0.048540	9.819793	0.999973	0.003768	-0.001369	-0.006199
43753	0.008470	0.075057	9.827643	0.999973	0.003788	-0.001391	-0.006201
43754	0.007938	0.075537	9.827640	0.999973	0.003792	-0.001386	-0.006206
43755	0.026994	0.080277	9.831585	0.999973	0.003797	-0.001377	-0.006210
43756	-0.002260	0.059407	9.836003	0.999972	0.003809	-0.001380	-0.006216
43757	0.016062	0.048546	9.807649	0.999973	0.003805	-0.001381	-0.006213
43758	0.016161	0.064494	9.839950	0.999972	0.003823	-0.001367	-0.006217
43759	0.019324	0.065526	9.819614	0.999972	0.003827	-0.001373	-0.006222
43760	0.014697	0.065054	9.839948	0.999972	0.003818	-0.001362	-0.006241
43761	0.025905	0.067832	9.831758	0.999972	0.003832	-0.001370	-0.006242
43762	0.002374	0.078075	9.827623	0.999972	0.003834	-0.001372	-0.006245
43763	0.016036	0.051731	9.840124	0.999972	0.003844	-0.001369	-0.006235
43764	0.007431	0.050256	9.827977	0.999972	0.003857	-0.001374	-0.006242
43765	-0.000405	0.063609	9.795317	0.999972	0.003859	-0.001371	-0.006252
43766	0.010114	0.052200	9.860453	0.999972	0.003862	-0.001361	-0.006255
43767	0.013987	0.068128	9.819606	0.999972	0.003876	-0.001351	-0.006261
43768	0.010381	0.083027	9.819419	0.999972	0.003899	-0.001380	-0.006253
43769	0.009028	0.068667	9.839931	0.999972	0.003909	-0.001355	-0.006254
43770	-0.003740	0.065586	9.795303	0.999972	0.003891	-0.001368	-0.006245
43771	0.022870	0.057115	9.831932	0.999972	0.003890	-0.001379	-0.006253
43772	0.022253	0.057377	9.831932	0.999972	0.003892	-0.001372	-0.006255
43773	0.002595	0.068198	9.807447	0.999972	0.003903	-0.001389	-0.006262
43774	0.029066	0.060004	9.844080	0.999972	0.003901	-0.001380	-0.006274
43775	0.023395	0.044009	9.832118	0.999972	0.003901	-0.001361	-0.006266
43776	0.008222	0.071097	9.819591	0.999972	0.003917	-0.001357	-0.006255
43777	0.013998	0.042911	9.819967	0.999972	0.003915	-0.001368	-0.006261
43778	0.029985	0.061923	9.823751	0.999972	0.003916	-0.001353	-0.006269
43779	0.014125	0.074051	9.831737	0.999972	0.003924	-0.001353	-0.006278
43780	0.036452	0.064666	9.835903	0.999972	0.003932	-0.001350	-0.006288
43781	0.015938	0.060545	9.831925	0.999972	0.003933	-0.001349	-0.006296
43782	0.023241	0.062918	9.844077	0.999972	0.003951	-0.001349	-0.006280
43783	0.006657	0.059478	9.819768	0.999972	0.003946	-0.001343	-0.006290
43784	0.002000	0.059015	9.840095	0.999972	0.003935	-0.001345	-0.006294
43785	0.013218	0.061803	9.831922	0.999971	0.003944	-0.001343	-0.006304
43786	0.029129	0.080855	9.835709	0.999971	0.003936	-0.001338	-0.006303
43787	0.026968	0.050394	9.823946	0.999972	0.003922	-0.001348	-0.006305
43788	0.011385	0.062392	9.831920	0.999971	0.003933	-0.001351	-0.006311
43789	0.003519	0.075737	9.799238	0.999971	0.003934	-0.001344	-0.006312
43790	0.006014	0.062455	9.852244	0.999971	0.003933	-0.001344	-0.006319
43791	0.025195	0.066463	9.803422	0.999971	0.003933	-0.001349	-0.006320
43792	0.008828	0.063699	9.831914	0.999971	0.003943	-0.001359	-0.006319
43793	0.000206	0.062142	9.819754	0.999971	0.003942	-0.001345	-0.006325
43794	0.010392	0.049950	9.832112	0.999971	0.003929	-0.001326	-0.006311
43795	0.013573	0.050704	9.811787	0.999971	0.003928	-0.001330	-0.006311
43796	0.025616	0.069190	9.835906	0.999972	0.003930	-0.001329	-0.006307
43797	0.016886	0.067592	9.823745	0.999972	0.003935	-0.001317	-0.006305
43798	-0.000579	0.049043	9.819948	0.999972	0.003925	-0.001312	-0.006303
43799	0.011290	0.067482	9.844068	0.999972	0.003930	-0.001305	-0.006294
43800	0.011428	0.082731	9.823539	0.999971	0.003931	-0.001317	-0.006312
43801	0.025853	0.071292	9.815581	0.999971	0.003930	-0.001306	-0.006319
43802	0.015666	0.039839	9.844474	0.999971	0.003928	-0.001310	-0.006318
43803	0.024454	0.071820	9.815581	0.999971	0.003925	-0.001306	-0.006330
43804	0.003191	0.052716	9.832103	0.999971	0.003926	-0.001313	-0.006319
43805	0.015982	0.086008	9.835696	0.999972	0.003912	-0.001315	-0.006320
43806	0.017004	0.041468	9.824152	0.999971	0.003924	-0.001313	-0.006319
43807	0.009834	0.070506	9.823734	0.999972	0.003929	-0.001305	-0.006311
43808	0.015525	0.042145	9.824151	0.999972	0.003918	-0.001306	-0.006314
43809	0.016458	0.073012	9.835898	0.999971	0.003934	-0.001316	-0.006326
43810	0.011158	0.057327	9.823938	0.999971	0.003945	-0.001315	-0.006325
43811	0.015186	0.073865	9.835894	0.999971	0.003933	-0.001315	-0.006327
43812	0.034385	0.078584	9.839910	0.999971	0.003935	-0.001319	-0.006317
43813	0.009953	0.073031	9.803402	0.999971	0.003936	-0.001315	-0.006318
43814	-0.003506	0.055897	9.832085	0.999971	0.003938	-0.001307	-0.006321
43815	0.015614	0.060785	9.836103	0.999972	0.003944	-0.001312	-0.006301
43816	0.022640	0.063360	9.848271	0.999971	0.003969	-0.001285	-0.006304
43817	0.013902	0.062034	9.836098	0.999971	0.003979	-0.001295	-0.006302
43818	0.014101	0.077282	9.815560	0.999971	0.003977	-0.001294	-0.006308
43819	0.012643	0.062732	9.836095	0.999971	0.003984	-0.001293	-0.006295
43820	-0.000543	0.044957	9.811967	0.999971	0.003994	-0.001302	-0.006293
43821	0.011470	0.063648	9.836090	0.999971	0.004003	-0.001298	-0.006303
43822	0.022626	0.066621	9.827944	0.999971	0.004007	-0.001291	-0.006293
43823	0.014594	0.080822	9.848039	0.999971	0.004024	-0.001283	-0.006311
43824	0.025173	0.068203	9.807622	0.999971	0.004028	-0.001293	-0.006296
43825	0.020630	0.067637	9.827941	0.999971	0.003996	-0.001298	-0.006294
43826	0.023188	0.053542	9.828164	0.999971	0.004017	-0.001295	-0.006295
43827	-0.000591	0.063707	9.823905	0.999971	0.004008	-0.001292	-0.006294
43828	0.029676	0.056124	9.840340	0.999971	0.004006	-0.001299	-0.006294
43829	0.017914	0.068832	9.827938	0.999971	0.004019	-0.001296	-0.006294
43830	0.009389	0.067210	9.815760	0.999971	0.004015	-0.001302	-0.006305
43831	0.019945	0.055271	9.828162	0.999971	0.004029	-0.001306	-0.006300
43832	0.016177	0.070017	9.827933	0.999971	0.004034	-0.001317	-0.006286
43833	0.007598	0.068309	9.815754	0.999971	0.004028	-0.001304	-0.006280
43834	-0.001128	0.066523	9.803574	0.999971	0.004026	-0.001299	-0.006292
43835	0.005318	0.053883	9.836296	0.999971	0.004024	-0.001305	-0.006293
43836	0.008761	0.054833	9.815979	0.999971	0.004034	-0.001310	-0.006298
43837	0.016124	0.057293	9.828157	0.999971	0.004046	-0.001321	-0.006297
43838	0.024103	0.074569	9.819790	0.999971	0.004051	-0.001308	-0.006296
43839	0.013789	0.043284	9.848701	0.999971	0.004064	-0.001301	-0.006302
43840	0.002818	0.070801	9.815739	0.999971	0.004059	-0.001313	-0.006307
43841	0.021273	0.060707	9.840335	0.999971	0.004055	-0.001315	-0.006290
43842	0.012579	0.059104	9.828152	0.999971	0.004068	-0.001302	-0.006290
43843	0.008549	0.073692	9.827916	0.999971	0.004057	-0.001303	-0.006294
43844	0.011114	0.059696	9.828150	0.999971	0.004069	-0.001303	-0.006294
43845	0.017572	0.047264	9.860881	0.999971	0.004073	-0.001309	-0.006285
43846	0.029618	0.065229	9.832202	0.999971	0.004095	-0.001307	-0.006287
43847	0.013610	0.077275	9.840091	0.999971	0.004079	-0.001291	-0.006285
43848	0.023319	0.049289	9.820258	0.999971	0.004067	-0.001292	-0.006289
43849	-0.000266	0.059137	9.815958	0.999971	0.004064	-0.001303	-0.006295
43850	0.026730	0.066045	9.832205	0.999971	0.004075	-0.001291	-0.006306
43851	0.009987	0.063257	9.860639	0.999971	0.004072	-0.001293	-0.006312
43852	0.025211	0.066626	9.832205	0.999971	0.004070	-0.001285	-0.006303
43853	0.020690	0.065531	9.799706	0.999971	0.004079	-0.001290	-0.006307
43854	0.004162	0.062747	9.828136	0.999971	0.004078	-0.001294	-0.006308
43855	0.026660	0.053175	9.832447	0.999971	0.004065	-0.001301	-0.006317
43856	0.014120	0.050898	9.840567	0.999971	0.004079	-0.001301	-0.006304
43857	0.017360	0.051858	9.820257	0.999971	0.004073	-0.001290	-0.006299
43858	0.017976	0.082834	9.831956	0.999971	0.004090	-0.001294	-0.006304
43859	0.011847	0.052356	9.840562	0.999971	0.004109	-0.001286	-0.006288
43860	0.011782	0.067580	9.820006	0.999971	0.004098	-0.001277	-0.006292
43861	0.010044	0.052941	9.840561	0.999971	0.004100	-0.001259	-0.006294
43862	0.005926	0.067649	9.840311	0.999971	0.004113	-0.001258	-0.006294
43863	0.012624	0.054199	9.820251	0.999971	0.004099	-0.001264	-0.006303
43864	0.012671	0.070157	9.852502	0.999971	0.004110	-0.001274	-0.006302
43865	0.019302	0.056833	9.832443	0.999971	0.004110	-0.001263	-0.006310
43866	0.003330	0.068834	9.840304	0.999971	0.004111	-0.001261	-0.006305
43867	0.021845	0.057981	9.812137	0.999971	0.004109	-0.001255	-0.006318
43868	0.009188	0.055714	9.820247	0.999971	0.004114	-0.001253	-0.006303
43869	0.008394	0.056001	9.820246	0.999971	0.004108	-0.001240	-0.006297
43870	0.019521	0.058927	9.812136	0.999971	0.004119	-0.001238	-0.006295
43871	0.029909	0.047037	9.824587	0.999971	0.004115	-0.001233	-0.006306
43872	0.013991	0.059005	9.832440	0.999971	0.004116	-0.001232	-0.006301
43873	0.014105	0.074232	9.811877	0.999971	0.004124	-0.001230	-0.006310
43874	0.024545	0.062357	9.824331	0.999971	0.004125	-0.001227	-0.006305
43875	0.012787	0.075008	9.811873	0.999971	0.004134	-0.001231	-0.006309
43876	0.023332	0.063159	9.824329	0.999971	0.004137	-0.001234	-0.006299
43877	0.010731	0.060859	9.832432	0.999971	0.004133	-0.001230	-0.006310
43878	0.025203	0.049445	9.824589	0.999971	0.004134	-0.001231	-0.006306
43879	0.019903	0.033364	9.812649	0.999971	0.004125	-0.001226	-0.006305
43880	-0.007950	0.042679	9.828591	0.999971	0.004126	-0.001225	-0.006300
43881	0.015447	0.048149	9.812388	0.999971	0.004125	-0.001247	-0.006294
43882	0.016231	0.079005	9.824065	0.999971	0.004125	-0.001240	-0.006296
43883	0.032688	0.113025	9.807339	0.999971	0.004124	-0.001228	-0.006302
43884	0.017765	0.065397	9.824326	0.999971	0.004132	-0.001217	-0.006311
43885	0.014838	0.020274	9.833216	0.999971	0.004122	-0.001212	-0.006309
43886	0.006332	0.018433	9.821012	0.999971	0.004119	-0.001219	-0.006308
43887	0.034645	0.056070	9.848999	0.999971	0.004131	-0.001223	-0.006300
43888	0.042632	0.073510	9.840636	0.999971	0.004146	-0.001222	-0.006289
43889	0.015592	0.097896	9.835989	0.999971	0.004148	-0.001222	-0.006285
43890	0.014861	0.098170	9.835987	0.999971	0.004144	-0.001216	-0.006296
43891	0.016150	0.053591	9.824586	0.999971	0.004144	-0.001214	-0.006291
43892	0.010057	0.022766	9.833217	0.999971	0.004145	-0.001208	-0.006292
43893	0.013983	0.039428	9.845154	0.999971	0.004148	-0.001220	-0.006298
43894	0.010871	0.068925	9.824312	0.999971	0.004152	-0.001214	-0.006289
43895	0.013356	0.055035	9.824582	0.999971	0.004155	-0.001208	-0.006278
43896	0.029087	0.074353	9.828428	0.999971	0.004162	-0.001207	-0.006287
43897	0.025129	0.088813	9.828155	0.999971	0.004143	-0.001208	-0.006276
43898	0.023156	0.058391	9.816493	0.999971	0.004146	-0.001202	-0.006266
43899	0.013762	0.041973	9.824854	0.999971	0.004157	-0.001201	-0.006264
43900	-0.006211	0.053524	9.852961	0.999971	0.004159	-0.001207	-0.006254
43901	-0.013797	0.066615	9.820173	0.999971	0.004157	-0.001213	-0.006254
43902	0.029091	0.076864	9.808127	0.999971	0.004170	-0.001200	-0.006253
43903	0.035378	0.064302	9.840915	0.999971	0.004147	-0.001207	-0.006246
43904	0.014975	0.060092	9.836784	0.999971	0.004182	-0.001201	-0.006240
43905	-0.002313	0.041807	9.832930	0.999971	0.004181	-0.001190	-0.006247
43906	0.017415	0.061607	9.816485	0.999971	0.004185	-0.001182	-0.006238
43907	0.015865	0.047042	9.837061	0.999971	0.004176	-0.001183	-0.006230
43908	0.027948	0.064693	9.808404	0.999971	0.004178	-0.001183	-0.006226
43909	0.023198	0.064535	9.828699	0.999971	0.004185	-0.001190	-0.006228
43910	-0.008235	0.072326	9.812062	0.999971	0.004170	-0.001197	-0.006236
43911	0.009098	0.047643	9.857354	0.999971	0.004185	-0.001177	-0.006230
43912	0.005972	0.077164	9.836489	0.999971	0.004183	-0.001199	-0.006223
43913	0.025024	0.082341	9.840627	0.999971	0.004207	-0.001170	-0.006227
43914	0.004078	0.062345	9.804257	0.999971	0.004197	-0.001182	-0.006219
43915	-0.001853	0.031363	9.812905	0.999971	0.004192	-0.001177	-0.006229
43916	-0.000141	0.002483	9.833772	0.999971	0.004186	-0.001171	-0.006216
43917	0.009008	0.050272	9.837054	0.999971	0.004194	-0.001175	-0.006219
43918	0.038075	0.102741	9.844481	0.999971	0.004189	-0.001187	-0.006223
43919	0.051400	0.151110	9.827467	0.999971	0.004200	-0.001179	-0.006228
43920	0.008296	0.082158	9.848688	0.999971	0.004221	-0.001177	-0.006229
43921	0.026896	0.071347	9.820616	0.999971	0.004200	-0.001169	-0.006231
43922	0.024490	0.041790	9.861783	0.999971	0.004198	-0.001169	-0.006237
43923	0.015664	0.024188	9.817340	0.999971	0.004195	-0.001170	-0.006242
43924	0.002111	0.007123	9.845992	0.999971	0.004203	-0.001158	-0.006251
43925	-0.008757	0.050428	9.845110	0.999971	0.004216	-0.001144	-0.006251
43926	0.014961	0.071135	9.808388	0.999971	0.004240	-0.001126	-0.006247
43927	0.043368	0.107839	9.783600	0.999971	0.004219	-0.001133	-0.006241
43928	0.047981	0.065508	9.857585	0.999971	0.004212	-0.001122	-0.006235
43929	0.020474	0.073865	9.820612	0.999971	0.004219	-0.001121	-0.006244
43930	-0.020599	0.050196	9.832870	0.999971	0.004234	-0.001113	-0.006238
43931	-0.020514	0.065408	9.812279	0.999971	0.004231	-0.001114	-0.006244
43932	0.034505	0.078243	9.792258	0.999971	0.004234	-0.001124	-0.006228
43933	0.059162	0.040798	9.870416	0.999971	0.004221	-0.001142	-0.006224
43934	0.012978	0.059224	9.808678	0.999971	0.004230	-0.001134	-0.006228
43935	-0.019480	0.069031	9.897586	0.999971	0.004222	-0.001152	-0.006236
43936	-0.022394	0.081653	9.791673	0.999971	0.004234	-0.001140	-0.006235
43937	0.020572	0.018432	9.862386	0.999971	0.004223	-0.001154	-0.006226
43938	0.040480	0.038117	9.845969	0.999971	0.004222	-0.001143	-0.006233
43939	0.014045	0.077268	9.820598	0.999971	0.004245	-0.001135	-0.006229
43940	-0.017341	0.101128	9.836095	0.999971	0.004249	-0.001128	-0.006220
43941	0.005712	0.106691	9.819981	0.999971	0.004248	-0.001117	-0.006227
43942	0.025854	0.052169	9.833436	0.999971	0.004264	-0.001097	-0.006222
43943	0.016183	0.019587	9.809587	0.999971	0.004228	-0.001106	-0.006223
43944	0.021435	-0.023768	9.830796	0.999971	0.004229	-0.001105	-0.006217
43945	-0.020016	0.027026	9.813149	0.999971	0.004252	-0.001115	-0.006209
43946	-0.026232	0.086775	9.824141	0.999971	0.004262	-0.001109	-0.006212
43947	0.015821	0.082378	9.832814	0.999971	0.004266	-0.001107	-0.006197
43948	0.046756	0.090158	9.828948	0.999971	0.004276	-0.001100	-0.006201
43949	0.034012	0.087837	9.836997	0.999971	0.004266	-0.001094	-0.006199
43950	0.008301	0.052020	9.841483	0.999971	0.004250	-0.001097	-0.006212
43951	-0.012304	0.031801	9.805087	0.999971	0.004267	-0.001100	-0.006218
43952	0.010282	0.038537	9.841794	0.999971	0.004266	-0.001090	-0.006224
43953	0.017021	0.025053	9.821826	0.999971	0.004262	-0.001089	-0.006207
43954	0.017560	0.055833	9.833434	0.999971	0.004252	-0.001100	-0.006221
43955	0.022442	0.087198	9.824759	0.999971	0.004252	-0.001118	-0.006209
43956	0.009904	0.084975	9.832800	0.999971	0.004261	-0.001113	-0.006213
43957	0.021063	0.087997	9.824755	0.999971	0.004261	-0.001109	-0.006214
43958	0.026917	0.059769	9.825389	0.999971	0.004259	-0.001098	-0.006220
43959	0.006361	0.055233	9.821191	0.999971	0.004248	-0.001094	-0.006217
43960	0.005862	0.055414	9.821191	0.999971	0.004246	-0.001117	-0.006210
43961	0.005425	0.055567	9.821190	0.999971	0.004233	-0.001118	-0.006213
43962	0.014762	0.012970	9.822148	0.999971	0.004233	-0.001111	-0.006214
43963	0.042574	0.050823	9.850195	0.999971	0.004243	-0.001112	-0.006212
43964	0.042769	0.066082	9.829594	0.999971	0.004250	-0.001116	-0.006192
43965	0.008100	0.088186	9.812501	0.999971	0.004257	-0.001132	-0.006196
43966	0.019650	0.106942	9.836662	0.999971	0.004250	-0.001122	-0.006189
43967	0.009158	0.059629	9.833424	0.999971	0.004246	-0.001117	-0.006200
43968	0.007402	0.029146	9.821827	0.999971	0.004233	-0.001118	-0.006203
43969	0.006741	0.029330	9.821827	0.999971	0.004234	-0.001118	-0.006198
43970	0.021610	0.034128	9.846315	0.999971	0.004261	-0.001122	-0.006207
43971	0.003187	0.075340	9.833090	0.999971	0.004260	-0.001128	-0.006207
43972	0.022388	0.080459	9.837301	0.999971	0.004268	-0.001137	-0.006203
43973	0.014009	0.078644	9.825054	0.999971	0.004258	-0.001131	-0.006202
43974	0.012568	0.063924	9.845660	0.999971	0.004244	-0.001144	-0.006203
43975	-0.000833	0.031084	9.842099	0.999971	0.004270	-0.001158	-0.006212
43976	0.011518	0.064828	9.845655	0.999971	0.004263	-0.001148	-0.006205
43977	-0.001532	0.046701	9.821489	0.999971	0.004276	-0.001137	-0.006205
43978	0.021933	0.068252	9.837623	0.999971	0.004276	-0.001153	-0.006194
43979	0.013768	0.066535	9.825373	0.999971	0.004286	-0.001163	-0.006192
43980	0.028511	0.055421	9.817676	0.999971	0.004297	-0.001162	-0.006190
43981	0.016070	0.069118	9.857893	0.999971	0.004304	-0.001167	-0.006193
43982	-0.000102	0.065162	9.833393	0.999971	0.004295	-0.001162	-0.006191
43983	0.023168	0.070628	9.817341	0.999971	0.004292	-0.001169	-0.006191
43984	0.022669	0.070809	9.817341	0.999971	0.004282	-0.001181	-0.006182
43985	0.009035	0.037784	9.813786	0.999971	0.004286	-0.001170	-0.006202
43986	0.001576	0.066514	9.813112	0.999971	0.004274	-0.001177	-0.006199
43987	-0.006685	0.080427	9.833048	0.999971	0.004274	-0.001173	-0.006200
43988	0.007983	0.069101	9.825362	0.999971	0.004272	-0.001178	-0.006200
43989	0.010677	0.055171	9.825698	0.999971	0.004276	-0.001172	-0.006191
43990	0.029827	0.060207	9.829931	0.999971	0.004268	-0.001190	-0.006200
43991	0.024762	0.044403	9.818016	0.999971	0.004304	-0.001170	-0.006201
43992	0.000081	0.039516	9.834053	0.999971	0.004279	-0.001183	-0.006200
43993	-0.003856	0.053974	9.833711	0.999971	0.004295	-0.001181	-0.006189
43994	0.004166	0.071174	9.825349	0.999971	0.004281	-0.001194	-0.006191
43995	0.015636	0.074058	9.817331	0.999971	0.004290	-0.001198	-0.006195
43996	0.033919	0.064433	9.842184	0.999971	0.004289	-0.001205	-0.006197
43997	0.014560	0.090575	9.849512	0.999971	0.004293	-0.001205	-0.006195
43998	-0.017871	0.067710	9.821099	0.999971	0.004305	-0.001207	-0.006187
43999	-0.002984	0.072377	9.845609	0.999971	0.004305	-0.001216	-0.006190
44000	0.035714	0.066235	9.821912	0.999971	0.004293	-0.001218	-0.006194
44001	0.030076	0.051086	9.862801	0.999971	0.004289	-0.001229	-0.006199
44002	-0.001306	0.058675	9.845951	0.999971	0.004290	-0.001228	-0.006194
44003	0.003017	0.074151	9.805062	0.999971	0.004280	-0.001217	-0.006199
44004	0.013402	0.062349	9.817667	0.999971	0.004294	-0.001221	-0.006194
44005	0.020359	0.048881	9.797746	0.999971	0.004278	-0.001217	-0.006179
44006	0.015512	0.064542	9.850194	0.999971	0.004294	-0.001222	-0.006161
44007	0.020154	0.080146	9.809305	0.999971	0.004282	-0.001240	-0.006159
44008	0.003244	0.061260	9.805403	0.999971	0.004280	-0.001228	-0.006166
44009	0.010184	0.063696	9.817662	0.999971	0.004283	-0.001228	-0.006163
44010	0.008623	0.049451	9.838280	0.999971	0.004305	-0.001225	-0.006165
44011	0.019837	0.052705	9.830272	0.999971	0.004316	-0.001219	-0.006171
44012	0.007118	0.050455	9.838276	0.999971	0.004319	-0.001218	-0.006168
44013	0.018414	0.053431	9.830271	0.999971	0.004320	-0.001218	-0.006164
44014	0.006598	0.066042	9.817650	0.999971	0.004342	-0.001215	-0.006166
44015	0.009290	0.068335	9.850177	0.999971	0.004359	-0.001209	-0.006185
44016	0.020592	0.055400	9.810000	0.999971	0.004343	-0.001220	-0.006164
44017	0.015771	0.055100	9.830266	0.999971	0.004351	-0.001221	-0.006174
44018	-0.000291	0.067061	9.837907	0.999971	0.004354	-0.001220	-0.006171
44019	0.010195	0.055302	9.850530	0.999971	0.004357	-0.001225	-0.006162
44020	0.001852	0.053482	9.838262	0.999971	0.004360	-0.001225	-0.006160
44021	0.017409	0.057064	9.809997	0.999971	0.004372	-0.001222	-0.006159
44022	-0.002972	0.052721	9.805726	0.999971	0.004380	-0.001222	-0.006169
44023	0.023686	0.060152	9.822261	0.999971	0.004390	-0.001216	-0.006174
44024	0.031744	0.077429	9.813900	0.999971	0.004390	-0.001238	-0.006169
44025	0.026809	0.077052	9.834165	0.999971	0.004375	-0.001216	-0.006161
44026	0.002017	0.071857	9.850156	0.999971	0.004375	-0.001222	-0.006164
44027	0.021001	0.061158	9.822261	0.999971	0.004387	-0.001216	-0.006170
44028	0.008276	0.058899	9.830253	0.999971	0.004389	-0.001216	-0.006167
44029	0.018760	0.047207	9.842889	0.999971	0.004398	-0.001220	-0.006171
44030	0.019008	0.062299	9.822258	0.999971	0.004395	-0.001220	-0.006177
44031	0.009685	0.045894	9.830616	0.999970	0.004421	-0.001212	-0.006175
44032	0.002215	0.058955	9.797711	0.999970	0.004417	-0.001224	-0.006181
44033	0.009481	0.077175	9.842146	0.999970	0.004407	-0.001235	-0.006174
44034	0.031909	0.052085	9.814635	0.999970	0.004411	-0.001223	-0.006171
44035	0.012239	0.078260	9.821881	0.999971	0.004416	-0.001216	-0.006163
44036	0.014975	0.064340	9.822252	0.999971	0.004415	-0.001220	-0.006164
44037	0.002439	0.061838	9.830238	0.999971	0.004405	-0.001227	-0.006163
44038	-0.002463	0.061589	9.850497	0.999970	0.004413	-0.001226	-0.006173
44039	0.017468	0.081514	9.834150	0.999970	0.004413	-0.001230	-0.006174
44040	0.004879	0.063281	9.809973	0.999970	0.004421	-0.001230	-0.006184
44041	0.015068	0.051813	9.822620	0.999970	0.004446	-0.001205	-0.006189
44042	0.003170	0.064172	9.809968	0.999970	0.004424	-0.001218	-0.006190
44043	0.021426	0.054448	9.834896	0.999970	0.004436	-0.001217	-0.006190
44044	0.013972	0.067492	9.801982	0.999970	0.004445	-0.001222	-0.006194
44045	0.016749	0.069422	9.834517	0.999970	0.004433	-0.001222	-0.006198
44046	0.011826	0.053190	9.822617	0.999970	0.004435	-0.001221	-0.006194
44047	0.015447	0.070032	9.834514	0.999970	0.004448	-0.001224	-0.006188
44048	-0.009275	0.065030	9.850471	0.999970	0.004442	-0.001213	-0.006183
44049	0.013074	0.040213	9.822994	0.999970	0.004470	-0.001210	-0.006199
44050	0.036371	0.061987	9.839192	0.999970	0.004465	-0.001216	-0.006210
44051	0.012593	0.071645	9.834507	0.999970	0.004469	-0.001209	-0.006202
44052	-0.003583	0.083647	9.842097	0.999970	0.004481	-0.001207	-0.006201
44053	0.018035	0.043895	9.835272	0.999970	0.004468	-0.001206	-0.006203
44054	0.017313	0.044105	9.835273	0.999970	0.004473	-0.001200	-0.006195
44055	0.009659	0.072869	9.834501	0.999970	0.004469	-0.001194	-0.006207
44056	0.000378	0.056165	9.842859	0.999970	0.004465	-0.001192	-0.006190
44057	0.023768	0.062058	9.826912	0.999970	0.004494	-0.001200	-0.006194
44058	0.035296	0.065179	9.818938	0.999970	0.004481	-0.001213	-0.006197
44059	0.014207	0.045712	9.835270	0.999970	0.004479	-0.001214	-0.006204
44060	0.025591	0.048643	9.827299	0.999970	0.004478	-0.001219	-0.006205
44061	0.005205	0.060093	9.855134	0.999970	0.004489	-0.001217	-0.006204
44062	0.012390	0.046805	9.835268	0.999970	0.004496	-0.001228	-0.006213
44063	0.020435	0.064052	9.826907	0.999970	0.004495	-0.001235	-0.006215
44064	0.000008	0.059770	9.822587	0.999970	0.004528	-0.001218	-0.006220
44065	0.014645	0.048706	9.815010	0.999970	0.004516	-0.001220	-0.006224
44066	0.029259	0.053364	9.839583	0.999970	0.004526	-0.001213	-0.006229
44067	0.002090	0.061213	9.802328	0.999970	0.004508	-0.001213	-0.006219
44068	-0.002943	0.060797	9.822580	0.999970	0.004505	-0.001209	-0.006232
44069	0.019332	0.051730	9.827298	0.999970	0.004509	-0.001197	-0.006230
44070	-0.001051	0.047052	9.822973	0.999970	0.004498	-0.001206	-0.006229
44071	0.026572	0.069352	9.818937	0.999970	0.004531	-0.001209	-0.006229
44072	0.006292	0.064753	9.814609	0.999970	0.004500	-0.001211	-0.006227
44073	0.005633	0.064877	9.814609	0.999970	0.004517	-0.001207	-0.006217
44074	0.000585	0.064941	9.834856	0.999970	0.004528	-0.001206	-0.006217
44075	0.004287	0.065851	9.814603	0.999970	0.004531	-0.001209	-0.006207
44076	0.010638	0.037653	9.815403	0.999970	0.004526	-0.001215	-0.006218
44077	0.018381	0.070760	9.839183	0.999970	0.004526	-0.001210	-0.006220
44078	0.020981	0.056948	9.839584	0.999970	0.004539	-0.001198	-0.006220
44079	0.012565	0.055335	9.827289	0.999970	0.004558	-0.001200	-0.006227
44080	0.012958	0.070224	9.806636	0.999970	0.004529	-0.001213	-0.006214
44081	0.007077	0.055074	9.847538	0.999970	0.004534	-0.001203	-0.006234
44082	0.019288	0.072850	9.818929	0.999970	0.004538	-0.001213	-0.006220
44083	0.005870	0.055859	9.847535	0.999970	0.004548	-0.001218	-0.006225
44084	0.013860	0.073001	9.839174	0.999970	0.004532	-0.001224	-0.006233
44085	0.012535	0.042486	9.827692	0.999970	0.004534	-0.001223	-0.006229
44086	0.011805	0.042734	9.827692	0.999970	0.004529	-0.001217	-0.006218
44087	0.019554	0.059932	9.819333	0.999970	0.004534	-0.001209	-0.006210
44088	0.003345	0.071807	9.826874	0.999970	0.004536	-0.001208	-0.006207
44089	0.028923	0.064851	9.864170	0.999970	0.004569	-0.001193	-0.006213
44090	0.001883	0.072909	9.826866	0.999970	0.004556	-0.001211	-0.006210
44091	0.008321	0.044634	9.827687	0.999970	0.004557	-0.001211	-0.006206
44092	0.020543	0.062351	9.799081	0.999970	0.004559	-0.001210	-0.006203
44093	0.011178	0.061764	9.839571	0.999970	0.004566	-0.001214	-0.006184
44094	0.026974	0.065281	9.811378	0.999970	0.004564	-0.001221	-0.006184
44095	0.018579	0.079291	9.831209	0.999970	0.004563	-0.001226	-0.006185
44096	0.012772	0.048487	9.839981	0.999970	0.004570	-0.001213	-0.006171
44097	0.020648	0.065534	9.831623	0.999970	0.004546	-0.001228	-0.006171
44098	0.012340	0.063587	9.819321	0.999970	0.004568	-0.001213	-0.006174
44099	-0.001389	0.046808	9.847921	0.999970	0.004580	-0.001212	-0.006173
44100	0.015316	0.065079	9.799073	0.999970	0.004580	-0.001220	-0.006169
44101	0.026429	0.084129	9.823257	0.999970	0.004590	-0.001208	-0.006179
44102	0.032565	0.055824	9.824096	0.999970	0.004567	-0.001204	-0.006186
44103	0.004200	0.064773	9.839557	0.999970	0.004574	-0.001188	-0.006202
44104	0.011335	0.051343	9.819733	0.999970	0.004571	-0.001200	-0.006208
44105	-0.013365	0.046251	9.835607	0.999970	0.004578	-0.001186	-0.006195
44106	0.017545	0.054233	9.832036	0.999970	0.004577	-0.001190	-0.006195
44107	0.016885	0.054413	9.832036	0.999970	0.004568	-0.001184	-0.006195
44108	0.016163	0.054677	9.832036	0.999970	0.004576	-0.001182	-0.006205
44109	0.031687	0.074280	9.835982	0.999970	0.004584	-0.001186	-0.006208
44110	-0.008311	0.064717	9.827237	0.999969	0.004579	-0.001174	-0.006225
44111	0.005449	0.038731	9.840391	0.999970	0.004578	-0.001168	-0.006205
44112	0.025128	0.058766	9.824101	0.999970	0.004590	-0.001156	-0.006204
44113	0.024449	0.059139	9.824100	0.999970	0.004586	-0.001168	-0.006209
44114	0.020483	0.057770	9.791552	0.999969	0.004602	-0.001149	-0.006205
44115	0.007402	0.071477	9.831600	0.999969	0.004601	-0.001155	-0.006207
44116	0.026425	0.076676	9.835980	0.999969	0.004598	-0.001156	-0.006213
44117	0.017279	0.060091	9.844336	0.999969	0.004606	-0.001159	-0.006216
44118	0.024419	0.046836	9.824527	0.999969	0.004619	-0.001147	-0.006216
44119	-0.000457	0.041788	9.840380	0.999969	0.004615	-0.001140	-0.006228
44120	0.007345	0.058924	9.832022	0.999969	0.004612	-0.001138	-0.006212
44121	0.026522	0.064111	9.836407	0.999969	0.004611	-0.001160	-0.006207
44122	0.022850	0.062771	9.803857	0.999969	0.004628	-0.001159	-0.006219
44123	0.025323	0.064968	9.836405	0.999969	0.004624	-0.001154	-0.006231
44124	0.032496	0.051576	9.816603	0.999969	0.004635	-0.001154	-0.006230
44125	0.008743	0.061214	9.811776	0.999969	0.004633	-0.001160	-0.006231
44126	0.002846	0.046462	9.852682	0.999969	0.004646	-0.001164	-0.006225
44127	0.023092	0.050639	9.804288	0.999969	0.004658	-0.001169	-0.006219
44128	0.006525	0.078489	9.843882	0.999969	0.004651	-0.001158	-0.006212
44129	0.021385	0.067167	9.836400	0.999969	0.004647	-0.001171	-0.006218
44130	0.014134	0.079909	9.803409	0.999969	0.004655	-0.001170	-0.006228
44131	0.023578	0.053764	9.836837	0.999969	0.004669	-0.001163	-0.006223
44132	0.003256	0.049298	9.832437	0.999969	0.004679	-0.001167	-0.006228
44133	0.015553	0.067173	9.803842	0.999969	0.004690	-0.001166	-0.006227
44134	0.001980	0.050257	9.832432	0.999969	0.004698	-0.001171	-0.006231
44135	0.005504	0.067144	9.844304	0.999969	0.004703	-0.001176	-0.006245
44136	0.008374	0.053409	9.844746	0.999969	0.004719	-0.001174	-0.006235
44137	0.011996	0.054294	9.824512	0.999969	0.004718	-0.001163	-0.006242
44138	0.024204	0.072045	9.795918	0.999969	0.004725	-0.001168	-0.006245
44139	0.014783	0.071486	9.836381	0.999969	0.004725	-0.001175	-0.006247
44140	0.005601	0.054824	9.844740	0.999969	0.004724	-0.001168	-0.006248
44141	0.024869	0.044297	9.817043	0.999969	0.004747	-0.001170	-0.006244
44142	0.020639	0.059154	9.816592	0.999969	0.004759	-0.001163	-0.006238
44143	0.012002	0.073323	9.836372	0.999969	0.004758	-0.001166	-0.006239
44144	0.019251	0.059577	9.816593	0.999969	0.004732	-0.001158	-0.006228
44145	0.017693	0.044894	9.837275	0.999969	0.004727	-0.001169	-0.006232
44146	0.005857	0.057138	9.824501	0.999969	0.004732	-0.001150	-0.006225
44147	0.009093	0.073841	9.836371	0.999969	0.004720	-0.001152	-0.006228
44148	0.023927	0.062520	9.828917	0.999969	0.004720	-0.001145	-0.006230
44149	0.015723	0.060591	9.816593	0.999969	0.004727	-0.001155	-0.006240
44150	0.010764	0.060561	9.836820	0.999969	0.004735	-0.001161	-0.006243
44151	0.025767	0.049184	9.829370	0.999969	0.004707	-0.001169	-0.006224
44152	0.009517	0.060679	9.836820	0.999969	0.004705	-0.001158	-0.006231
44153	0.016559	0.063134	9.849145	0.999969	0.004695	-0.001183	-0.006245
44154	0.020490	0.063956	9.828916	0.999969	0.004713	-0.001175	-0.006230
44155	0.008757	0.076217	9.816132	0.999969	0.004699	-0.001187	-0.006232
44156	0.011277	0.078287	9.848684	0.999969	0.004709	-0.001179	-0.006237
44157	0.014001	0.064502	9.849140	0.999969	0.004713	-0.001173	-0.006228
44158	0.021354	0.051072	9.829371	0.999969	0.004713	-0.001184	-0.006224
44159	0.004689	0.031903	9.825402	0.999969	0.004689	-0.001180	-0.006229
44160	0.008261	0.048431	9.837271	0.999969	0.004687	-0.001202	-0.006224
44161	0.028215	0.068504	9.821015	0.999969	0.004701	-0.001189	-0.006225
44162	-0.008315	0.044673	9.812610	0.999969	0.004700	-0.001183	-0.006226
44163	0.025213	0.070780	9.873793	0.999969	0.004720	-0.001175	-0.006234
44164	0.013839	0.067129	9.828906	0.999969	0.004718	-0.001180	-0.006234
44165	0.024397	0.055369	9.841700	0.999969	0.004707	-0.001187	-0.006232
44166	0.013043	0.051503	9.796814	0.999969	0.004715	-0.001179	-0.006214
44167	0.003326	0.050931	9.837261	0.999969	0.004710	-0.001174	-0.006225
44168	0.031221	0.057333	9.801251	0.999969	0.004734	-0.001181	-0.006216
44169	0.006579	0.052252	9.817033	0.999969	0.004722	-0.001183	-0.006220
44170	0.013487	0.054718	9.829366	0.999969	0.004724	-0.001182	-0.006217
44171	0.017279	0.055479	9.809142	0.999969	0.004725	-0.001181	-0.006213
44172	0.024216	0.058153	9.821474	0.999969	0.004733	-0.001186	-0.006216
44173	0.015533	0.072242	9.841227	0.999969	0.004728	-0.001180	-0.006227
44174	0.019212	0.073129	9.821003	0.999969	0.004747	-0.001173	-0.006235
44175	0.014190	0.072845	9.841225	0.999969	0.004715	-0.001192	-0.006226
44176	0.010610	0.071227	9.808667	0.999969	0.004741	-0.001187	-0.006240
44177	0.043931	0.050743	9.826394	0.999969	0.004745	-0.001165	-0.006237
44178	0.008035	0.057369	9.829357	0.999969	0.004731	-0.001182	-0.006233
44179	0.015680	0.043770	9.809608	0.999969	0.004731	-0.001193	-0.006229
44180	0.013648	0.045561	9.862386	0.999969	0.004741	-0.001186	-0.006234
44181	0.021985	0.046832	9.821944	0.999969	0.004741	-0.001196	-0.006229
44182	0.018034	0.061332	9.821468	0.999969	0.004742	-0.001210	-0.006219
44183	0.002824	0.087639	9.808178	0.999969	0.004731	-0.001204	-0.006216
44184	0.020639	0.078298	9.833330	0.999969	0.004737	-0.001189	-0.006203
44185	0.019024	0.063964	9.854025	0.999969	0.004731	-0.001200	-0.006207
44186	0.027219	0.065138	9.813587	0.999969	0.004736	-0.001176	-0.006205
44187	0.009734	0.062277	9.841684	0.999969	0.004735	-0.001169	-0.006206
44188	-0.002477	0.043791	9.817481	0.999969	0.004740	-0.001174	-0.006220
44189	0.016556	0.049160	9.821943	0.999969	0.004737	-0.001179	-0.006220
44190	0.039525	0.070915	9.838269	0.999969	0.004729	-0.001179	-0.006213
44191	0.019310	0.066240	9.833803	0.999969	0.004747	-0.001182	-0.006219
44192	0.007448	0.078664	9.820976	0.999969	0.004753	-0.001169	-0.006206
44193	0.017994	0.067030	9.833800	0.999969	0.004742	-0.001191	-0.006220
44194	0.017426	0.067441	9.833798	0.999969	0.004765	-0.001175	-0.006223
44195	0.032229	0.056416	9.826409	0.999969	0.004755	-0.001175	-0.006215
44196	0.031622	0.056605	9.826410	0.999969	0.004753	-0.001180	-0.006215
44197	0.011423	0.051824	9.821937	0.999969	0.004754	-0.001178	-0.006211
44198	0.007060	0.066389	9.821449	0.999969	0.004761	-0.001164	-0.006198
44199	0.006463	0.066537	9.821449	0.999969	0.004739	-0.001183	-0.006214
44200	0.016864	0.054776	9.834282	0.999969	0.004743	-0.001159	-0.006212
44201	0.040554	0.091425	9.829913	0.999969	0.004753	-0.001169	-0.006210
44202	0.016318	0.070300	9.813576	0.999969	0.004761	-0.001157	-0.006220
44203	-0.008015	0.049087	9.797237	0.999969	0.004763	-0.001155	-0.006217
44204	-0.009634	0.034762	9.817939	0.999969	0.004763	-0.001154	-0.006213
44205	0.001284	0.053995	9.842141	0.999969	0.004772	-0.001164	-0.006210
44206	0.024853	0.059916	9.826409	0.999969	0.004774	-0.001170	-0.006200
44207	0.043762	0.065213	9.830894	0.999969	0.004764	-0.001164	-0.006199
44208	0.003788	0.055226	9.821924	0.999969	0.004762	-0.001152	-0.006206
44209	-0.004039	0.084043	9.820934	0.999969	0.004777	-0.001162	-0.006217
44210	0.025633	0.046918	9.826904	0.999969	0.004771	-0.001156	-0.006205
44211	0.017743	0.075650	9.825912	0.999969	0.004782	-0.001154	-0.006204
44212	0.023270	0.032996	9.847612	0.999969	0.004779	-0.001154	-0.006211
44213	-0.006766	0.085491	9.820920	0.999969	0.004791	-0.001153	-0.006210
44214	0.015573	0.076903	9.825906	0.999969	0.004803	-0.001140	-0.006211
44215	0.025811	0.065544	9.838756	0.999968	0.004813	-0.001133	-0.006215
44216	0.025193	0.065829	9.838755	0.999969	0.004803	-0.001146	-0.006208
44217	0.002183	0.059114	9.801695	0.999968	0.004812	-0.001156	-0.006206
44218	0.009076	0.061826	9.814046	0.999968	0.004812	-0.001149	-0.006207
44219	0.023382	0.066793	9.838753	0.999969	0.004812	-0.001148	-0.006202
44220	0.007620	0.062420	9.814044	0.999969	0.004811	-0.001142	-0.006204
44221	0.002395	0.062454	9.834250	0.999968	0.004829	-0.001145	-0.006210
44222	0.025881	0.068382	9.818542	0.999968	0.004823	-0.001145	-0.006227
44223	0.013232	0.065763	9.826394	0.999968	0.004816	-0.001149	-0.006215
44224	0.016081	0.051908	9.826899	0.999968	0.004828	-0.001135	-0.006215
44225	0.007170	0.065958	9.846600	0.999968	0.004814	-0.001136	-0.006217
44226	-0.001051	0.063778	9.834242	0.999968	0.004813	-0.001131	-0.006218
44227	0.033314	0.057833	9.831407	0.999968	0.004821	-0.001117	-0.006227
44228	0.025217	0.086710	9.830389	0.999968	0.004834	-0.001104	-0.006228
44229	0.012152	0.053620	9.826895	0.999968	0.004834	-0.001112	-0.006224
44230	0.015490	0.070492	9.838743	0.999968	0.004840	-0.001111	-0.006210
44231	0.010851	0.054197	9.826894	0.999968	0.004831	-0.001107	-0.006210
44232	-0.004561	0.080434	9.813510	0.999968	0.004832	-0.001106	-0.006206
44233	0.016855	0.057029	9.839253	0.999968	0.004831	-0.001096	-0.006214
44234	0.005089	0.069142	9.826379	0.999968	0.004830	-0.001109	-0.006210
44235	0.012095	0.071663	9.838739	0.999968	0.004819	-0.001116	-0.006208
44236	0.027204	0.060463	9.831410	0.999968	0.004822	-0.001122	-0.006220
44237	0.023638	0.058917	9.798844	0.999968	0.004827	-0.001119	-0.006206
44238	-0.000917	0.084435	9.825857	0.999968	0.004827	-0.001112	-0.006208
44239	0.033629	0.078361	9.823054	0.999969	0.004819	-0.001115	-0.006195
44240	0.012496	0.058904	9.839249	0.999968	0.004825	-0.001113	-0.006203
44241	0.028442	0.062469	9.811206	0.999969	0.004826	-0.001114	-0.006200
44242	0.019310	0.045814	9.819562	0.999969	0.004827	-0.001112	-0.006195
44243	0.022532	0.062571	9.831409	0.999969	0.004819	-0.001112	-0.006189
44244	0.009876	0.059884	9.839246	0.999969	0.004806	-0.001116	-0.006186
44245	0.025960	0.063301	9.811208	0.999969	0.004809	-0.001121	-0.006199
44246	0.021778	0.077937	9.810686	0.999969	0.004822	-0.001125	-0.006193
44247	0.027646	0.065860	9.843774	0.999969	0.004799	-0.001120	-0.006200
44248	0.019356	0.063484	9.831410	0.999969	0.004791	-0.001109	-0.006194
44249	0.018697	0.063715	9.831409	0.999969	0.004792	-0.001119	-0.006212
44250	0.002143	0.044725	9.827395	0.999969	0.004797	-0.001112	-0.006203
44251	0.001293	0.045074	9.827393	0.999969	0.004798	-0.001100	-0.006200
44252	0.016480	0.064894	9.831406	0.999969	0.004816	-0.001103	-0.006206
44253	0.035451	0.070433	9.835943	0.999969	0.004809	-0.001108	-0.006194
44254	0.011685	0.079602	9.830879	0.999969	0.004798	-0.001109	-0.006186
44255	0.014692	0.065659	9.831403	0.999969	0.004802	-0.001116	-0.006200
44256	0.006594	0.063688	9.819031	0.999969	0.004809	-0.001115	-0.006209
44257	0.009413	0.049921	9.819557	0.999969	0.004815	-0.001101	-0.006196
44258	0.012535	0.066866	9.831398	0.999969	0.004817	-0.001106	-0.006207
44259	0.008411	0.081375	9.830868	0.999969	0.004816	-0.001117	-0.006202
44260	0.019044	0.069938	9.843767	0.999969	0.004825	-0.001126	-0.006200
44261	-0.004948	0.048753	9.827375	0.999969	0.004840	-0.001124	-0.006188
44262	0.006515	0.052106	9.819548	0.999969	0.004853	-0.001132	-0.006176
44263	0.024685	0.042962	9.844824	0.999969	0.004839	-0.001151	-0.006172
