// Start Time: Unknown
// Update Rate: 60.0Hz
// Filter Profile: human (46.1)
// Option Flags: AHS Disabled ICC Disabled 
// Firmware Version: 4.3.5
PacketCounter	Acc_X	Acc_Y	Acc_Z	Quat_q0	Quat_q1	Quat_q2	Quat_q3
43442	1.337037	-3.065950	9.080962	0.739950	-0.073012	-0.161204	0.648966
43443	1.199571	-2.879665	8.954045	0.739821	-0.073157	-0.161355	0.649059
43444	1.350160	-2.891703	8.894789	0.739612	-0.073842	-0.162138	0.649025
43445	1.452466	-3.145714	8.820755	0.739334	-0.074590	-0.162729	0.649108
43446	1.386523	-3.224224	8.748511	0.739078	-0.075015	-0.162504	0.649407
43447	1.379214	-3.299131	8.845871	0.738967	-0.075051	-0.161566	0.649763
43448	1.388452	-3.158132	8.939973	0.738980	-0.075048	-0.160395	0.650038
43449	1.213971	-3.006941	9.038071	0.738946	-0.075578	-0.159589	0.650214
43450	1.103073	-3.048384	9.148342	0.738755	-0.076449	-0.159612	0.650323
43451	1.401741	-3.231547	9.208319	0.738482	-0.077109	-0.159824	0.650503
43452	1.440586	-3.297054	9.134966	0.738248	-0.077589	-0.159638	0.650757
43453	1.324498	-3.177388	9.152364	0.738028	-0.078545	-0.159321	0.650971
43454	1.144830	-3.124523	9.242214	0.737744	-0.080135	-0.159506	0.651053
43455	1.189150	-3.331936	9.251381	0.737462	-0.081749	-0.160052	0.651038
43456	1.192867	-3.445810	9.218720	0.737245	-0.082786	-0.160424	0.651061
43457	1.346580	-3.521943	9.218795	0.737137	-0.083303	-0.160254	0.651160
43458	1.260826	-3.525012	9.208691	0.737160	-0.083052	-0.159534	0.651342
43459	1.191498	-3.046895	9.174582	0.737277	-0.082705	-0.158829	0.651426
43460	1.278145	-2.992789	9.200898	0.737278	-0.082865	-0.158574	0.651467
43461	1.301913	-3.159796	9.229953	0.736922	-0.083622	-0.158274	0.651845
43462	1.196398	-3.286981	9.151983	0.736325	-0.085002	-0.157971	0.652415
43463	1.038368	-3.410830	9.156428	0.735737	-0.086982	-0.158358	0.652724
43464	1.068850	-3.602670	9.051824	0.735294	-0.089266	-0.159297	0.652686
43465	0.977873	-3.975742	8.964859	0.735098	-0.090720	-0.159917	0.652554
43466	0.928789	-3.968403	8.755413	0.735288	-0.090680	-0.159686	0.652402
43467	0.836507	-3.578326	8.544212	0.735835	-0.089812	-0.159007	0.652072
43468	1.080956	-3.126752	8.505061	0.736587	-0.089429	-0.158337	0.651438
43469	1.172969	-2.941959	8.631302	0.737190	-0.089949	-0.157832	0.650807
43470	1.277930	-2.880027	8.756813	0.737448	-0.091193	-0.157447	0.650435
43471	1.015680	-3.024603	8.777433	0.737371	-0.092832	-0.157012	0.650395
43472	0.814684	-3.231045	8.763734	0.737105	-0.094669	-0.156694	0.650508
43473	0.851064	-3.551648	8.765637	0.736938	-0.096620	-0.156461	0.650467
43474	0.888709	-3.723493	8.803383	0.737021	-0.098700	-0.155931	0.650188
43475	0.760814	-3.700200	8.873098	0.737377	-0.100801	-0.155234	0.649628
43476	0.795246	-3.652891	8.846555	0.738144	-0.102007	-0.154505	0.648742
43477	0.909266	-3.455844	8.756353	0.739118	-0.101880	-0.153388	0.647918
43478	0.870686	-2.917160	8.625016	0.740133	-0.101439	-0.151829	0.647195
43479	0.730127	-2.625609	8.474021	0.740877	-0.101666	-0.150323	0.646659
43480	0.739903	-2.598179	8.416229	0.741225	-0.103098	-0.149041	0.646330
43481	0.865259	-2.579244	8.398522	0.741292	-0.105431	-0.148193	0.646073
43482	0.858005	-2.974204	8.415066	0.741225	-0.107715	-0.147236	0.645991
43483	0.581999	-2.940748	8.116403	0.741008	-0.109501	-0.145972	0.646227
43484	0.126485	-2.702517	7.708722	0.740621	-0.111612	-0.145057	0.646515
43485	0.628652	-3.012549	7.649312	0.740328	-0.114500	-0.143907	0.646602
43486	0.946731	-3.528052	8.125341	0.740359	-0.116734	-0.140563	0.646903
43487	0.918417	-3.286168	8.951724	0.740715	-0.117828	-0.134745	0.647536
43488	0.381736	-2.895665	9.466513	0.741038	-0.118715	-0.128053	0.648361
43489	0.090238	-2.516210	9.888733	0.740870	-0.120558	-0.121951	0.649388
43490	0.213418	-2.871656	10.407319	0.740048	-0.123437	-0.117006	0.650694
43491	0.013711	-3.125444	10.555953	0.738755	-0.126039	-0.112950	0.652379
43492	-0.154652	-3.192767	10.270992	0.737393	-0.128283	-0.109736	0.654029
43493	-0.140616	-3.718057	10.087872	0.736368	-0.129746	-0.106582	0.655415
43494	-0.170788	-3.661862	10.041881	0.735839	-0.129873	-0.102610	0.656617
43495	0.047863	-3.703797	10.588476	0.735755	-0.128869	-0.097590	0.657673
43496	0.424741	-3.419861	11.338598	0.735786	-0.126233	-0.091335	0.659046
43497	0.427851	-2.909969	11.698388	0.735518	-0.123454	-0.084548	0.660775
43498	-0.177138	-2.614915	11.786363	0.734468	-0.122147	-0.078495	0.662929
43499	-0.793571	-3.275153	12.200572	0.733034	-0.122307	-0.074586	0.664935
43500	-1.114553	-4.965161	12.733653	0.732511	-0.119275	-0.071697	0.666378
43501	-0.994283	-4.911468	12.737120	0.733721	-0.110534	-0.068122	0.666930
43502	-0.307436	-3.218833	12.679954	0.736150	-0.099703	-0.064648	0.666305
43503	0.044940	-2.032763	12.850952	0.738474	-0.090932	-0.062493	0.665194
43504	-0.141521	-1.832039	12.973098	0.739580	-0.085267	-0.061780	0.664781
43505	-0.410018	-1.951559	12.485177	0.739407	-0.081170	-0.063020	0.665369
43506	-0.588698	-2.150893	11.203293	0.738666	-0.077535	-0.067199	0.666217
43507	-0.838776	-2.193087	9.820215	0.737954	-0.074259	-0.074826	0.666566
43508	-0.221301	-2.958477	8.614518	0.737490	-0.071257	-0.084033	0.666310
43509	0.062911	-3.742751	7.732485	0.737351	-0.067188	-0.091821	0.665859
43510	0.189512	-3.726262	6.951885	0.737717	-0.061755	-0.097274	0.665205
43511	0.274642	-3.258368	6.373985	0.738545	-0.056000	-0.101148	0.664217
43512	0.393971	-2.824428	6.202756	0.739593	-0.051413	-0.104158	0.662956
43513	0.500505	-2.530829	6.270657	0.740810	-0.049052	-0.106777	0.661357
43514	0.524026	-2.582652	6.503395	0.742222	-0.048253	-0.108913	0.659481
43515	0.628502	-2.352252	6.764142	0.744010	-0.047933	-0.110228	0.657268
43516	0.560865	-1.925170	6.952295	0.746190	-0.047362	-0.110869	0.654726
43517	1.020362	-1.502969	7.280462	0.748553	-0.046414	-0.110715	0.652117
43518	1.029873	-1.410195	7.870668	0.750677	-0.044913	-0.109047	0.650058
43519	1.061590	-0.841576	8.237302	0.752238	-0.043114	-0.106226	0.648841
43520	1.062000	-0.451166	8.595116	0.753332	-0.042555	-0.103564	0.648039
43521	1.065401	-0.630104	9.009572	0.753913	-0.043680	-0.101245	0.647654
43522	1.014313	-0.959114	9.440740	0.754082	-0.045820	-0.099025	0.647653
43523	0.621844	-1.166812	9.688470	0.754089	-0.048008	-0.097006	0.647792
43524	0.508043	-1.307739	9.923460	0.754061	-0.049686	-0.095251	0.647959
43525	0.835560	-1.511681	10.135858	0.754091	-0.050628	-0.092943	0.648187
43526	0.794305	-1.308764	10.259425	0.754068	-0.051383	-0.090101	0.648555
43527	0.661081	-1.383035	10.403944	0.753805	-0.052370	-0.087390	0.649152
43528	0.708191	-1.547733	10.614522	0.753326	-0.053479	-0.084894	0.649948
43529	0.448683	-1.808789	10.783086	0.752817	-0.053859	-0.082662	0.650794
43530	0.377615	-1.731946	10.595204	0.752264	-0.052821	-0.081056	0.651719
43531	0.459431	-1.672729	10.171555	0.751727	-0.051496	-0.080215	0.652549
43532	0.537952	-1.863672	9.876772	0.751114	-0.050531	-0.079552	0.653411
43533	0.475313	-1.846092	9.699894	0.750424	-0.049708	-0.078877	0.654348
43534	0.514082	-1.900656	9.413168	0.749658	-0.049230	-0.078491	0.655308
43535	0.480029	-2.078026	9.182677	0.748746	-0.049248	-0.078156	0.656389
43536	0.247905	-2.529017	9.014260	0.747867	-0.049349	-0.077626	0.657445
43537	0.190583	-2.598324	8.842509	0.747346	-0.048551	-0.076877	0.658184
43538	0.321621	-2.259852	8.596862	0.747284	-0.047496	-0.076102	0.658422
43539	0.311066	-2.027556	8.385710	0.747255	-0.047030	-0.075507	0.658557
43540	0.329775	-2.016284	8.296761	0.747063	-0.047770	-0.074904	0.658790
43541	0.226951	-1.945559	8.187980	0.746886	-0.049673	-0.074326	0.658915
43542	-0.044923	-2.056738	8.018293	0.746846	-0.052071	-0.073664	0.658850
43543	-0.268505	-2.024463	7.699079	0.747014	-0.054145	-0.072710	0.658599
43544	-0.856868	-2.097353	6.965454	0.747306	-0.055420	-0.071694	0.658272
43545	-1.549260	-1.746734	5.372586	0.747570	-0.055830	-0.071807	0.657926
43546	-2.585003	-0.667553	2.952887	0.747613	-0.057522	-0.075421	0.657326
43547	-1.653664	-1.200135	1.459044	0.747342	-0.065013	-0.080767	0.656300
43548	-0.506423	-3.837698	0.984758	0.746941	-0.078015	-0.079160	0.655535
43549	-0.567790	-5.607495	1.858106	0.747758	-0.092212	-0.065637	0.654252
43550	-1.709119	-6.195502	2.993778	0.751811	-0.101625	-0.040228	0.650257
43551	-3.064673	-4.858922	3.416249	0.758981	-0.104605	-0.006460	0.642622
43552	-4.525919	-2.601938	3.449047	0.767554	-0.104791	0.030802	0.631609
43553	-5.553734	-1.947063	3.898297	0.775993	-0.106330	0.069398	0.617829
43554	-6.909609	-1.621624	3.650824	0.783850	-0.109374	0.108445	0.601545
43555	-7.209040	-1.734800	3.275096	0.791174	-0.114749	0.147855	0.582250
43556	-8.896005	-1.247024	2.544086	0.798101	-0.121879	0.187158	0.559601
43557	-10.970412	-0.865075	2.536602	0.804382	-0.130643	0.225186	0.534035
43558	-12.438498	-1.596066	3.391923	0.809887	-0.137698	0.262194	0.506337
43559	-12.939238	-2.234038	3.923376	0.814987	-0.139415	0.299573	0.476042
43560	-13.387027	-2.341573	4.106644	0.819629	-0.134649	0.338978	0.441784
43561	-14.071229	-1.197020	3.501086	0.823388	-0.125133	0.379747	0.402699
43562	-15.528860	0.532475	2.533428	0.826059	-0.115752	0.418535	0.359244
43563	-16.785057	1.688970	2.454896	0.827572	-0.110150	0.452505	0.313418
43564	-17.295755	0.891305	2.839090	0.828464	-0.107312	0.480875	0.266252
43565	-17.955994	0.532376	3.164016	0.829608	-0.104968	0.503627	0.217008
43566	-18.633930	0.037024	3.197461	0.831167	-0.101887	0.521343	0.164261
43567	-18.525519	0.136152	2.714690	0.831825	-0.097111	0.535976	0.106612
43568	-19.008227	1.245060	2.663444	0.829800	-0.093163	0.548315	0.045865
43569	-20.229889	2.631711	3.564800	0.824737	-0.092966	0.557631	-0.014625
43570	-20.284310	3.161542	4.297465	0.817979	-0.098000	0.562171	-0.072598
43571	-19.464946	2.271866	4.083040	0.810113	-0.106831	0.562266	-0.127128
43572	-17.708121	1.139580	3.074912	0.799834	-0.116468	0.561496	-0.177267
43573	-16.199122	1.887412	1.754608	0.788142	-0.123516	0.560308	-0.222779
43574	-15.068864	3.231923	1.814379	0.776173	-0.130867	0.558050	-0.262699
43575	-13.840778	4.157731	2.392718	0.764566	-0.142725	0.555667	-0.293774
43576	-11.950494	2.678102	1.985399	0.752854	-0.160138	0.555444	-0.314720
43577	-10.504237	-0.365782	1.995330	0.740429	-0.178443	0.558664	-0.328357
43578	-10.425264	-2.797444	2.730659	0.727706	-0.193728	0.563359	-0.339913
43579	-9.813486	-4.784051	3.703142	0.716403	-0.204158	0.565323	-0.354255
43580	-8.278782	-2.689745	3.137495	0.705814	-0.210443	0.565032	-0.371859
43581	-9.371003	9.775450	7.109490	0.698796	-0.220702	0.566894	-0.376304
43582	-10.620577	7.689157	6.810889	0.694416	-0.245641	0.577020	-0.352838
43583	-7.809927	-5.584960	5.240314	0.691361	-0.264396	0.580001	-0.340166
43584	-8.387535	-6.641661	5.194237	0.690849	-0.276340	0.575494	-0.339368
43585	-5.671798	-8.811509	2.150247	0.693002	-0.283381	0.568026	-0.341747
43586	-3.327434	-8.943415	0.707507	0.692168	-0.288818	0.564698	-0.344389
43587	-3.830907	-9.646739	1.383977	0.687736	-0.294160	0.566597	-0.345625
43588	-4.619752	-9.274445	2.217718	0.683321	-0.299331	0.568081	-0.347501
43589	-4.530030	-7.915386	2.364627	0.679119	-0.306175	0.568321	-0.349378
43590	-5.339655	-6.772485	2.107410	0.674323	-0.313310	0.569482	-0.350450
43591	-6.281729	-6.204308	2.056063	0.668879	-0.319088	0.572497	-0.350758
43592	-6.939160	-8.033057	2.312128	0.662562	-0.323710	0.577514	-0.350287
43593	-6.498501	-8.655840	1.624521	0.656385	-0.328246	0.582478	-0.349476
43594	-5.657685	-8.090658	1.015490	0.650423	-0.332848	0.587717	-0.347494
43595	-5.041553	-7.230423	0.321696	0.644417	-0.337694	0.593838	-0.343576
43596	-4.852806	-7.233829	-0.076082	0.637931	-0.342773	0.601333	-0.337564
43597	-5.544466	-8.337593	0.247338	0.631515	-0.346972	0.609225	-0.331126
43598	-6.263643	-9.030480	0.897681	0.625997	-0.350454	0.616170	-0.325029
43599	-6.239523	-9.345169	0.996354	0.621928	-0.353673	0.620991	-0.320143
43600	-5.821399	-8.536009	0.834460	0.618721	-0.356818	0.624788	-0.315446
43601	-5.400256	-8.311737	1.161271	0.615567	-0.359782	0.628833	-0.310167
43602	-5.214951	-8.796217	1.712178	0.612318	-0.362422	0.633300	-0.304380
43603	-5.531911	-9.990228	1.841766	0.609425	-0.364875	0.637165	-0.299146
43604	-5.610571	-10.527027	1.747961	0.607526	-0.366514	0.639440	-0.296137
43605	-5.810882	-9.984400	1.449970	0.606617	-0.366818	0.640401	-0.295546
43606	-5.920027	-9.497779	0.998414	0.606182	-0.366327	0.640833	-0.296111
43607	-5.978236	-9.639688	1.104133	0.605552	-0.365467	0.641416	-0.297198
43608	-6.009120	-10.035700	1.114092	0.605345	-0.364115	0.641578	-0.298925
43609	-6.092248	-10.279261	0.930817	0.605889	-0.362767	0.640954	-0.300793
43610	-6.152804	-9.769104	0.656656	0.607519	-0.361661	0.639177	-0.302613
43611	-6.010190	-9.284177	0.847521	0.609932	-0.360436	0.636686	-0.304466
43612	-5.647808	-9.330915	1.362289	0.613185	-0.358514	0.633423	-0.306996
43613	-5.350826	-9.242919	1.400460	0.617231	-0.355780	0.629191	-0.310750
43614	-5.153161	-8.716217	1.091226	0.621766	-0.352581	0.624164	-0.315457
43615	-5.220724	-8.434567	0.610855	0.626501	-0.349328	0.618636	-0.320556
43616	-5.200274	-8.156113	0.333435	0.631354	-0.346468	0.612771	-0.325367
43617	-5.524571	-8.431268	0.554048	0.636123	-0.344404	0.606619	-0.329768
43618	-5.518899	-8.180873	0.802287	0.641579	-0.342856	0.599217	-0.334313
43619	-5.338271	-8.078510	1.062926	0.647609	-0.341394	0.590871	-0.339005
43620	-4.995880	-7.851428	1.331019	0.654035	-0.339910	0.581659	-0.344054
43621	-4.929584	-7.887652	1.409890	0.660298	-0.339199	0.572073	-0.348831
43622	-4.906326	-8.155208	1.351052	0.666110	-0.340093	0.562270	-0.352826
43623	-5.268470	-8.414348	0.990173	0.671817	-0.342173	0.551785	-0.356529
43624	-5.106569	-7.404627	0.590160	0.678104	-0.344319	0.540268	-0.360180
43625	-4.756366	-6.656906	0.813449	0.684180	-0.346730	0.529171	-0.362842
43626	-4.328612	-7.092015	1.387333	0.689944	-0.349190	0.518695	-0.364690
43627	-3.881563	-7.756659	1.927033	0.695416	-0.351386	0.508648	-0.366336
43628	-3.914388	-8.327928	2.138079	0.700736	-0.353230	0.498577	-0.368263
43629	-3.891378	-7.915239	2.151856	0.706179	-0.354640	0.488185	-0.370428
43630	-3.772654	-7.590763	2.259351	0.711352	-0.355853	0.478252	-0.372319
43631	-3.602908	-7.594401	2.525159	0.716120	-0.356853	0.469155	-0.373794
43632	-3.593030	-8.009470	2.910973	0.720639	-0.357707	0.460603	-0.374927
43633	-3.766146	-8.141200	2.973887	0.725342	-0.358323	0.451646	-0.376164
43634	-3.868889	-7.609280	2.652409	0.730243	-0.359386	0.441946	-0.377187
43635	-3.924996	-7.023535	2.503500	0.734816	-0.361749	0.432240	-0.377296
43636	-3.861711	-7.167166	2.802855	0.738979	-0.365276	0.423034	-0.376200
43637	-3.867700	-8.085510	3.459793	0.742872	-0.369395	0.414102	-0.374443
43638	-3.662183	-8.955588	3.890155	0.746812	-0.373429	0.404617	-0.372972
43639	-3.412255	-9.324770	4.012986	0.750870	-0.376887	0.394490	-0.372193
43640	-3.294873	-9.100963	3.861100	0.754949	-0.379632	0.384033	-0.372088
43641	-3.192514	-8.565533	3.849908	0.758801	-0.382341	0.373824	-0.371877
43642	-2.480235	-8.218214	3.683877	0.762089	-0.385055	0.364988	-0.371129
43643	-2.321790	-8.711205	4.084609	0.764636	-0.387318	0.358002	-0.370340
43644	-1.999469	-8.926186	4.303681	0.767096	-0.388650	0.351215	-0.370355
43645	-1.725739	-9.050495	4.155203	0.769129	-0.389346	0.344943	-0.371302
43646	-1.669413	-9.033788	3.995126	0.770801	-0.389206	0.339474	-0.373016
43647	-1.845989	-9.081763	3.614430	0.771867	-0.388467	0.335476	-0.375193
43648	-2.461078	-9.251152	3.307652	0.772473	-0.387450	0.332581	-0.377568
43649	-2.874838	-9.416430	3.136623	0.772685	-0.386580	0.330383	-0.379949
43650	-2.958826	-9.467321	2.864047	0.772616	-0.385998	0.328693	-0.382139
43651	-2.942935	-9.155834	2.984800	0.772198	-0.385861	0.327810	-0.383878
43652	-2.844727	-9.117659	3.273979	0.771199	-0.386634	0.328104	-0.384856
43653	-2.779532	-8.941321	3.910221	0.769857	-0.387731	0.329426	-0.385308
43654	-2.712228	-8.748833	4.407914	0.768139	-0.388577	0.331961	-0.385710
43655	-2.478559	-9.358242	4.468739	0.766121	-0.388626	0.335672	-0.386461
43656	-2.617032	-9.724274	4.406758	0.763984	-0.387440	0.340262	-0.387866
43657	-3.038683	-9.667887	4.268895	0.761782	-0.385310	0.345640	-0.389561
43658	-3.683778	-9.299249	4.083675	0.759589	-0.382196	0.351785	-0.391405
43659	-4.158734	-8.447662	3.687526	0.757398	-0.378063	0.358744	-0.393343
43660	-4.404727	-7.750956	3.216143	0.755050	-0.373501	0.366592	-0.394977
43661	-4.439396	-7.567904	2.811345	0.752437	-0.369631	0.374886	-0.395818
43662	-4.412705	-7.653056	2.620809	0.749590	-0.367023	0.383110	-0.395772
43663	-4.312492	-8.022943	2.726580	0.746432	-0.365783	0.391252	-0.394923
43664	-4.050980	-8.582679	2.874786	0.743237	-0.365095	0.399187	-0.393642
43665	-3.751919	-8.865550	2.887353	0.739976	-0.364382	0.407090	-0.392350
43666	-3.407131	-8.935597	2.488461	0.736629	-0.363595	0.414995	-0.391096
43667	-3.205218	-8.512446	2.046377	0.733156	-0.363006	0.422812	-0.389793
43668	-2.815736	-8.109825	1.766212	0.729328	-0.363423	0.430686	-0.387961
43669	-2.589319	-8.228317	1.580684	0.725170	-0.364876	0.438495	-0.385637
43670	-2.278841	-8.256238	1.586719	0.720337	-0.367668	0.446519	-0.382826
43671	-2.491759	-8.577226	1.794359	0.715025	-0.371852	0.454120	-0.379789
43672	-2.420792	-8.525439	1.676555	0.709609	-0.376878	0.460693	-0.377068
43673	-2.385109	-7.986032	1.388813	0.703721	-0.382570	0.467053	-0.374538
43674	-2.646038	-7.679467	1.278229	0.697105	-0.389222	0.473693	-0.371707
43675	-2.779583	-7.751816	1.144782	0.689792	-0.396581	0.480547	-0.368762
43676	-2.905116	-7.899915	0.753363	0.681890	-0.404055	0.487617	-0.366054
43677	-3.429299	-8.064745	0.495315	0.673088	-0.411809	0.495312	-0.363362
43678	-4.341688	-8.403253	0.478067	0.663793	-0.419687	0.503119	-0.360713
43679	-5.004435	-8.171501	0.295470	0.654147	-0.427625	0.511397	-0.357353
43680	-5.860286	-8.653097	0.194588	0.644129	-0.435444	0.520751	-0.352569
43681	-6.461675	-9.108575	0.440305	0.634397	-0.443000	0.530552	-0.346130
43682	-6.707564	-9.726468	1.263089	0.625316	-0.450135	0.540227	-0.338398
43683	-6.604046	-10.262539	2.184754	0.617529	-0.456348	0.548857	-0.330395
43684	-6.289529	-10.193745	2.890349	0.611465	-0.460895	0.556117	-0.323140
43685	-5.654746	-10.020089	2.743608	0.606775	-0.462938	0.562919	-0.317230
43686	-5.838918	-9.673360	2.219847	0.602421	-0.462298	0.570652	-0.312611
43687	-6.698833	-9.398803	1.725647	0.598407	-0.459607	0.579152	-0.308631
43688	-7.306646	-9.252472	1.575283	0.595135	-0.455291	0.587930	-0.304733
43689	-7.051882	-9.605033	1.680167	0.593232	-0.449486	0.596514	-0.300348
43690	-6.545010	-9.754103	1.825351	0.592633	-0.442177	0.604745	-0.295887
43691	-6.444475	-9.507232	1.888309	0.592838	-0.433782	0.612869	-0.291150
43692	-6.349390	-9.564729	2.070516	0.593621	-0.424682	0.620864	-0.285983
43693	-6.311244	-9.512168	2.207055	0.594801	-0.414675	0.628701	-0.281053
43694	-6.231653	-9.451622	2.325974	0.596260	-0.403380	0.636131	-0.277660
43695	-6.128031	-9.250339	2.176505	0.598401	-0.390166	0.643070	-0.275948
43696	-5.898935	-9.273386	1.414546	0.601122	-0.375949	0.649558	-0.274570
43697	-6.118880	-9.438998	0.768809	0.603999	-0.361719	0.655495	-0.273259
43698	-6.585172	-9.546458	0.455116	0.607595	-0.347447	0.660284	-0.272277
43699	-7.153856	-9.457437	0.629843	0.612549	-0.333418	0.663525	-0.270833
43700	-6.995503	-9.501807	0.755016	0.619004	-0.318997	0.665360	-0.269018
43701	-6.682022	-9.542776	1.063314	0.626246	-0.304569	0.666298	-0.266647
43702	-6.404717	-10.154719	1.423647	0.634253	-0.290842	0.665980	-0.263826
43703	-6.257720	-9.822934	1.842277	0.643531	-0.277710	0.663527	-0.261680
43704	-5.670869	-9.058643	1.700432	0.653821	-0.265058	0.659069	-0.260556
43705	-5.143734	-8.211430	1.607237	0.664621	-0.252308	0.653339	-0.260321
43706	-4.796411	-7.769993	1.772449	0.675708	-0.239662	0.646687	-0.260339
43707	-4.622240	-7.744494	2.049427	0.686861	-0.227287	0.639305	-0.260481
43708	-5.122414	-7.958303	2.253111	0.698308	-0.215741	0.630661	-0.260938
43709	-5.657041	-7.617689	2.206176	0.710417	-0.205140	0.620098	-0.262115
43710	-5.716956	-7.155168	1.953678	0.723030	-0.196383	0.607478	-0.263879
43711	-5.431620	-6.518120	1.700606	0.735642	-0.189984	0.593477	-0.265561
43712	-5.141604	-6.806262	1.752811	0.748044	-0.185664	0.578297	-0.267455
43713	-4.125810	-6.660963	1.468174	0.760023	-0.183066	0.562053	-0.270090
43714	-3.380475	-6.700006	1.323941	0.770535	-0.182085	0.546208	-0.273455
43715	-3.381778	-5.951594	1.402576	0.779857	-0.182282	0.530393	-0.277993
43716	-2.943806	-5.371945	1.489843	0.787644	-0.184408	0.515002	-0.283520
43717	-2.760828	-5.282620	1.666427	0.793500	-0.188481	0.500683	-0.290083
43718	-3.458441	-5.854666	2.197225	0.797516	-0.194382	0.487100	-0.298189
43719	-4.103756	-6.677483	2.583129	0.800782	-0.201384	0.472484	-0.308142
43720	-3.865147	-6.555751	2.705118	0.803177	-0.209884	0.457493	-0.318678
43721	-3.884088	-6.537382	2.942036	0.804256	-0.220529	0.443250	-0.328739
43722	-3.923278	-6.739202	3.421878	0.804410	-0.232674	0.429365	-0.338279
43723	-3.476868	-7.447486	3.693815	0.804014	-0.245117	0.415372	-0.347773
43724	-2.820503	-7.741246	3.758923	0.803115	-0.257599	0.400953	-0.357611
43725	-2.404025	-7.911570	3.819034	0.801145	-0.270464	0.387317	-0.367425
43726	-2.413592	-8.007518	3.910836	0.798205	-0.283196	0.374670	-0.377215
43727	-2.396398	-7.969684	3.822689	0.794281	-0.295766	0.363304	-0.386847
43728	-2.552561	-8.147575	3.707148	0.789264	-0.308409	0.353589	-0.396132
43729	-2.937830	-8.410457	3.627463	0.783456	-0.321024	0.344585	-0.405465
43730	-2.785731	-8.298347	3.164008	0.777042	-0.333582	0.335745	-0.414975
43731	-2.399332	-8.263944	2.620170	0.769858	-0.346546	0.327867	-0.423943
43732	-2.246167	-8.702039	2.494544	0.761995	-0.359706	0.321169	-0.432234
43733	-1.908439	-8.969605	2.684511	0.753582	-0.373457	0.315210	-0.439643
43734	-1.480994	-9.724387	2.368460	0.744502	-0.387174	0.310872	-0.446286
43735	-1.451551	-10.622337	2.234020	0.735038	-0.400361	0.307799	-0.452427
43736	-1.669574	-11.194600	2.052405	0.725158	-0.413094	0.305258	-0.458604
43737	-1.740258	-10.823468	2.065120	0.715223	-0.425249	0.303129	-0.464470
43738	-1.756191	-10.620255	2.372186	0.705474	-0.436588	0.301864	-0.469654
43739	-1.346968	-10.538952	2.648607	0.696100	-0.447211	0.301114	-0.474107
43740	-0.562249	-10.597030	2.501661	0.686753	-0.457045	0.301106	-0.478347
43741	-0.413404	-10.484147	2.166849	0.677459	-0.466139	0.301827	-0.482353
43742	-0.711334	-9.924355	1.898811	0.668100	-0.475318	0.302748	-0.485859
43743	-1.110446	-9.270400	1.935196	0.658885	-0.485197	0.303204	-0.488387
43744	-1.090017	-8.535577	2.378500	0.649170	-0.496245	0.303858	-0.489888
43745	-0.648330	-9.167534	2.761256	0.638672	-0.507726	0.305498	-0.490900
43746	-0.283242	-10.497321	3.037213	0.627976	-0.518353	0.307348	-0.492437
43747	-0.277957	-11.892446	2.785422	0.617286	-0.528118	0.308653	-0.494755
43748	-0.863103	-12.146567	2.396178	0.607236	-0.536696	0.308825	-0.497845
43749	-1.858609	-11.245391	1.958938	0.597791	-0.544427	0.308850	-0.500856
43750	-2.720508	-10.482954	1.434437	0.589285	-0.551741	0.309785	-0.502352
43751	-2.679785	-11.348122	1.238563	0.582213	-0.558209	0.311955	-0.502111
43752	-2.193064	-11.937569	1.114117	0.576409	-0.563666	0.315094	-0.500748
43753	-1.908113	-12.160758	1.398209	0.571904	-0.568289	0.318907	-0.498269
43754	-1.353256	-11.857600	1.626608	0.568890	-0.572452	0.322990	-0.494309
43755	-0.805415	-11.104200	1.817076	0.566637	-0.576034	0.328015	-0.489401
43756	-0.294847	-10.587869	2.142910	0.564572	-0.578741	0.334544	-0.484146
43757	-0.291894	-10.581829	1.886307	0.562659	-0.580473	0.342105	-0.478989
43758	-0.163155	-9.786251	1.853091	0.560743	-0.582155	0.350797	-0.472869
43759	0.355701	-10.052505	1.819079	0.558553	-0.583860	0.360989	-0.465632
43760	0.410654	-10.133868	1.884368	0.556141	-0.585013	0.372196	-0.458189
43761	0.340418	-10.232295	1.847691	0.553369	-0.585632	0.384183	-0.450801
43762	-0.427025	-10.240252	1.882406	0.550201	-0.585947	0.396764	-0.443310
43763	-0.682311	-10.618158	1.249209	0.547247	-0.586177	0.409219	-0.435266
43764	-0.998633	-10.573206	0.443324	0.544441	-0.585994	0.421747	-0.426994
43765	-1.480243	-10.586949	-0.424477	0.541577	-0.585407	0.434780	-0.418281
43766	-2.229534	-10.685746	-0.623316	0.538891	-0.584471	0.448411	-0.408555
43767	-2.730795	-11.296084	0.246066	0.536894	-0.583315	0.461968	-0.397585
43768	-2.440108	-11.023522	1.063256	0.536550	-0.581257	0.474586	-0.386035
43769	-2.125949	-10.473147	1.856041	0.537581	-0.578150	0.486692	-0.374004
43770	-1.691067	-10.137398	2.181220	0.539281	-0.573923	0.498857	-0.361844
43771	-1.818673	-10.305770	2.411459	0.540999	-0.568371	0.510841	-0.351165
43772	-2.158294	-10.666053	2.053553	0.542577	-0.561168	0.522415	-0.343197
43773	-2.861437	-11.162709	1.922006	0.544463	-0.551814	0.533670	-0.338020
43774	-3.566980	-11.156451	1.596220	0.547100	-0.540484	0.544488	-0.334801
43775	-4.141637	-11.093617	1.126395	0.549999	-0.527868	0.555559	-0.331979
43776	-4.610278	-11.174841	1.107419	0.553146	-0.514335	0.567157	-0.328361
43777	-4.407914	-11.886098	1.028570	0.556360	-0.499840	0.579463	-0.323799
43778	-4.305549	-12.344273	1.353292	0.560006	-0.483817	0.591780	-0.319546
43779	-4.701409	-11.966221	1.904822	0.564349	-0.466434	0.603496	-0.315820
43780	-4.808837	-11.519459	2.243051	0.569567	-0.448152	0.614263	-0.312143
43781	-4.372999	-11.040389	2.430398	0.576029	-0.429153	0.623796	-0.308053
43782	-3.326679	-10.775858	1.953154	0.583362	-0.409684	0.631910	-0.304200
43783	-3.094680	-9.994660	1.726909	0.590145	-0.389960	0.639113	-0.301984
43784	-3.855877	-9.314823	1.789801	0.597006	-0.370004	0.644724	-0.301681
43785	-4.023881	-8.537844	1.285577	0.604402	-0.349551	0.648830	-0.302542
43786	-4.209844	-8.934547	0.832548	0.611657	-0.329016	0.652229	-0.303680
43787	-4.268861	-8.777917	0.282450	0.618943	-0.308211	0.654738	-0.305341
43788	-4.730310	-8.358572	0.142704	0.625287	-0.287651	0.657336	-0.306892
43789	-5.779303	-8.226413	0.330497	0.631219	-0.266954	0.659529	-0.308738
43790	-5.892122	-8.248255	0.252436	0.637956	-0.246947	0.660081	-0.310359
43791	-5.170839	-8.181914	0.601475	0.645612	-0.228666	0.658771	-0.311316
43792	-4.245906	-7.983275	1.019233	0.653943	-0.212215	0.655798	-0.311854
43793	-4.075517	-7.468821	1.621977	0.662426	-0.196558	0.651399	-0.313428
43794	-4.536285	-6.857424	1.808621	0.671106	-0.181595	0.645717	-0.315737
43795	-5.097112	-6.587671	1.816754	0.680309	-0.167900	0.638466	-0.318355
43796	-5.127021	-6.794046	1.786217	0.689971	-0.155856	0.629548	-0.321432
43797	-4.912720	-7.047052	1.564998	0.699712	-0.145243	0.619352	-0.325133
43798	-4.687393	-7.154734	1.363552	0.709111	-0.135459	0.608333	-0.329764
43799	-4.941891	-6.949475	1.236181	0.717589	-0.126725	0.597393	-0.334854
43800	-5.580445	-6.860404	1.149673	0.725714	-0.119466	0.586089	-0.339952
43801	-5.504128	-6.479413	1.262021	0.733967	-0.114371	0.574065	-0.344473
43802	-5.185328	-6.472356	1.674127	0.742023	-0.111986	0.561657	-0.348428
43803	-4.901956	-6.320616	2.133936	0.749836	-0.111657	0.548698	-0.352432
43804	-4.825010	-6.364779	2.325381	0.757301	-0.113184	0.535229	-0.356672
43805	-4.732743	-6.315830	2.500510	0.764362	-0.116350	0.521195	-0.361344
43806	-4.611391	-6.279159	2.833439	0.770797	-0.120937	0.506978	-0.366360
43807	-4.489924	-6.500145	3.324004	0.776504	-0.126810	0.492689	-0.371777
43808	-4.483849	-6.683768	3.675322	0.781579	-0.133763	0.478270	-0.377491
43809	-4.500556	-6.763052	3.678067	0.786032	-0.142010	0.463911	-0.383110
43810	-4.286328	-6.806847	3.906289	0.789603	-0.151775	0.450177	-0.388371
43811	-4.025866	-7.165336	4.216069	0.792074	-0.162133	0.437455	-0.393655
43812	-3.834882	-7.258601	4.448036	0.793409	-0.172083	0.425973	-0.399295
43813	-4.008047	-7.372132	4.471889	0.793707	-0.181311	0.415730	-0.405369
43814	-4.187066	-7.159513	4.287504	0.793237	-0.190306	0.406127	-0.411849
43815	-3.953815	-6.631046	3.845072	0.792079	-0.199993	0.397027	-0.418311
43816	-3.765965	-6.245419	3.785154	0.790277	-0.210877	0.388708	-0.424144
43817	-3.416489	-6.443030	3.962744	0.787895	-0.222642	0.381540	-0.429045
43818	-3.191192	-7.111837	4.209851	0.784861	-0.234802	0.375435	-0.433486
43819	-2.993906	-7.667457	4.463429	0.781247	-0.246694	0.370057	-0.438010
43820	-3.096626	-7.872745	4.810443	0.777268	-0.258367	0.364995	-0.442582
43821	-3.171113	-7.805995	5.084290	0.773004	-0.269689	0.360360	-0.447072
43822	-3.376617	-7.957081	5.119483	0.768387	-0.280385	0.356613	-0.451434
43823	-3.640570	-8.277343	5.184035	0.763584	-0.290232	0.353369	-0.455890
43824	-3.688907	-8.510977	5.167708	0.758825	-0.299344	0.350490	-0.460145
43825	-3.547647	-8.887836	5.103257	0.753942	-0.307942	0.348970	-0.463641
43826	-3.792785	-9.460031	5.140370	0.748940	-0.316053	0.348733	-0.466461
43827	-4.012904	-9.493915	5.081181	0.743953	-0.323573	0.349589	-0.468638
43828	-4.213528	-9.424479	4.982542	0.738611	-0.330293	0.352495	-0.470221
43829	-4.639091	-9.911236	5.063170	0.733323	-0.335729	0.356787	-0.471409
43830	-4.717448	-9.449158	5.133774	0.728627	-0.338693	0.362004	-0.472591
43831	-4.818652	-8.608493	5.205742	0.724119	-0.339495	0.369485	-0.473154
43832	-5.223123	-8.534066	5.526451	0.719700	-0.338816	0.378904	-0.472935
43833	-5.307333	-8.810405	5.737397	0.715893	-0.336242	0.388051	-0.473133
43834	-4.969559	-6.954500	5.813953	0.712559	-0.331564	0.397875	-0.473309
43835	-5.673152	-5.700855	6.626633	0.709019	-0.326269	0.409901	-0.472039
43836	-5.772423	-6.506152	6.674135	0.705894	-0.320546	0.421742	-0.470210
43837	-5.261782	-5.516835	6.919096	0.703188	-0.312214	0.433487	-0.469188
43838	-6.004195	-4.077144	7.740838	0.700978	-0.301545	0.446193	-0.467560
43839	-6.594513	-2.323152	7.898292	0.699808	-0.289394	0.460301	-0.463295
43840	-7.593835	-1.701091	8.697257	0.701308	-0.275112	0.474429	-0.455410
43841	-8.192245	1.161938	10.783446	0.706031	-0.259585	0.488639	-0.442005
43842	-9.333662	1.445128	12.560592	0.712949	-0.248711	0.502565	-0.421040
43843	-8.690155	-1.208901	11.798458	0.720943	-0.241983	0.515368	-0.395071
43844	-9.246584	-4.807281	11.468416	0.731125	-0.232543	0.524005	-0.369863
43845	-8.439410	-7.474704	11.805278	0.746282	-0.217966	0.524412	-0.347197
43846	-6.838545	-7.350334	12.004834	0.765935	-0.198020	0.517613	-0.325897
43847	-5.729687	-6.269266	11.480175	0.786684	-0.175375	0.508160	-0.303554
43848	-5.015515	-6.062126	11.003603	0.805982	-0.153297	0.499574	-0.278062
43849	-4.434746	-6.783025	11.111858	0.821973	-0.133326	0.493354	-0.251368
43850	-4.422281	-6.691374	10.991454	0.833228	-0.116212	0.490433	-0.227381
43851	-4.599982	-9.534066	11.579059	0.841314	-0.102622	0.487654	-0.209410
43852	-4.836396	-10.333730	11.470206	0.849882	-0.087615	0.479836	-0.199455
43853	-4.194144	-8.770026	11.100735	0.859867	-0.069221	0.466259	-0.196062
43854	-4.564182	-6.298174	11.338296	0.870662	-0.047865	0.448989	-0.195103
43855	-4.917784	-4.385192	11.068529	0.881424	-0.025204	0.430167	-0.193425
43856	-4.914197	-1.170551	10.237235	0.891084	-0.005116	0.412361	-0.189478
43857	-5.162792	-0.536943	9.898588	0.899058	0.006840	0.398693	-0.180810
43858	-6.913054	-0.752313	9.755659	0.905888	0.011385	0.388507	-0.168225
43859	-9.077576	-1.844551	9.912672	0.912600	0.012256	0.378942	-0.153018
43860	-11.758597	-3.710507	10.288416	0.920167	0.016082	0.366211	-0.137565
43861	-13.576167	-4.269770	10.523674	0.928371	0.027324	0.349492	-0.123435
43862	-15.032431	-2.362536	10.063988	0.936338	0.043959	0.330285	-0.110679
43863	-16.819563	-0.787340	8.651324	0.944047	0.057600	0.310159	-0.096224
43864	-17.154539	-0.647767	7.409272	0.952016	0.063141	0.289339	-0.077214
43865	-15.782013	-2.271233	6.415376	0.959835	0.061200	0.268356	-0.054370
43866	-14.195814	-3.112545	5.934120	0.966434	0.057283	0.248427	-0.031748
43867	-13.368857	-4.095558	5.267013	0.971577	0.054107	0.230162	-0.011642
43868	-12.663536	-4.425132	4.542364	0.975487	0.052579	0.213626	0.005033
43869	-10.636491	-3.306152	4.040468	0.978605	0.049308	0.199000	0.017342
43870	-9.331952	-3.589659	3.943711	0.981174	0.044989	0.186169	0.024814
43871	-8.148687	-2.420676	4.748721	0.983460	0.042727	0.174013	0.026482
43872	-6.939168	-2.335347	5.942298	0.985270	0.046914	0.162733	0.023680
43873	-5.860954	-0.819504	6.498072	0.986545	0.059798	0.150980	0.018937
43874	-4.757877	1.070206	5.842707	0.987408	0.073953	0.138955	0.015733
43875	-4.212699	1.021343	5.215343	0.988137	0.081934	0.128825	0.016629
43876	-4.718139	-1.071451	4.794635	0.988877	0.082439	0.121914	0.021513
43877	-5.007275	-3.446548	4.795381	0.989594	0.078433	0.117471	0.027420
43878	-5.379372	-4.322718	4.840929	0.990479	0.071632	0.113487	0.030669
43879	-5.512191	-6.191251	5.470164	0.991491	0.064953	0.108758	0.029975
43880	-5.156016	-6.644488	6.120109	0.992493	0.060021	0.103431	0.025625
43881	-4.926394	-6.336745	6.350098	0.993459	0.054670	0.098518	0.018565
43882	-5.287649	-6.623146	6.266980	0.994422	0.046733	0.094077	0.009523
43883	-5.400095	-6.967841	6.507196	0.995291	0.036857	0.089638	-0.001681
43884	-5.720955	-7.314864	6.924320	0.995849	0.028762	0.084979	-0.015358
43885	-5.796616	-6.907377	7.327384	0.996022	0.023507	0.079989	-0.031449
43886	-5.335993	-6.532105	7.704885	0.995717	0.020967	0.075651	-0.048830
43887	-5.655892	-5.976513	7.973154	0.994935	0.019481	0.072675	-0.066663
43888	-6.509077	-5.704591	8.437030	0.993680	0.018155	0.070976	-0.085046
43889	-7.106658	-5.427751	8.905657	0.991929	0.017156	0.069719	-0.104506
43890	-7.401140	-4.603900	9.457767	0.989640	0.016017	0.067985	-0.125432
43891	-7.270812	-3.767455	9.767622	0.986645	0.013776	0.065647	-0.148434
43892	-7.447283	-4.052174	9.655137	0.982890	0.011482	0.063122	-0.172659
43893	-7.816268	-3.633227	9.251024	0.978419	0.010159	0.059937	-0.197484
43894	-8.128046	-2.628247	8.571857	0.973280	0.008371	0.055868	-0.222562
43895	-7.969996	-1.696550	8.491755	0.967284	0.005637	0.051333	-0.248386
43896	-7.421035	-0.912327	8.502146	0.960423	0.002393	0.048039	-0.274361
43897	-6.605205	-0.078793	9.100263	0.952617	-0.001205	0.046735	-0.300558
43898	-6.607082	0.239160	9.321477	0.943987	-0.004060	0.045564	-0.326797
43899	-6.669884	1.329613	9.133378	0.934665	-0.007249	0.042378	-0.352920
43900	-6.195024	2.320494	8.433168	0.924552	-0.012511	0.037628	-0.378986
43901	-5.404838	2.161211	7.709313	0.913999	-0.019129	0.032643	-0.403948
43902	-4.444545	1.632279	7.081049	0.903543	-0.025648	0.029219	-0.426729
43903	-3.149571	1.191463	7.104163	0.893513	-0.031396	0.029739	-0.446949
43904	-3.206355	0.455068	7.977373	0.883835	-0.035968	0.033864	-0.465183
43905	-3.174054	0.125805	9.085500	0.873976	-0.038784	0.039213	-0.482829
43906	-3.244374	-0.104668	10.186417	0.863480	-0.039666	0.044254	-0.500870
43907	-3.108413	-0.061652	11.004818	0.852507	-0.038329	0.047817	-0.519111
43908	-3.230077	0.336969	11.454331	0.841423	-0.036004	0.049674	-0.536883
43909	-3.203719	0.653458	11.181539	0.830685	-0.034798	0.049038	-0.553487
43910	-2.629711	0.978593	10.355381	0.820218	-0.036752	0.047349	-0.568902
43911	-1.972071	0.437941	9.643805	0.810221	-0.040898	0.046211	-0.582868
43912	-1.638794	-0.783684	9.073477	0.800608	-0.045457	0.046626	-0.595640
43913	-1.805928	-1.806174	8.986274	0.791159	-0.048756	0.047900	-0.607779
43914	-1.842019	-2.411679	8.917489	0.780997	-0.050959	0.049045	-0.620517
43915	-2.337345	-2.619101	8.958117	0.769983	-0.053051	0.049143	-0.633953
43916	-2.681142	-2.399962	9.011491	0.758085	-0.055241	0.047720	-0.648058
43917	-2.719438	-1.689079	8.920355	0.745452	-0.058046	0.045422	-0.662472
43918	-2.543699	-1.202587	8.699116	0.732171	-0.061652	0.043973	-0.676898
43919	-2.582789	-1.068969	8.579637	0.718497	-0.065895	0.044352	-0.690980
43920	-2.466587	-1.506613	8.989394	0.704702	-0.069857	0.046430	-0.704528
43921	-2.655850	-1.613735	10.434228	0.690876	-0.071990	0.048455	-0.717746
43922	-3.227638	-1.760342	11.304320	0.677186	-0.071800	0.048764	-0.730675
43923	-3.423915	-1.109718	11.784965	0.663443	-0.070696	0.047829	-0.743343
43924	-4.297844	-0.722841	11.984972	0.649669	-0.070414	0.047331	-0.755468
43925	-4.430085	-0.681586	12.265471	0.635963	-0.071475	0.049499	-0.766806
43926	-4.537481	-1.674856	13.513907	0.622572	-0.071587	0.054342	-0.777384
43927	-4.535917	-2.644415	14.836486	0.609535	-0.068587	0.058454	-0.787621
43928	-5.469988	-2.926103	14.939857	0.597178	-0.064520	0.058802	-0.797344
43929	-6.137330	-2.459061	13.808293	0.585066	-0.064258	0.055943	-0.806498
43930	-5.100428	-2.881275	12.409860	0.572431	-0.068421	0.053119	-0.815365
43931	-4.687669	-3.711098	11.337266	0.559152	-0.074584	0.051096	-0.824121
43932	-4.197131	-4.234158	10.315809	0.545256	-0.080683	0.050671	-0.832838
43933	-3.966035	-5.069563	9.662184	0.530363	-0.085960	0.052535	-0.841764
43934	-4.342503	-5.320629	9.415236	0.513976	-0.090353	0.055075	-0.851253
43935	-4.552576	-5.319235	9.267386	0.495933	-0.094124	0.056830	-0.861372
43936	-4.831449	-5.185415	8.892962	0.477002	-0.098062	0.056829	-0.871564
43937	-4.998316	-4.719512	8.595108	0.457400	-0.103091	0.056365	-0.881465
43938	-4.556746	-4.231472	8.055815	0.436641	-0.109157	0.056874	-0.891176
43939	-4.443348	-4.349585	7.459369	0.414386	-0.115392	0.059571	-0.900789
43940	-4.105753	-4.003119	7.756762	0.390363	-0.119733	0.062695	-0.910687
43941	-4.200574	-3.421000	8.119538	0.365253	-0.121317	0.064274	-0.920728
43942	-4.467519	-2.389170	8.653874	0.340805	-0.121441	0.064379	-0.930032
43943	-4.370318	-1.687983	8.791922	0.317732	-0.122470	0.065401	-0.937961
43944	-3.952411	-1.936953	8.618757	0.295693	-0.125179	0.069619	-0.944483
43945	-3.742897	-3.701574	8.631575	0.274060	-0.128759	0.075688	-0.950044
43946	-3.434944	-5.091557	8.633311	0.252877	-0.131336	0.080352	-0.955169
43947	-3.528832	-5.511003	8.389047	0.231969	-0.132330	0.082429	-0.960148
43948	-3.439885	-5.041457	8.442203	0.210933	-0.132371	0.083906	-0.964855
43949	-3.297836	-4.737666	8.507741	0.189580	-0.132022	0.086439	-0.969102
43950	-3.312523	-4.757050	8.528053	0.168005	-0.132136	0.090889	-0.972653
43951	-3.485288	-5.937626	8.740208	0.146349	-0.132676	0.096355	-0.975549
43952	-3.830616	-6.745695	8.621655	0.124467	-0.133306	0.101974	-0.977926
43953	-4.184719	-7.573177	8.491637	0.101595	-0.134092	0.106515	-0.979976
43954	-4.088315	-7.213186	8.187590	0.076786	-0.135425	0.110631	-0.981593
43955	-3.448947	-7.048223	8.053226	0.050042	-0.136147	0.115180	-0.982697
43956	-3.034455	-6.471796	7.984096	0.021842	-0.135191	0.120538	-0.983218
43957	-3.355565	-5.892528	8.409682	-0.007623	-0.132541	0.125814	-0.983131
43958	-3.849663	-4.890536	8.666473	-0.038063	-0.128742	0.130480	-0.982320
43959	-4.209246	-4.404198	9.122588	-0.068466	-0.123940	0.133728	-0.980851
43960	-4.388229	-3.521653	9.281724	-0.098090	-0.118924	0.134662	-0.978827
43961	-4.292211	-2.640176	9.343492	-0.127302	-0.114660	0.135060	-0.975913
43962	-3.622573	-2.136669	9.084448	-0.156398	-0.110776	0.136806	-0.971881
43963	-2.862767	-2.231742	8.777524	-0.184591	-0.105899	0.140192	-0.966984
43964	-2.484074	-2.521036	8.916154	-0.211534	-0.099185	0.143924	-0.961614
43965	-2.538497	-3.088392	9.442044	-0.236821	-0.091118	0.145789	-0.956221
43966	-2.570031	-2.992173	10.074687	-0.261103	-0.082189	0.146032	-0.950655
43967	-2.811615	-3.387610	10.893344	-0.285016	-0.073139	0.145237	-0.944628
43968	-3.111368	-3.194694	11.606273	-0.308803	-0.064737	0.143284	-0.938040
43969	-3.152047	-3.255757	11.828165	-0.331942	-0.057288	0.140846	-0.930964
43970	-3.320890	-3.373254	12.284487	-0.353827	-0.051287	0.137522	-0.923723
43971	-3.345633	-2.988049	11.736772	-0.374476	-0.047389	0.133995	-0.916279
43972	-3.178437	-2.164150	10.669951	-0.394671	-0.043829	0.133171	-0.908063
43973	-3.113541	-2.253951	9.454999	-0.415213	-0.039261	0.136273	-0.898602
43974	-3.175494	-2.061841	8.402720	-0.436498	-0.033934	0.142002	-0.887780
43975	-2.754651	-2.688183	7.555505	-0.458087	-0.028737	0.146781	-0.876234
43976	-3.389385	-3.154090	6.627336	-0.478739	-0.025242	0.145095	-0.865517
43977	-2.868295	-0.840211	5.519016	-0.498503	-0.022961	0.138124	-0.855505
43978	-2.805328	0.745390	5.869004	-0.517908	-0.017630	0.130251	-0.845278
43979	-3.050923	1.381244	6.761828	-0.536315	-0.008336	0.122678	-0.835013
43980	-3.401399	0.637904	7.750631	-0.552921	0.002647	0.113315	-0.825488
43981	-3.637730	0.554576	8.186593	-0.566371	0.011823	0.099479	-0.818039
43982	-3.167947	1.788821	7.757793	-0.576355	0.019416	0.082712	-0.812771
43983	-3.328145	3.024420	7.605262	-0.583564	0.028152	0.065272	-0.808950
43984	-3.980111	3.208100	7.615087	-0.589345	0.040445	0.047438	-0.805473
43985	-4.823674	2.858358	7.990169	-0.593647	0.055652	0.030510	-0.802219
43986	-5.487541	1.549422	7.752931	-0.595947	0.072451	0.013555	-0.799634
43987	-4.905677	0.506427	7.381339	-0.595713	0.089305	-0.006254	-0.798193
43988	-4.890368	0.293343	7.045903	-0.592619	0.106736	-0.031467	-0.797759
43989	-6.569851	1.159645	7.747179	-0.588048	0.123530	-0.060243	-0.797064
43990	-8.263300	3.064471	8.353022	-0.583694	0.141751	-0.086399	-0.794822
43991	-9.830387	1.889561	9.781139	-0.581573	0.158381	-0.104305	-0.791081
43992	-9.863423	1.334128	10.221710	-0.582643	0.170123	-0.118529	-0.785835
43993	-9.904903	1.044081	10.150440	-0.586168	0.176538	-0.132589	-0.779526
43994	-9.318181	1.716286	9.384268	-0.589884	0.179765	-0.147438	-0.773294
43995	-8.380460	2.459177	8.854353	-0.592539	0.184215	-0.162718	-0.767128
43996	-9.076877	2.965367	10.011434	-0.594689	0.192233	-0.175457	-0.760662
43997	-9.655177	2.190506	10.859945	-0.597339	0.201626	-0.184846	-0.753900
43998	-9.972671	1.484940	10.780214	-0.600203	0.209092	-0.192040	-0.747768
43999	-9.638411	0.885818	10.522967	-0.602963	0.213386	-0.199304	-0.742415
44000	-9.674488	0.802136	9.737272	-0.605442	0.213744	-0.209241	-0.737544
44001	-8.568135	1.946981	8.169355	-0.607714	0.212601	-0.221194	-0.732501
44002	-8.555518	3.487693	7.883410	-0.610074	0.214208	-0.231521	-0.726858
44003	-9.000774	3.648314	8.150556	-0.612831	0.220132	-0.237492	-0.720817
44004	-9.479783	3.184844	8.608613	-0.615647	0.226574	-0.241239	-0.715155
44005	-9.540920	2.682534	8.587380	-0.618408	0.229994	-0.244628	-0.710516
44006	-9.137196	2.994243	8.251012	-0.621203	0.229881	-0.248944	-0.706604
44007	-8.554867	3.523672	7.530633	-0.624060	0.227326	-0.254584	-0.702893
44008	-7.749361	4.102308	6.601962	-0.626876	0.224852	-0.260166	-0.699129
44009	-7.180239	3.856333	5.894984	-0.629644	0.224943	-0.263409	-0.695389
44010	-7.170255	3.681422	5.965497	-0.632772	0.227010	-0.263570	-0.691807
44011	-7.478650	3.121620	6.392931	-0.636579	0.228963	-0.261100	-0.688601
44012	-6.852904	2.941430	6.346496	-0.641081	0.228909	-0.256128	-0.686305
44013	-6.478349	2.580889	6.363097	-0.646676	0.225734	-0.249394	-0.684585
44014	-5.904068	2.089004	6.222364	-0.653472	0.220838	-0.241282	-0.682633
44015	-5.661914	1.562990	5.841075	-0.660606	0.216618	-0.233078	-0.679964
44016	-5.479228	1.217386	6.178884	-0.667491	0.214398	-0.224891	-0.676693
44017	-5.489730	0.907714	7.308067	-0.674607	0.213807	-0.216207	-0.672642
44018	-5.705444	1.325891	8.452844	-0.683422	0.212382	-0.204879	-0.667723
44019	-5.660089	1.824254	8.555153	-0.693760	0.209668	-0.188823	-0.662633
44020	-5.131774	2.679838	8.029308	-0.704729	0.208614	-0.166289	-0.657408
44021	-3.971827	1.936346	7.350658	-0.714693	0.214066	-0.138902	-0.651226
44022	-2.645705	1.539127	7.430419	-0.722573	0.227554	-0.111387	-0.643196
44023	-2.557181	-0.750425	8.420351	-0.728126	0.245815	-0.088402	-0.633713
44024	-3.389317	-2.423068	9.920772	-0.732821	0.260825	-0.074046	-0.624068
44025	-4.141807	-2.339859	10.375172	-0.737855	0.268698	-0.067214	-0.615511
44026	-4.432540	-1.127762	10.129642	-0.743100	0.272200	-0.062002	-0.608165
44027	-4.052135	0.106375	9.599686	-0.747678	0.276664	-0.053344	-0.601322
44028	-3.492739	-0.324763	8.861267	-0.750474	0.285452	-0.040668	-0.594686
44029	-3.269583	-1.914187	8.209345	-0.750917	0.297757	-0.025971	-0.588889
44030	-3.021926	-3.515866	7.756265	-0.749604	0.310480	-0.012423	-0.584415
44031	-2.814006	-5.233630	7.963334	-0.747968	0.321712	-0.000963	-0.580556
44032	-2.748815	-6.571029	7.988206	-0.747456	0.330113	0.008739	-0.576419
44033	-2.956023	-7.548445	7.732588	-0.748627	0.333845	0.016967	-0.572554
44034	-3.175800	-7.984072	7.198832	-0.751568	0.333413	0.025328	-0.568630
44035	-3.786669	-7.588765	6.334857	-0.756452	0.328845	0.034300	-0.564327
44036	-4.439723	-6.989363	5.680143	-0.762422	0.320770	0.044234	-0.560234
44037	-5.283861	-6.840674	5.545311	-0.768024	0.311615	0.058072	-0.556474
44038	-4.619909	-8.198524	3.270912	-0.773946	0.301747	0.072686	-0.551972
44039	-2.394498	-10.232373	-1.199272	-0.783523	0.291868	0.074153	-0.543513
44040	-3.566909	-11.235168	-4.066779	-0.798302	0.282842	0.053401	-0.529021
44041	-7.366653	-9.167627	-5.398260	-0.814089	0.278416	0.012735	-0.509491
44042	-11.816202	-7.945375	-7.808745	-0.826370	0.284516	-0.039358	-0.484370
44043	-15.050207	-9.748753	-6.183362	-0.835541	0.300144	-0.086238	-0.452049
44044	-15.099088	-11.725015	-3.480319	-0.845856	0.320689	-0.118173	-0.409538
44045	-14.028719	-12.104957	0.268918	-0.856508	0.345743	-0.138000	-0.357507
44046	-12.708119	-10.443750	2.628451	-0.863386	0.375523	-0.149488	-0.301995
44047	-9.576875	-9.842387	2.337077	-0.864015	0.412043	-0.155721	-0.243824
44048	-9.957289	-8.444923	2.256839	-0.857678	0.455451	-0.156168	-0.180456
44049	-9.922059	-8.077675	1.954388	-0.841364	0.505981	-0.147816	-0.119332
44050	-8.275014	-11.529683	1.811441	-0.811976	0.562864	-0.140396	-0.064559
44051	-7.602178	-18.855188	2.332575	-0.777302	0.611938	-0.145509	-0.012665
44052	-9.181888	-23.683755	3.477001	-0.748628	0.640965	-0.164266	0.041666
44053	-11.830179	-22.197903	4.981123	-0.730310	0.649554	-0.186164	0.100350
44054	-12.970898	-15.191814	5.756776	-0.715133	0.649163	-0.206088	0.157162
44055	-11.731262	-10.887549	5.361120	-0.691092	0.654528	-0.228179	0.204742
44056	-11.738639	-12.930862	5.385038	-0.655956	0.667508	-0.253568	0.244657
44057	-12.152760	-16.375786	5.120192	-0.619904	0.678261	-0.279026	0.278973
44058	-11.634383	-17.495315	5.172642	-0.592248	0.679249	-0.301842	0.311053
44059	-11.289591	-14.913672	5.298540	-0.575999	0.670152	-0.318783	0.342782
44060	-9.417132	-10.083222	4.759678	-0.565754	0.657488	-0.330758	0.371793
44061	-7.053963	-7.023757	4.836526	-0.553911	0.647182	-0.341408	0.397213
44062	-6.912363	-5.675880	5.080903	-0.540315	0.641242	-0.351513	0.416301
44063	-6.083762	-6.660154	5.146796	-0.528892	0.638345	-0.359575	0.428363
44064	-4.778075	-7.659872	4.700109	-0.523015	0.634867	-0.364362	0.436623
44065	-3.683213	-7.333482	4.276930	-0.522878	0.629043	-0.365621	0.444099
44066	-2.545279	-5.676127	3.269834	-0.525835	0.622848	-0.364171	0.450486
44067	-1.195448	-4.754145	2.179456	-0.526279	0.619897	-0.364070	0.454105
44068	-0.702080	-6.035177	1.431653	-0.524184	0.620120	-0.365775	0.454852
44069	0.000987	-7.595029	1.034805	-0.522430	0.621718	-0.365789	0.454679
44070	0.874124	-7.427756	0.534647	-0.522496	0.622720	-0.364017	0.454653
44071	1.665124	-7.236765	0.427132	-0.524050	0.622180	-0.363328	0.454156
44072	1.891778	-7.513888	0.428952	-0.526293	0.620428	-0.363963	0.453448
44073	1.998608	-8.212975	0.339300	-0.528021	0.619407	-0.364528	0.452380
44074	2.096429	-8.073647	-0.034241	-0.529110	0.619859	-0.364195	0.450754
44075	2.520624	-8.392254	-0.572433	-0.528721	0.621782	-0.364536	0.448280
44076	2.276533	-9.086654	-0.706170	-0.527616	0.624017	-0.365827	0.445415
44077	2.201068	-9.739552	-0.646955	-0.527466	0.625379	-0.367333	0.442434
44078	2.015911	-9.944580	-0.559285	-0.528365	0.625683	-0.368731	0.439760
44079	1.887380	-10.225218	-0.367862	-0.529856	0.625579	-0.369159	0.437750
44080	1.872988	-9.946227	-0.355849	-0.530918	0.625689	-0.369095	0.436357
44081	1.961282	-10.112622	-0.227781	-0.531589	0.626046	-0.369506	0.434677
44082	1.718613	-10.507716	-0.119844	-0.533044	0.625869	-0.369769	0.432925
44083	1.565992	-10.046653	-0.218019	-0.534976	0.625587	-0.369537	0.431143
44084	1.403024	-9.827211	-0.207991	-0.536321	0.625968	-0.369107	0.429282
44085	1.314840	-9.725085	-0.271048	-0.537385	0.626432	-0.368968	0.427391
44086	1.414409	-9.633490	-0.353615	-0.538833	0.626451	-0.369236	0.425303
44087	1.643829	-9.515703	-0.506125	-0.540578	0.626227	-0.369822	0.422903
44088	1.571255	-9.605037	-0.656111	-0.542436	0.625770	-0.370797	0.420338
44089	1.309265	-9.548068	-0.642316	-0.544018	0.625215	-0.371561	0.418442
44090	1.132905	-9.499348	-0.486511	-0.544557	0.625334	-0.372087	0.417092
44091	0.954734	-9.738551	-0.342535	-0.544807	0.625902	-0.372517	0.415528
44092	1.070314	-10.059766	-0.405570	-0.546060	0.625732	-0.372592	0.414070
44093	1.263439	-9.275594	-0.417584	-0.548159	0.624652	-0.372176	0.413300
44094	1.016028	-8.557076	-0.118300	-0.550484	0.623488	-0.371567	0.412514
44095	1.129019	-8.162525	0.199903	-0.553833	0.621893	-0.370280	0.411596
44096	1.191138	-8.038917	0.638115	-0.558805	0.618797	-0.367944	0.411637
44097	0.950324	-7.966981	1.305981	-0.567470	0.612399	-0.363296	0.413474
44098	0.893390	-7.524720	1.977897	-0.581874	0.600791	-0.354522	0.418074
44099	0.854414	-6.518581	2.422448	-0.603749	0.581925	-0.339694	0.425980
44100	0.466143	-3.918047	2.241633	-0.633456	0.555012	-0.317529	0.435741
44101	0.387468	-0.510815	1.468994	-0.668011	0.522297	-0.290314	0.443492
44102	0.747687	2.214112	0.738175	-0.703011	0.487955	-0.262488	0.445843
44103	1.157508	3.770013	0.513125	-0.735531	0.455659	-0.237239	0.441685
44104	1.303121	4.755936	0.282347	-0.763964	0.428050	-0.216673	0.431492
44105	0.919158	4.815803	0.200185	-0.787917	0.407187	-0.200971	0.415928
44106	-0.316923	4.746173	-0.142185	-0.807626	0.394184	-0.189672	0.395453
44107	-1.290427	4.268562	-0.899839	-0.823405	0.389656	-0.182688	0.369861
44108	-2.724449	2.041426	-1.641373	-0.836251	0.392302	-0.179316	0.338570
44109	-3.683298	-0.147015	-1.915052	-0.847426	0.398655	-0.178010	0.302086
44110	-4.922735	-2.851749	-2.347132	-0.857929	0.404941	-0.178936	0.260697
44111	-5.652930	-3.746372	-2.541511	-0.867554	0.408613	-0.182866	0.216669
44112	-8.601059	-7.172785	-2.670166	-0.875919	0.408403	-0.192785	0.169724
44113	-11.072209	-9.267987	-2.592167	-0.885148	0.397971	-0.208781	0.120595
44114	-13.741134	-10.172952	-1.797918	-0.893890	0.375476	-0.233433	0.074075
44115	-17.089157	-7.317784	-1.029281	-0.899115	0.344013	-0.269059	0.029227
44116	-19.836596	-2.830088	-0.286637	-0.894559	0.315198	-0.316599	-0.013376
44117	-24.521944	0.747334	1.028229	-0.875967	0.298904	-0.374519	-0.055437
44118	-30.012330	1.662779	2.184696	-0.841703	0.298615	-0.438692	-0.099577
44119	-34.085493	-2.609569	3.262276	-0.793555	0.306586	-0.504996	-0.145790
44120	-35.009099	-9.455855	4.702521	-0.736501	0.307817	-0.572242	-0.188027
44121	-34.727460	-17.333583	5.585326	-0.678705	0.289263	-0.640314	-0.213739
44122	-44.427738	-17.710442	27.530602	-0.643133	0.255285	-0.684154	-0.230526
44123	-43.052506	-14.546867	42.524427	-0.651156	0.311443	-0.623976	-0.299422
44124	-14.636890	-35.011027	3.263706	-0.665545	0.370589	-0.548510	-0.344747
44125	-4.839146	-14.288644	3.754279	-0.679714	0.402835	-0.494124	-0.362703
44126	-8.299204	-9.213050	-0.350801	-0.695834	0.413354	-0.463087	-0.361254
44127	-4.918899	-10.077345	0.005511	-0.711130	0.412698	-0.455585	-0.341199
44128	-2.920499	-7.498659	-0.446649	-0.723700	0.399458	-0.471163	-0.307729
44129	-3.782293	-3.189914	-0.077063	-0.728653	0.386876	-0.498059	-0.267074
44130	-6.945856	-2.370903	0.336849	-0.728616	0.375952	-0.528608	-0.219892
44131	-9.662858	-1.543392	0.700021	-0.728731	0.363019	-0.555229	-0.169967
44132	-9.651903	-0.549717	0.728867	-0.730839	0.347175	-0.574433	-0.123977
44133	-8.741540	0.793178	0.926375	-0.734440	0.329749	-0.586813	-0.086688
44134	-7.834101	1.281386	1.326559	-0.738497	0.311717	-0.594779	-0.060765
44135	-7.627067	0.917127	1.710413	-0.742367	0.293463	-0.600507	-0.046509
44136	-7.861576	0.070337	1.813029	-0.745857	0.275388	-0.605037	-0.042305
44137	-8.240221	-1.177569	1.825626	-0.748769	0.258400	-0.608717	-0.045144
44138	-8.926404	-2.332078	1.826239	-0.751649	0.242036	-0.611384	-0.051492
44139	-9.625867	-3.241895	1.761551	-0.755040	0.225704	-0.612808	-0.058648
44140	-10.540293	-4.051262	1.542913	-0.759620	0.208453	-0.612615	-0.065024
44141	-11.424456	-4.509029	1.144511	-0.765760	0.189457	-0.610545	-0.070366
44142	-11.937611	-4.539706	0.767585	-0.773220	0.169192	-0.606433	-0.075791
44143	-12.091917	-4.355314	0.333828	-0.781413	0.149436	-0.600186	-0.082696
44144	-12.009554	-4.112057	0.007015	-0.789669	0.132673	-0.591910	-0.091997
44145	-11.812659	-3.849609	-0.217227	-0.797363	0.121189	-0.582023	-0.103799
44146	-11.268747	-3.705810	-0.450661	-0.804102	0.116607	-0.571004	-0.117376
44147	-10.401205	-3.832760	-0.665896	-0.809313	0.119573	-0.559872	-0.131370
44148	-9.543009	-4.123011	-0.738458	-0.812525	0.129273	-0.549871	-0.143989
44149	-8.870106	-4.482306	-0.659878	-0.813534	0.143474	-0.542237	-0.153484
44150	-8.497510	-4.817993	-0.412724	-0.812578	0.159366	-0.537741	-0.158602
44151	-8.580491	-4.789984	-0.140804	-0.810358	0.174270	-0.536338	-0.159033
44152	-9.006175	-4.467066	0.183821	-0.807603	0.186963	-0.537365	-0.155115
44153	-9.452769	-4.160929	0.449133	-0.805060	0.196561	-0.539803	-0.147834
44154	-9.714093	-3.788466	0.643616	-0.803188	0.202770	-0.542809	-0.138318
44155	-9.778688	-3.180528	0.665587	-0.802171	0.205905	-0.545657	-0.127998
44156	-9.684986	-2.690259	0.739946	-0.801735	0.207049	-0.548022	-0.118419
44157	-9.473223	-2.468987	0.766704	-0.801418	0.207328	-0.550021	-0.110548
44158	-9.304630	-2.417210	0.745266	-0.800807	0.207971	-0.551828	-0.104602
44159	-9.055200	-2.621276	0.752877	-0.799454	0.210022	-0.553796	-0.100370
44160	-8.791673	-3.060895	0.826920	-0.797070	0.213550	-0.556466	-0.097061
44161	-8.818311	-3.338597	0.918020	-0.793746	0.218316	-0.559955	-0.093573
44162	-8.929786	-3.754297	1.094856	-0.789761	0.223663	-0.564256	-0.088700
44163	-9.252657	-4.128279	1.386401	-0.785562	0.228259	-0.569346	-0.081459
44164	-9.671333	-4.195370	1.664053	-0.781681	0.230802	-0.574995	-0.071317
44165	-9.942946	-3.972930	1.876979	-0.778333	0.230954	-0.580920	-0.058215
44166	-10.113115	-3.650952	1.976613	-0.775481	0.228936	-0.586853	-0.042683
44167	-10.031919	-3.327838	2.087608	-0.773064	0.225079	-0.592503	-0.025544
44168	-9.842237	-3.017752	2.170205	-0.770733	0.220157	-0.597868	-0.007458
44169	-9.762413	-2.703834	2.208612	-0.768269	0.214904	-0.602872	0.011100
44170	-9.657874	-2.459276	2.262574	-0.765452	0.209919	-0.607571	0.029594
44171	-9.596933	-2.219014	2.346544	-0.762207	0.205523	-0.611985	0.047696
44172	-9.584851	-2.106306	2.417820	-0.758562	0.201722	-0.616150	0.065199
44173	-9.599049	-1.970096	2.506299	-0.754674	0.198377	-0.619984	0.082051
44174	-9.565600	-1.797439	2.509573	-0.750720	0.195460	-0.623370	0.098104
44175	-9.466699	-1.649722	2.491505	-0.746857	0.192864	-0.626269	0.113117
44176	-9.340467	-1.578856	2.472005	-0.743270	0.190414	-0.628655	0.126825
44177	-9.184144	-1.524479	2.431626	-0.740156	0.187854	-0.630523	0.138999
44178	-9.083282	-1.511520	2.403432	-0.737578	0.185124	-0.631939	0.149536
44179	-8.972875	-1.546509	2.351310	-0.735644	0.182068	-0.632899	0.158486
44180	-8.969895	-1.634809	2.295524	-0.734360	0.178652	-0.633469	0.165877
44181	-8.986493	-1.769446	2.243592	-0.733721	0.174819	-0.633673	0.171902
44182	-9.012032	-1.910055	2.182977	-0.733613	0.170650	-0.633582	0.176817
44183	-9.130242	-2.031704	2.169422	-0.734008	0.166145	-0.633215	0.180739
44184	-9.289554	-2.130057	2.114385	-0.734951	0.161401	-0.632509	0.183654
44185	-9.439806	-2.149745	2.033908	-0.736315	0.156720	-0.631582	0.185425
44186	-9.582728	-2.193261	1.913650	-0.738032	0.152465	-0.630471	0.185930
44187	-9.646390	-2.278477	1.782112	-0.739921	0.148988	-0.629341	0.185065
44188	-9.653990	-2.476960	1.627274	-0.741872	0.146404	-0.628291	0.182873
44189	-9.619642	-2.723880	1.496586	-0.743764	0.144640	-0.627391	0.179650
44190	-9.564033	-2.994093	1.420057	-0.745509	0.143520	-0.626649	0.175867
44191	-9.524913	-3.160870	1.372870	-0.747093	0.142810	-0.625987	0.172041
44192	-9.489916	-3.302652	1.323780	-0.748497	0.142372	-0.625360	0.168545
44193	-9.494779	-3.312165	1.275575	-0.749689	0.142032	-0.624780	0.165658
44194	-9.492184	-3.212426	1.243725	-0.750745	0.141738	-0.624214	0.163247
44195	-9.505687	-3.080785	1.226545	-0.751703	0.141430	-0.623699	0.161056
44196	-9.443435	-2.977468	1.208700	-0.752603	0.141053	-0.623287	0.158764
44197	-9.334344	-2.956063	1.207602	-0.753412	0.140543	-0.623060	0.156250
44198	-9.195103	-2.980150	1.191298	-0.754101	0.139810	-0.623076	0.153497
44199	-9.104866	-3.014190	1.218110	-0.754618	0.138787	-0.623373	0.150653
44200	-9.029127	-3.074089	1.203252	-0.755046	0.137493	-0.623847	0.147702
44201	-8.915137	-3.127211	1.233339	-0.755380	0.135907	-0.624499	0.144673
44202	-8.791072	-3.194639	1.298932	-0.755641	0.134017	-0.625289	0.141636
44203	-8.726181	-3.276680	1.318230	-0.755823	0.131814	-0.626204	0.138654
44204	-8.740436	-3.309874	1.376672	-0.755929	0.129342	-0.627227	0.135751
44205	-8.772602	-3.349286	1.452055	-0.755993	0.126639	-0.628307	0.132917
44206	-8.852469	-3.408100	1.548582	-0.756043	0.123734	-0.629414	0.130102
44207	-8.948949	-3.468214	1.630772	-0.756092	0.120638	-0.630526	0.127313
44208	-9.105962	-3.472316	1.721979	-0.756142	0.117451	-0.631622	0.124531
44209	-9.260530	-3.461390	1.762073	-0.756228	0.114408	-0.632651	0.121589
44210	-9.311586	-3.444321	1.789695	-0.756356	0.111769	-0.633596	0.118275
44211	-9.323005	-3.571002	1.777460	-0.756472	0.109624	-0.634522	0.114522
44212	-9.278107	-3.704551	1.765447	-0.756519	0.108060	-0.635452	0.110468
44213	-9.286900	-3.792342	1.711417	-0.756490	0.107175	-0.636349	0.106290
44214	-9.324299	-3.873633	1.692973	-0.756382	0.107084	-0.637153	0.102251
44215	-9.340792	-3.912556	1.699520	-0.756217	0.107587	-0.637852	0.098519
44216	-9.295174	-3.991706	1.686842	-0.756008	0.108360	-0.638450	0.095344
44217	-9.285541	-3.977388	1.732387	-0.755818	0.108953	-0.638953	0.092774
44218	-9.217980	-3.852624	1.774816	-0.755646	0.109446	-0.639363	0.090754
44219	-9.197062	-3.664485	1.778983	-0.755445	0.110142	-0.639729	0.088987
44220	-9.223984	-3.557126	1.775540	-0.755177	0.111320	-0.640091	0.087176
44221	-9.218438	-3.537833	1.860840	-0.754886	0.112957	-0.640415	0.085183
44222	-9.243743	-3.607958	1.864954	-0.754668	0.114835	-0.640602	0.083179
44223	-9.271989	-3.596559	1.844497	-0.754583	0.116729	-0.640591	0.081378
44224	-9.218524	-3.543735	1.802127	-0.754613	0.118643	-0.640404	0.079788
44225	-9.193553	-3.481625	1.789055	-0.754648	0.120589	-0.640175	0.078361
44226	-9.212235	-3.408804	1.802197	-0.754669	0.122672	-0.639928	0.076932
44227	-9.264077	-3.408216	1.775015	-0.754713	0.124926	-0.639612	0.075485
44228	-9.302181	-3.421208	1.768510	-0.754835	0.127328	-0.639160	0.074069
44229	-9.288160	-3.393365	1.722723	-0.755025	0.129840	-0.638580	0.072762
44230	-9.303937	-3.375364	1.695657	-0.755230	0.132438	-0.637934	0.071607
44231	-9.270218	-3.328963	1.631988	-0.755423	0.134979	-0.637285	0.070601
44232	-9.256777	-3.308146	1.636087	-0.755578	0.137422	-0.636670	0.069776
44233	-9.271008	-3.271081	1.635474	-0.755718	0.139711	-0.636074	0.069151
44234	-9.254340	-3.226936	1.619054	-0.755844	0.141920	-0.635481	0.068717
44235	-9.264491	-3.145662	1.623200	-0.755958	0.144091	-0.634888	0.068428
44236	-9.234698	-3.115083	1.626415	-0.756057	0.146210	-0.634305	0.068253
44237	-9.222578	-3.107561	1.650815	-0.756150	0.148131	-0.633752	0.068212
44238	-9.196043	-3.106573	1.647646	-0.756230	0.149746	-0.633262	0.068345
44239	-9.215558	-3.078016	1.728768	-0.756326	0.151015	-0.632819	0.068603
44240	-9.189742	-3.053611	1.738468	-0.756487	0.152051	-0.632337	0.068971
44241	-9.160260	-2.960316	1.778851	-0.756701	0.153016	-0.631809	0.069335
44242	-9.074733	-2.937013	1.733437	-0.756972	0.153992	-0.631220	0.069576
44243	-9.051800	-2.940534	1.739917	-0.757251	0.155025	-0.630619	0.069688
44244	-9.013276	-2.936472	1.714982	-0.757546	0.155976	-0.630024	0.069751
44245	-9.063330	-2.920660	1.702540	-0.757873	0.156707	-0.629441	0.069827
44246	-9.044693	-2.941513	1.732284	-0.758266	0.157058	-0.628865	0.069956
44247	-9.097621	-2.903017	1.779962	-0.758695	0.156992	-0.628344	0.070143
44248	-9.132792	-2.817505	1.758963	-0.759215	0.156739	-0.627775	0.070167
44249	-9.113121	-2.791683	1.680204	-0.759815	0.156568	-0.627135	0.069787
44250	-8.988912	-2.923370	1.654924	-0.760333	0.156502	-0.626602	0.069076
44251	-8.913261	-3.092758	1.635649	-0.760747	0.156339	-0.626220	0.068333
44252	-8.925601	-3.233565	1.638121	-0.761126	0.155818	-0.625936	0.067908
44253	-8.977907	-3.285469	1.741670	-0.761561	0.154815	-0.625649	0.067973
44254	-9.045520	-3.156130	1.775025	-0.762113	0.153413	-0.625276	0.068391
44255	-9.079871	-2.977783	1.830059	-0.762788	0.151970	-0.624764	0.068772
44256	-9.074814	-2.882997	1.801506	-0.763499	0.150800	-0.624186	0.068702
44257	-9.109710	-2.919308	1.774979	-0.764162	0.150018	-0.623640	0.068000
44258	-9.111151	-3.074238	1.761456	-0.764810	0.149568	-0.623083	0.066796
44259	-9.132157	-3.280790	1.654525	-0.765452	0.149194	-0.622525	0.065471
44260	-9.162006	-3.401624	1.586946	-0.766138	0.148782	-0.621895	0.064358
44261	-9.169123	-3.430003	1.541780	-0.766811	0.148248	-0.621274	0.063580
44262	-9.184835	-3.395933	1.510267	-0.767405	0.147636	-0.620733	0.063111
44263	-9.185737	-3.368760	1.522887	-0.767889	0.147034	-0.620309	0.062802
