// Start Time: Unknown
// Update Rate: 60.0Hz
// Filter Profile: human (46.1)
// Option Flags: AHS Disabled ICC Disabled 
// Firmware Version: 4.3.5
PacketCounter	Acc_X	Acc_Y	Acc_Z	Quat_q0	Quat_q1	Quat_q2	Quat_q3
39183	0.012242	0.062846	9.830028	0.999779	0.003263	-0.000869	-0.020734
39184	0.032076	0.061650	9.827808	0.999779	0.003239	-0.000844	-0.020744
39185	0.018638	0.049404	9.816639	0.999779	0.003234	-0.000834	-0.020742
39186	0.008774	0.049061	9.827938	0.999779	0.003264	-0.000854	-0.020740
39187	0.001257	0.077755	9.843410	0.999782	0.003328	-0.000877	-0.020611
39188	0.019952	0.062555	9.839105	0.999781	0.003346	-0.000878	-0.020620
39189	0.017232	0.066082	9.818718	0.999781	0.003343	-0.000872	-0.020624
39190	0.007222	0.065254	9.830017	0.999781	0.003325	-0.000872	-0.020641
39191	-0.002793	0.064512	9.841314	0.999781	0.003330	-0.000866	-0.020649
39192	0.015048	0.066737	9.818718	0.999781	0.003340	-0.000867	-0.020654
39193	0.038094	0.077355	9.838979	0.999781	0.003359	-0.000871	-0.020640
39194	-0.005982	0.051206	9.839222	0.999781	0.003328	-0.000865	-0.020632
39195	0.001680	0.069599	9.809625	0.999781	0.003323	-0.000860	-0.020636
39196	-0.006382	0.065855	9.841304	0.999781	0.003324	-0.000857	-0.020630
39197	-0.000989	0.055737	9.807537	0.999781	0.003329	-0.000851	-0.020639
39198	0.021922	0.066059	9.827807	0.999781	0.003321	-0.000845	-0.020629
39199	0.009988	0.068497	9.818712	0.999781	0.003325	-0.000850	-0.020649
39200	0.020421	0.066472	9.827808	0.999781	0.003310	-0.000826	-0.020641
39201	-0.001016	0.068111	9.830001	0.999781	0.003333	-0.000829	-0.020640
39202	0.007676	0.069522	9.818707	0.999781	0.003333	-0.000835	-0.020648
39203	0.009048	0.066673	9.839094	0.999781	0.003329	-0.000833	-0.020659
39204	0.005349	0.055506	9.816623	0.999781	0.003326	-0.000840	-0.020653
39205	0.015182	0.071021	9.807415	0.999781	0.003316	-0.000842	-0.020649
39206	0.005301	0.070450	9.818702	0.999781	0.003330	-0.000850	-0.020652
39207	0.012821	0.057189	9.805332	0.999781	0.003318	-0.000846	-0.020652
39208	0.018291	0.080043	9.850272	0.999781	0.003315	-0.000846	-0.020664
39209	-0.007241	0.055794	9.827904	0.999781	0.003321	-0.000835	-0.020642
39210	0.012625	0.054859	9.825720	0.999781	0.003320	-0.000840	-0.020649
39211	0.003848	0.068698	9.839083	0.999781	0.003320	-0.000842	-0.020650
39212	0.014465	0.066722	9.848188	0.999781	0.003313	-0.000844	-0.020647
39213	0.001373	0.054606	9.837002	0.999781	0.003310	-0.000839	-0.020653
39214	0.012355	0.084622	9.829876	0.999781	0.003303	-0.000860	-0.020657
39215	0.001410	0.069499	9.839078	0.999781	0.003303	-0.000854	-0.020651
39216	0.021131	0.068709	9.836902	0.999780	0.003321	-0.000842	-0.020670
39217	0.017268	0.057585	9.814433	0.999781	0.003298	-0.000843	-0.020672
39218	0.007196	0.056798	9.825714	0.999780	0.003305	-0.000831	-0.020675
39219	0.006370	0.057233	9.825712	0.999780	0.003315	-0.000827	-0.020674
39220	0.029354	0.067776	9.846012	0.999780	0.003320	-0.000835	-0.020672
39221	0.016663	0.087996	9.818580	0.999781	0.003340	-0.000838	-0.020660
39222	0.007288	0.070042	9.848173	0.999781	0.003343	-0.000811	-0.020653
39223	0.013750	0.074332	9.816501	0.999781	0.003345	-0.000818	-0.020662
39224	0.002630	0.058905	9.825704	0.999781	0.003311	-0.000808	-0.020658
39225	0.013245	0.056854	9.834821	0.999781	0.003330	-0.000820	-0.020658
39226	0.000307	0.044939	9.823627	0.999781	0.003323	-0.000815	-0.020649
39227	0.000706	0.059606	9.825700	0.999781	0.003325	-0.000816	-0.020651
39228	0.000417	0.091926	9.809452	0.999781	0.003330	-0.000828	-0.020656
39229	0.000731	0.074723	9.827770	0.999781	0.003331	-0.000829	-0.020657
39230	0.010240	0.058395	9.834815	0.999781	0.003333	-0.000827	-0.020660
39231	-0.000520	0.075303	9.827765	0.999781	0.003333	-0.000832	-0.020667
39232	-0.003302	0.046583	9.823619	0.999781	0.003325	-0.000833	-0.020664
39233	0.017589	0.059829	9.823543	0.999781	0.003309	-0.000820	-0.020669
39234	0.007493	0.059081	9.834814	0.999780	0.003313	-0.000819	-0.020683
39235	0.006775	0.059421	9.834812	0.999780	0.003315	-0.000813	-0.020677
39236	0.015452	0.060806	9.823540	0.999780	0.003334	-0.000821	-0.020670
39237	-0.007698	0.065761	9.805283	0.999780	0.003353	-0.000816	-0.020673
39238	0.015300	0.076427	9.825605	0.999780	0.003358	-0.000829	-0.020678
39239	0.025222	0.092262	9.816403	0.999780	0.003371	-0.000836	-0.020680
39240	0.024156	0.060580	9.832661	0.999780	0.003361	-0.000814	-0.020686
39241	-0.000100	0.050619	9.812333	0.999780	0.003365	-0.000837	-0.020703
39242	0.011637	0.063221	9.823530	0.999780	0.003361	-0.000821	-0.020694
39243	0.020189	0.064391	9.812264	0.999780	0.003361	-0.000826	-0.020701
39244	-0.002171	0.051411	9.812328	0.999780	0.003360	-0.000817	-0.020702
39245	0.009401	0.064028	9.823527	0.999780	0.003367	-0.000819	-0.020694
39246	-0.012612	0.083200	9.807323	0.999780	0.003376	-0.000822	-0.020706
39247	0.019515	0.062817	9.832658	0.999779	0.003391	-0.000831	-0.020710
39248	0.008633	0.079806	9.825586	0.999779	0.003389	-0.000819	-0.020708
39249	0.008828	0.062447	9.843919	0.999779	0.003379	-0.000831	-0.020717
39250	0.026756	0.064621	9.821395	0.999779	0.003395	-0.000815	-0.020718
39251	-0.005953	0.068464	9.814377	0.999779	0.003399	-0.000809	-0.020725
39252	0.003667	0.084053	9.805179	0.999779	0.003385	-0.000803	-0.020724
39253	0.005735	0.063781	9.843912	0.999779	0.003399	-0.000804	-0.020719
39254	0.011300	0.053720	9.810188	0.999779	0.003400	-0.000793	-0.020731
39255	0.012382	0.050838	9.830589	0.999779	0.003390	-0.000788	-0.020733
39256	0.012741	0.065688	9.832650	0.999779	0.003412	-0.000789	-0.020733
39257	0.002859	0.065232	9.843904	0.999778	0.003408	-0.000800	-0.020757
39258	0.010672	0.084000	9.814306	0.999779	0.003418	-0.000791	-0.020749
39259	0.019919	0.067630	9.821390	0.999779	0.003401	-0.000773	-0.020746
39260	-0.002664	0.054195	9.821439	0.999779	0.003371	-0.000761	-0.020754
39261	0.006737	0.037458	9.828526	0.999779	0.003358	-0.000762	-0.020762
39262	0.008933	0.048997	9.850989	0.999779	0.003356	-0.000751	-0.020761
39263	0.007388	0.066852	9.832648	0.999779	0.003365	-0.000758	-0.020748
39264	0.018031	0.065240	9.841795	0.999778	0.003381	-0.000756	-0.020769
39265	-0.001226	0.095937	9.848012	0.999778	0.003398	-0.000744	-0.020777
39266	0.003325	0.071406	9.812236	0.999778	0.003399	-0.000743	-0.020779
39267	0.004514	0.068615	9.832637	0.999778	0.003396	-0.000738	-0.020784
39268	0.035555	0.065423	9.839696	0.999778	0.003383	-0.000731	-0.020783
39269	0.002045	0.054478	9.830577	0.999778	0.003386	-0.000737	-0.020779
39270	0.012707	0.052653	9.839731	0.999778	0.003384	-0.000739	-0.020768
39271	0.021565	0.054128	9.828481	0.999778	0.003413	-0.000757	-0.020789
39272	0.013834	0.082775	9.843839	0.999778	0.003419	-0.000758	-0.020781
39273	0.002684	0.067554	9.853028	0.999778	0.003402	-0.000745	-0.020784
39274	0.009244	0.071601	9.821378	0.999778	0.003398	-0.000734	-0.020782
39275	-0.001912	0.056333	9.830566	0.999778	0.003384	-0.000733	-0.020787
39276	0.007817	0.071885	9.821377	0.999778	0.003385	-0.000735	-0.020789
39277	0.006975	0.040211	9.837669	0.999778	0.003385	-0.000734	-0.020788
39278	0.007617	0.086981	9.823429	0.999778	0.003390	-0.000741	-0.020787
39279	0.007197	0.087573	9.823424	0.999778	0.003417	-0.000760	-0.020796
39280	0.010501	0.081792	9.864233	0.999778	0.003391	-0.000761	-0.020785
39281	0.016154	0.071319	9.830532	0.999778	0.003393	-0.000750	-0.020798
39282	0.022665	0.043571	9.815183	0.999778	0.003388	-0.000753	-0.020784
39283	-0.016210	0.057610	9.841791	0.999778	0.003389	-0.000753	-0.020786
39284	0.023682	0.073261	9.819288	0.999778	0.003412	-0.000777	-0.020788
39285	0.014034	0.072875	9.830524	0.999778	0.003415	-0.000788	-0.020791
39286	0.012577	0.090839	9.812166	0.999777	0.003430	-0.000782	-0.020804
39287	0.001446	0.075657	9.821352	0.999778	0.003409	-0.000777	-0.020776
39288	0.021232	0.074660	9.819283	0.999778	0.003419	-0.000765	-0.020768
39289	0.020297	0.043001	9.835588	0.999778	0.003412	-0.000766	-0.020766
39290	0.018910	0.060917	9.817230	0.999778	0.003434	-0.000778	-0.020778
39291	0.018377	0.061472	9.817227	0.999778	0.003439	-0.000778	-0.020769
39292	0.000113	0.074331	9.841747	0.999778	0.003430	-0.000785	-0.020773
39293	0.017210	0.061968	9.817226	0.999778	0.003434	-0.000785	-0.020762
39294	0.019341	0.073673	9.839683	0.999778	0.003426	-0.000772	-0.020769
39295	0.017604	0.059236	9.837636	0.999778	0.003407	-0.000778	-0.020767
39296	-0.005427	0.063578	9.819284	0.999778	0.003413	-0.000779	-0.020759
39297	0.016373	0.059692	9.837635	0.999778	0.003409	-0.000779	-0.020770
39298	0.005516	0.076546	9.830505	0.999778	0.003415	-0.000780	-0.020762
39299	0.026243	0.058200	9.846812	0.999778	0.003411	-0.000775	-0.020766
39300	0.024623	0.075813	9.828451	0.999778	0.003398	-0.000770	-0.020766
39301	0.010661	0.049127	9.815177	0.999778	0.003399	-0.000769	-0.020767
39302	0.009849	0.049300	9.815177	0.999779	0.003388	-0.000751	-0.020755
39303	0.023065	0.058887	9.846816	0.999778	0.003392	-0.000744	-0.020762
39304	0.031732	0.060166	9.835588	0.999779	0.003394	-0.000747	-0.020740
39305	0.000419	0.078381	9.830492	0.999779	0.003416	-0.000762	-0.020753
39306	0.020281	0.077665	9.828446	0.999779	0.003409	-0.000744	-0.020754
39307	0.018616	0.095410	9.810079	0.999779	0.003413	-0.000747	-0.020745
39308	0.005472	0.051370	9.815170	0.999779	0.003409	-0.000735	-0.020742
39309	0.007572	0.062996	9.837625	0.999779	0.003402	-0.000736	-0.020740
39310	0.017187	0.078704	9.828444	0.999779	0.003412	-0.000727	-0.020733
39311	0.006108	0.063688	9.837622	0.999779	0.003413	-0.000732	-0.020740
39312	0.035583	0.063946	9.824364	0.999779	0.003430	-0.000746	-0.020738
39313	0.015698	0.080190	9.828434	0.999778	0.003448	-0.000770	-0.020750
39314	0.015104	0.080394	9.828434	0.999779	0.003422	-0.000752	-0.020742
39315	0.012275	0.051447	9.824352	0.999779	0.003417	-0.000752	-0.020752
39316	0.000415	0.053725	9.815159	0.999779	0.003414	-0.000753	-0.020740
39317	0.011992	0.066378	9.826392	0.999779	0.003415	-0.000754	-0.020742
39318	0.011457	0.066712	9.826390	0.999779	0.003420	-0.000768	-0.020746
39319	0.004323	0.077623	9.860062	0.999778	0.003426	-0.000761	-0.020755
39320	0.010027	0.067399	9.826387	0.999779	0.003422	-0.000749	-0.020752
39321	-0.021688	0.053288	9.837585	0.999779	0.003413	-0.000752	-0.020748
39322	0.019832	0.065711	9.835584	0.999779	0.003413	-0.000751	-0.020749
39323	0.019183	0.066231	9.835581	0.999779	0.003438	-0.000754	-0.020750
39324	0.005431	0.071906	9.805964	0.999779	0.003447	-0.000750	-0.020748
39325	0.006626	0.069248	9.826377	0.999779	0.003442	-0.000756	-0.020741
39326	0.007929	0.066494	9.846791	0.999779	0.003441	-0.000763	-0.020746
39327	0.016531	0.067647	9.835577	0.999779	0.003433	-0.000746	-0.020748
39328	0.016787	0.082286	9.837613	0.999778	0.003428	-0.000755	-0.020770
39329	0.003064	0.055687	9.824336	0.999778	0.003432	-0.000757	-0.020761
39330	0.002313	0.055902	9.824335	0.999778	0.003419	-0.000746	-0.020754
39331	0.001615	0.056113	9.824334	0.999778	0.003425	-0.000754	-0.020752
39332	-0.002501	0.062523	9.783498	0.999779	0.003434	-0.000768	-0.020747
39333	0.022250	0.070269	9.824360	0.999778	0.003433	-0.000774	-0.020753
39334	0.032811	0.068426	9.833567	0.999779	0.003427	-0.000769	-0.020746
39335	0.009634	0.072789	9.815151	0.999778	0.003433	-0.000763	-0.020755
39336	0.020129	0.070994	9.824359	0.999779	0.003425	-0.000762	-0.020751
39337	-0.000260	0.055068	9.844740	0.999778	0.003449	-0.000764	-0.020752
39338	0.019855	0.086371	9.826388	0.999778	0.003444	-0.000771	-0.020768
39339	0.007798	0.056781	9.833529	0.999778	0.003450	-0.000759	-0.020771
39340	0.006250	0.074544	9.815141	0.999778	0.003446	-0.000767	-0.020765
39341	-0.002985	0.056484	9.844732	0.999778	0.003458	-0.000757	-0.020758
39342	0.017018	0.055722	9.842738	0.999778	0.003452	-0.000776	-0.020764
39343	0.004439	0.075472	9.815135	0.999778	0.003454	-0.000769	-0.020759
39344	0.015052	0.074080	9.824345	0.999778	0.003490	-0.000783	-0.020766
39345	0.006083	0.088214	9.837574	0.999778	0.003486	-0.000783	-0.020777
39346	0.003439	0.059519	9.833515	0.999778	0.003487	-0.000779	-0.020771
39347	0.034542	0.056644	9.840747	0.999778	0.003483	-0.000781	-0.020758
39348	0.002051	0.059988	9.833513	0.999778	0.003480	-0.000778	-0.020764
39349	0.001287	0.060247	9.833511	0.999778	0.003482	-0.000775	-0.020759
39350	-0.007732	0.074116	9.846737	0.999778	0.003486	-0.000788	-0.020763
39351	0.009376	0.061964	9.822307	0.999778	0.003497	-0.000771	-0.020773
39352	0.009493	0.076791	9.824331	0.999778	0.003493	-0.000771	-0.020784
39353	0.007980	0.062650	9.822303	0.999777	0.003501	-0.000783	-0.020801
39354	0.017617	0.046393	9.829500	0.999777	0.003489	-0.000778	-0.020802
39355	0.017875	0.061082	9.831526	0.999777	0.003494	-0.000781	-0.020793
39356	0.005977	0.063412	9.822300	0.999777	0.003490	-0.000776	-0.020797
39357	0.008022	0.075304	9.844745	0.999777	0.003503	-0.000777	-0.020792
39358	0.006490	0.061212	9.842718	0.999778	0.003499	-0.000786	-0.020785
39359	-0.004272	0.077916	9.835514	0.999778	0.003494	-0.000794	-0.020777
39360	0.027993	0.089447	9.844797	0.999778	0.003485	-0.000805	-0.020787
39361	-0.006362	0.063800	9.833487	0.999777	0.003486	-0.000794	-0.020799
39362	0.020121	0.052385	9.797881	0.999777	0.003477	-0.000796	-0.020795
39363	0.013708	0.077632	9.833544	0.999777	0.003478	-0.000791	-0.020790
39364	0.022403	0.078973	9.822349	0.999777	0.003487	-0.000793	-0.020794
39365	0.019925	0.050447	9.818303	0.999777	0.003491	-0.000801	-0.020791
39366	0.021398	0.079910	9.822344	0.999777	0.003506	-0.000821	-0.020794
39367	0.020969	0.080240	9.822342	0.999777	0.003492	-0.000826	-0.020806
39368	-0.001389	0.066957	9.822278	0.999777	0.003489	-0.000805	-0.020790
39369	0.020106	0.063328	9.840746	0.999777	0.003503	-0.000805	-0.020810
39370	0.006360	0.068523	9.811085	0.999777	0.003482	-0.000793	-0.020799
39371	0.015924	0.052289	9.818301	0.999777	0.003499	-0.000802	-0.020791
39372	0.017220	0.081630	9.822338	0.999778	0.003491	-0.000803	-0.020787
39373	0.025048	0.068314	9.809132	0.999777	0.003491	-0.000804	-0.020788
39374	0.005586	0.066619	9.831505	0.999778	0.003481	-0.000806	-0.020783
39375	0.003221	0.069920	9.811076	0.999778	0.003494	-0.000814	-0.020784
39376	0.022313	0.054681	9.807112	0.999778	0.003482	-0.000816	-0.020768
39377	0.025939	0.063240	9.849985	0.999778	0.003468	-0.000795	-0.020761
39378	0.013256	0.083074	9.822332	0.999778	0.003494	-0.000820	-0.020776
39379	-0.001068	0.074066	9.790642	0.999778	0.003489	-0.000819	-0.020786
39380	0.011172	0.069316	9.820311	0.999777	0.003485	-0.000814	-0.020790
39381	0.012122	0.066489	9.840738	0.999778	0.003473	-0.000803	-0.020783
39382	0.008667	0.055139	9.818295	0.999778	0.003474	-0.000803	-0.020785
39383	0.030334	0.051438	9.836787	0.999778	0.003476	-0.000798	-0.020780
39384	0.019377	0.068133	9.829556	0.999778	0.003466	-0.000800	-0.020775
39385	0.017811	0.054086	9.827539	0.999778	0.003490	-0.000803	-0.020777
39386	-0.004225	0.073303	9.811051	0.999778	0.003514	-0.000808	-0.020783
39387	0.006314	0.071738	9.820298	0.999778	0.003506	-0.000805	-0.020773
39388	0.017668	0.084350	9.831561	0.999778	0.003498	-0.000801	-0.020764
39389	0.026251	0.053567	9.836788	0.999778	0.003494	-0.000795	-0.020768
39390	0.022926	0.042115	9.814347	0.999778	0.003475	-0.000802	-0.020766
39391	0.013763	0.055983	9.827535	0.999778	0.003498	-0.000795	-0.020782
39392	0.011188	0.059508	9.807103	0.999778	0.003503	-0.000787	-0.020760
39393	0.014860	0.068398	9.849973	0.999778	0.003498	-0.000786	-0.020770
39394	0.001996	0.056124	9.838706	0.999778	0.003497	-0.000776	-0.020769
39395	0.010592	0.057392	9.827531	0.999778	0.003502	-0.000770	-0.020778
39396	0.002274	0.085743	9.842722	0.999778	0.003503	-0.000772	-0.020778
39397	0.016180	0.079407	9.777504	0.999778	0.003506	-0.000783	-0.020781
39398	0.009497	0.072953	9.829536	0.999778	0.003512	-0.000764	-0.020771
39399	0.007893	0.058908	9.827525	0.999778	0.003520	-0.000783	-0.020771
39400	0.005455	0.062198	9.807092	0.999778	0.003517	-0.000763	-0.020755
39401	-0.014279	0.060502	9.829429	0.999778	0.003512	-0.000765	-0.020765
39402	0.016739	0.057670	9.836785	0.999778	0.003504	-0.000754	-0.020749
39403	0.004865	0.059954	9.827520	0.999778	0.003513	-0.000760	-0.020760
39404	-0.006004	0.076801	9.820260	0.999778	0.003514	-0.000763	-0.020761
39405	0.014909	0.090472	9.820363	0.999778	0.003504	-0.000769	-0.020763
39406	0.001167	0.063702	9.807083	0.999778	0.003504	-0.000753	-0.020768
39407	0.002028	0.060764	9.827516	0.999778	0.003474	-0.000748	-0.020759
39408	0.022946	0.074263	9.827626	0.999778	0.003478	-0.000762	-0.020763
39409	0.020673	0.077628	9.807191	0.999778	0.003486	-0.000763	-0.020767
39410	0.000204	0.061612	9.827511	0.999778	0.003486	-0.000757	-0.020760
39411	0.000278	0.076449	9.829514	0.999778	0.003492	-0.000745	-0.020763
39412	0.009738	0.060482	9.836778	0.999778	0.003507	-0.000742	-0.020752
39413	0.020148	0.090811	9.829622	0.999778	0.003503	-0.000732	-0.020749
39414	0.019261	0.059312	9.846048	0.999778	0.003516	-0.000727	-0.020760
39415	0.007451	0.061492	9.836773	0.999778	0.003494	-0.000734	-0.020746
39416	-0.006075	0.034522	9.823492	0.999778	0.003490	-0.000734	-0.020756
39417	0.003719	0.050397	9.814334	0.999778	0.003507	-0.000748	-0.020754
39418	0.027298	0.075816	9.836889	0.999778	0.003500	-0.000748	-0.020752
39419	0.004271	0.079961	9.818334	0.999778	0.003503	-0.000745	-0.020748
39420	0.014849	0.078338	9.827610	0.999778	0.003506	-0.000758	-0.020751
39421	0.021007	0.036107	9.810450	0.999779	0.003497	-0.000750	-0.020734
39422	0.011702	0.049755	9.823608	0.999779	0.003488	-0.000751	-0.020730
39423	0.002431	0.063533	9.836763	0.999779	0.003493	-0.000744	-0.020738
39424	0.011167	0.064758	9.825607	0.999779	0.003484	-0.000747	-0.020735
39425	0.019966	0.066026	9.814451	0.999779	0.003495	-0.000748	-0.020741
39426	-0.008074	0.077773	9.849912	0.999779	0.003473	-0.000755	-0.020726
39427	0.000744	0.078818	9.838757	0.999779	0.003428	-0.000737	-0.020728
39428	0.018964	0.049115	9.832889	0.999779	0.003422	-0.000745	-0.020719
39429	0.008041	0.065902	9.825602	0.999779	0.003433	-0.000742	-0.020719
39430	0.016848	0.067304	9.814448	0.999779	0.003436	-0.000752	-0.020716
39431	0.007472	0.049192	9.844038	0.999779	0.003428	-0.000736	-0.020716
39432	0.015984	0.050345	9.832888	0.999779	0.003426	-0.000726	-0.020715
39433	0.015275	0.082366	9.816446	0.999780	0.003412	-0.000728	-0.020698
39434	0.015470	0.065306	9.834885	0.999779	0.003430	-0.000729	-0.020706
39435	0.002729	0.053208	9.823596	0.999779	0.003426	-0.000724	-0.020711
39436	0.003804	0.082303	9.827588	0.999779	0.003412	-0.000730	-0.020723
39437	0.003112	0.050536	9.844034	0.999779	0.003408	-0.000727	-0.020727
39438	0.001687	0.068148	9.825590	0.999779	0.003403	-0.000741	-0.020726
39439	0.009578	0.054937	9.812447	0.999779	0.003408	-0.000726	-0.020722
39440	0.022364	0.065014	9.844175	0.999779	0.003419	-0.000716	-0.020714
39441	0.019936	0.068460	9.823733	0.999780	0.003433	-0.000719	-0.020685
39442	0.010713	0.082499	9.836867	0.999780	0.003441	-0.000720	-0.020690
39443	0.009999	0.082849	9.836865	0.999780	0.003438	-0.000716	-0.020694
39444	-0.002669	0.070560	9.825573	0.999780	0.003437	-0.000722	-0.020700
39445	0.015572	0.040876	9.819744	0.999780	0.003432	-0.000719	-0.020703
39446	0.007003	0.069100	9.834869	0.999780	0.003427	-0.000709	-0.020700
39447	0.005433	0.054739	9.832876	0.999779	0.003412	-0.000715	-0.020712
39448	-0.003534	0.068539	9.846006	0.999779	0.003425	-0.000743	-0.020708
39449	0.014866	0.070870	9.823725	0.999779	0.003422	-0.000733	-0.020707
39450	0.025249	0.069290	9.833027	0.999779	0.003431	-0.000733	-0.020712
39451	0.001439	0.059104	9.812427	0.999779	0.003435	-0.000734	-0.020726
39452	0.012721	0.071876	9.823721	0.999779	0.003422	-0.000729	-0.020726
39453	0.011156	0.057605	9.821730	0.999779	0.003427	-0.000730	-0.020740
39454	0.023452	0.085037	9.835013	0.999779	0.003430	-0.000743	-0.020743
39455	0.010874	0.072821	9.823716	0.999779	0.003431	-0.000736	-0.020737
39456	0.008481	0.044239	9.819738	0.999779	0.003440	-0.000737	-0.020742
39457	0.010970	0.070539	9.844156	0.999779	0.003424	-0.000714	-0.020733
39458	0.017281	0.060053	9.810591	0.999779	0.003423	-0.000738	-0.020735
39459	0.008179	0.073813	9.823711	0.999779	0.003420	-0.000733	-0.020740
39460	0.018672	0.072281	9.833020	0.999779	0.003435	-0.000741	-0.020742
39461	0.029164	0.070752	9.842330	0.999779	0.003431	-0.000735	-0.020746
39462	-0.014556	0.075894	9.825523	0.999779	0.003442	-0.000726	-0.020739
39463	0.007147	0.072531	9.844145	0.999779	0.003450	-0.000745	-0.020739
39464	0.015817	0.073731	9.833014	0.999779	0.003435	-0.000712	-0.020719
39465	0.001195	0.064422	9.801268	0.999779	0.003458	-0.000715	-0.020718
39466	0.001318	0.047609	9.819725	0.999779	0.003463	-0.000711	-0.020726
39467	0.011735	0.077740	9.812564	0.999779	0.003444	-0.000712	-0.020741
39468	0.000769	0.062395	9.821707	0.999779	0.003444	-0.000714	-0.020741
39469	0.011270	0.060605	9.831026	0.999779	0.003424	-0.000715	-0.020732
39470	-0.000499	0.062686	9.821706	0.999779	0.003430	-0.000717	-0.020724
39471	0.010059	0.061251	9.831023	0.999779	0.003443	-0.000725	-0.020724
39472	0.021554	0.042431	9.858806	0.999779	0.003448	-0.000738	-0.020729
39473	0.019362	0.077446	9.821876	0.999779	0.003439	-0.000741	-0.020726
39474	0.009289	0.076765	9.832999	0.999779	0.003447	-0.000747	-0.020736
39475	0.029250	0.076098	9.831197	0.999779	0.003435	-0.000742	-0.020737
39476	0.007052	0.062708	9.831016	0.999779	0.003436	-0.000738	-0.020732
39477	-0.003076	0.062029	9.842137	0.999779	0.003435	-0.000745	-0.020737
39478	0.027300	0.076967	9.831196	0.999778	0.003446	-0.000750	-0.020750
39479	0.016342	0.061753	9.840338	0.999779	0.003433	-0.000745	-0.020750
39480	0.014103	0.064851	9.819890	0.999778	0.003438	-0.000758	-0.020754
39481	0.004083	0.064297	9.831008	0.999778	0.003448	-0.000759	-0.020760
39482	0.004141	0.078964	9.832985	0.999779	0.003425	-0.000749	-0.020748
39483	0.012838	0.048171	9.838358	0.999779	0.003426	-0.000745	-0.020743
39484	0.001832	0.064822	9.831005	0.999779	0.003422	-0.000748	-0.020730
39485	0.023584	0.061368	9.849665	0.999779	0.003433	-0.000759	-0.020725
39486	0.003249	0.077248	9.853425	0.999779	0.003442	-0.000760	-0.020730
39487	0.010254	0.081472	9.821857	0.999779	0.003438	-0.000742	-0.020744
39488	0.006046	0.055599	9.797455	0.999779	0.003434	-0.000733	-0.020742
39489	0.018856	0.065540	9.829214	0.999779	0.003430	-0.000732	-0.020752
39490	0.016556	0.068857	9.808763	0.999778	0.003448	-0.000734	-0.020761
39491	0.015907	0.069249	9.808761	0.999778	0.003438	-0.000736	-0.020756
39492	0.005625	0.036535	9.836375	0.999778	0.003430	-0.000719	-0.020757
39493	0.003143	0.071497	9.799423	0.999778	0.003430	-0.000720	-0.020757
39494	0.024636	0.067987	9.818100	0.999778	0.003428	-0.000710	-0.020756
39495	0.015350	0.082015	9.831181	0.999778	0.003455	-0.000729	-0.020765
39496	0.013122	0.085280	9.810728	0.999778	0.003439	-0.000717	-0.020769
39497	0.001830	0.069943	9.819865	0.999778	0.003440	-0.000694	-0.020768
39498	0.012067	0.068332	9.829206	0.999778	0.003437	-0.000695	-0.020779
39499	0.001008	0.052981	9.838342	0.999778	0.003424	-0.000684	-0.020772
39500	0.009697	0.054150	9.827234	0.999778	0.003424	-0.000679	-0.020766
39501	-0.010703	0.069833	9.830965	0.999778	0.003423	-0.000694	-0.020755
39502	-0.001722	0.071120	9.819856	0.999779	0.003422	-0.000695	-0.020754
39503	0.019222	0.085109	9.820065	0.999778	0.003431	-0.000715	-0.020756
39504	0.017719	0.070745	9.818095	0.999778	0.003407	-0.000691	-0.020767
39505	0.017547	0.053395	9.836579	0.999778	0.003403	-0.000680	-0.020764
39506	0.018473	0.082778	9.840518	0.999778	0.003418	-0.000695	-0.020774
39507	0.017092	0.068586	9.838547	0.999778	0.003404	-0.000689	-0.020773
39508	0.004483	0.056140	9.827226	0.999778	0.003404	-0.000690	-0.020773
39509	0.024466	0.055476	9.825476	0.999778	0.003396	-0.000690	-0.020769
39510	0.002376	0.073839	9.808740	0.999778	0.003388	-0.000693	-0.020767
39511	0.003510	0.071313	9.829192	0.999778	0.003401	-0.000711	-0.020781
39512	0.011651	0.058159	9.816121	0.999778	0.003393	-0.000700	-0.020765
39513	0.011681	0.072963	9.818088	0.999778	0.003403	-0.000701	-0.020770
39514	0.010970	0.073316	9.818086	0.999778	0.003400	-0.000694	-0.020775
39515	0.001529	0.055230	9.847670	0.999778	0.003402	-0.000688	-0.020770
39516	0.008723	0.059440	9.816117	0.999778	0.003407	-0.000688	-0.020785
39517	0.010331	0.071387	9.838536	0.999778	0.003403	-0.000677	-0.020782
39518	-0.000007	0.070705	9.849631	0.999778	0.003409	-0.000670	-0.020791
39519	0.017486	0.058381	9.825474	0.999778	0.003391	-0.000666	-0.020776
39520	0.017576	0.073049	9.827439	0.999778	0.003396	-0.000667	-0.020767
39521	0.005063	0.060807	9.816111	0.999779	0.003401	-0.000671	-0.020758
39522	-0.004313	0.074564	9.829167	0.999779	0.003392	-0.000672	-0.020754
39523	0.015617	0.073921	9.827436	0.999779	0.003392	-0.000668	-0.020748
39524	0.004638	0.058645	9.836563	0.999779	0.003384	-0.000669	-0.020745
39525	0.003890	0.058867	9.836562	0.999779	0.003385	-0.000659	-0.020734
39526	0.013414	0.074851	9.827432	0.999779	0.003406	-0.000659	-0.020744
39527	0.012707	0.075338	9.827429	0.999779	0.003405	-0.000657	-0.020737
39528	0.012595	0.058177	9.845924	0.999779	0.003394	-0.000636	-0.020743
39529	-0.000106	0.077602	9.818059	0.999779	0.003397	-0.000648	-0.020746
39530	0.009540	0.061561	9.825465	0.999779	0.003393	-0.000632	-0.020736
39531	0.019018	0.077371	9.816338	0.999779	0.003397	-0.000632	-0.020726
39532	0.027257	0.064262	9.803289	0.999779	0.003402	-0.000646	-0.020730
39533	0.017271	0.063557	9.814374	0.999779	0.003398	-0.000653	-0.020724
39534	0.017397	0.078092	9.816335	0.999779	0.003375	-0.000647	-0.020718
39535	0.017457	0.060881	9.834834	0.999779	0.003380	-0.000643	-0.020726
39536	0.005540	0.062997	9.825459	0.999780	0.003371	-0.000636	-0.020710
39537	0.015781	0.061335	9.834834	0.999780	0.003366	-0.000624	-0.020706
39538	0.015951	0.076180	9.836791	0.999780	0.003375	-0.000644	-0.020707
39539	0.013034	0.064965	9.814372	0.999780	0.003381	-0.000632	-0.020709
39540	0.002740	0.064409	9.825451	0.999779	0.003391	-0.000633	-0.020714
39541	0.015462	0.074620	9.857244	0.999780	0.003392	-0.000629	-0.020709
39542	0.013128	0.077731	9.836783	0.999780	0.003389	-0.000625	-0.020713
39543	-0.000127	0.051149	9.823487	0.999779	0.003420	-0.000633	-0.020723
39544	0.001370	0.063256	9.845901	0.999779	0.003404	-0.000611	-0.020714
39545	0.009808	0.064366	9.834822	0.999780	0.003401	-0.000589	-0.020698
39546	0.009003	0.064680	9.834821	0.999780	0.003405	-0.000594	-0.020695
39547	0.005992	0.053419	9.812404	0.999780	0.003399	-0.000653	-0.020685
39548	0.017131	0.066482	9.823741	0.999780	0.003403	-0.000661	-0.020681
39549	0.017290	0.081328	9.825693	0.999780	0.003404	-0.000662	-0.020682
39550	0.017288	0.064220	9.844201	0.999780	0.003397	-0.000645	-0.020684
39551	0.015712	0.081734	9.825692	0.999780	0.003393	-0.000651	-0.020677
39552	0.004975	0.066660	9.834811	0.999780	0.003410	-0.000665	-0.020674
39553	0.012433	0.070887	9.803273	0.999780	0.003401	-0.000666	-0.020671
39554	0.014049	0.050990	9.842245	0.999780	0.003407	-0.000655	-0.020672
39555	0.012475	0.068500	9.823734	0.999780	0.003389	-0.000658	-0.020665
39556	0.023670	0.081435	9.835076	0.999781	0.003402	-0.000659	-0.020659
39557	-0.009429	0.070019	9.825409	0.999781	0.003403	-0.000660	-0.020660
39558	0.010623	0.069459	9.823730	0.999781	0.003399	-0.000667	-0.020654
39559	0.008547	0.072544	9.803265	0.999781	0.003399	-0.000673	-0.020661
39560	0.009501	0.070108	9.823726	0.999780	0.003409	-0.000673	-0.020666
39561	0.008013	0.056099	9.821775	0.999781	0.003419	-0.000664	-0.020658
39562	0.019739	0.083507	9.835067	0.999780	0.003402	-0.000658	-0.020668
39563	-0.002332	0.069950	9.834789	0.999780	0.003404	-0.000658	-0.020669
39564	0.015444	0.057904	9.810706	0.999780	0.003417	-0.000667	-0.020670
39565	0.013979	0.075848	9.792185	0.999780	0.003436	-0.000662	-0.020673
39566	0.014211	0.059183	9.810700	0.999780	0.003453	-0.000677	-0.020670
39567	0.004805	0.073023	9.823708	0.999780	0.003440	-0.000672	-0.020670
39568	0.003390	0.058742	9.821762	0.999780	0.003445	-0.000673	-0.020661
39569	0.011471	0.045249	9.808754	0.999781	0.003409	-0.000662	-0.020655
39570	0.013029	0.057106	9.831164	0.999780	0.003433	-0.000669	-0.020662
39571	0.012610	0.057580	9.831162	0.999780	0.003426	-0.000689	-0.020666
39572	0.002772	0.056946	9.842222	0.999780	0.003438	-0.000710	-0.020656
39573	0.002209	0.089198	9.825640	0.999780	0.003439	-0.000712	-0.020656
39574	0.003097	0.086687	9.846103	0.999780	0.003439	-0.000714	-0.020657
39575	0.020071	0.060016	9.820096	0.999781	0.003439	-0.000708	-0.020651
39576	0.009601	0.059282	9.831156	0.999781	0.003437	-0.000687	-0.020636
39577	0.009669	0.074091	9.833096	0.999781	0.003442	-0.000710	-0.020654
39578	0.018688	0.075316	9.822036	0.999781	0.003429	-0.000698	-0.020646
39579	0.006913	0.077338	9.812626	0.999781	0.003433	-0.000707	-0.020644
39580	0.029309	0.056770	9.849971	0.999781	0.003431	-0.000707	-0.020642
39581	0.007219	0.075224	9.833089	0.999781	0.003437	-0.000708	-0.020633
39582	0.003530	0.049121	9.808742	0.999781	0.003411	-0.000695	-0.020633
39583	-0.005338	0.077380	9.823675	0.999780	0.003433	-0.000701	-0.020661
39584	0.016101	0.074546	9.842495	0.999781	0.003456	-0.000692	-0.020647
39585	0.023971	0.093236	9.812910	0.999781	0.003440	-0.000680	-0.020651
39586	0.012357	0.063259	9.820088	0.999780	0.003430	-0.000692	-0.020659
39587	0.022848	0.061458	9.829505	0.999781	0.003408	-0.000686	-0.020655
39588	-0.009624	0.032088	9.838318	0.999781	0.003387	-0.000667	-0.020661
39589	0.012465	0.043143	9.859091	0.999781	0.003391	-0.000675	-0.020658
39590	-0.001406	0.065573	9.810670	0.999781	0.003409	-0.000689	-0.020656
39591	0.031341	0.092755	9.822324	0.999780	0.003436	-0.000708	-0.020665
39592	0.020495	0.077452	9.831438	0.999781	0.003402	-0.000699	-0.020661
39593	0.018825	0.062872	9.829505	0.999781	0.003399	-0.000679	-0.020646
39594	0.006883	0.065024	9.820082	0.999781	0.003408	-0.000678	-0.020650
39595	0.015986	0.034670	9.825632	0.999781	0.003412	-0.000686	-0.020646
39596	0.028550	0.076970	9.840857	0.999781	0.003435	-0.000686	-0.020646
39597	0.016844	0.079240	9.831431	0.999781	0.003430	-0.000689	-0.020632
39598	0.017027	0.061975	9.849969	0.999781	0.003408	-0.000688	-0.020634
39599	0.015395	0.079418	9.831432	0.999781	0.003414	-0.000672	-0.020629
39600	0.012980	0.050606	9.827565	0.999781	0.003398	-0.000651	-0.020620
39601	0.011426	0.036467	9.825632	0.999781	0.003420	-0.000652	-0.020619
39602	0.012264	0.066135	9.829494	0.999781	0.003434	-0.000664	-0.020626
39603	0.000723	0.068391	9.820062	0.999781	0.003437	-0.000671	-0.020623
39604	0.023703	0.094238	9.842780	0.999781	0.003442	-0.000679	-0.020620
39605	0.009131	0.070108	9.809015	0.999781	0.003439	-0.000675	-0.020624
39606	0.020071	0.051182	9.836989	0.999781	0.003428	-0.000651	-0.020630
39607	0.008178	0.053141	9.827557	0.999781	0.003428	-0.000658	-0.020636
39608	0.006673	0.070661	9.809013	0.999781	0.003419	-0.000648	-0.020620
39609	0.008102	0.082640	9.831414	0.999781	0.003426	-0.000649	-0.020612
39610	0.018582	0.081444	9.840845	0.999781	0.003448	-0.000657	-0.020617
39611	0.027509	0.082865	9.829805	0.999781	0.003435	-0.000654	-0.020617
39612	0.006865	0.066456	9.849952	0.999781	0.003430	-0.000642	-0.020613
39613	0.023051	0.057058	9.805478	0.999782	0.003430	-0.000639	-0.020607
39614	0.003858	0.069877	9.829475	0.999781	0.003436	-0.000639	-0.020622
39615	0.002590	0.055857	9.827545	0.999781	0.003450	-0.000646	-0.020623
39616	0.023215	0.070110	9.827874	0.999782	0.003456	-0.000638	-0.020602
39617	0.012896	0.069355	9.838908	0.999782	0.003449	-0.000641	-0.020600
39618	0.012141	0.069537	9.838907	0.999782	0.003444	-0.000630	-0.020597
39619	0.010662	0.055304	9.836982	0.999782	0.003446	-0.000625	-0.020592
39620	0.009293	0.041067	9.835057	0.999782	0.003442	-0.000625	-0.020602
39621	0.008497	0.073128	9.818429	0.999782	0.003442	-0.000626	-0.020602
39622	-0.001727	0.072546	9.829456	0.999782	0.003456	-0.000628	-0.020598
39623	0.029928	0.085056	9.839238	0.999781	0.003462	-0.000622	-0.020606
39624	0.007377	0.056992	9.836975	0.999782	0.003448	-0.000636	-0.020601
39625	0.005383	0.060030	9.816498	0.999781	0.003458	-0.000637	-0.020606
39626	0.015678	0.058414	9.825946	0.999782	0.003432	-0.000626	-0.020606
39627	0.014864	0.058554	9.825946	0.999782	0.003442	-0.000621	-0.020604
39628	0.025000	0.089046	9.818761	0.999781	0.003448	-0.000616	-0.020612
39629	0.003712	0.090080	9.820334	0.999782	0.003443	-0.000624	-0.020605
39630	0.022352	0.060432	9.814919	0.999782	0.003426	-0.000613	-0.020609
39631	0.000895	0.061294	9.816492	0.999782	0.003427	-0.000608	-0.020603
39632	0.021503	0.075436	9.816839	0.999782	0.003432	-0.000612	-0.020594
39633	0.000329	0.076726	9.818405	0.999782	0.003454	-0.000627	-0.020606
39634	0.030010	0.045564	9.822453	0.999781	0.003434	-0.000610	-0.020614
39635	0.009079	0.060847	9.825940	0.999781	0.003432	-0.000599	-0.020613
39636	-0.000626	0.074597	9.838878	0.999781	0.003433	-0.000601	-0.020614
39637	0.008383	0.075844	9.827856	0.999781	0.003424	-0.000610	-0.020616
39638	0.016039	0.048125	9.812999	0.999781	0.003430	-0.000603	-0.020625
39639	-0.004840	0.063755	9.816475	0.999781	0.003435	-0.000587	-0.020620
39640	0.026043	0.061581	9.824376	0.999781	0.003426	-0.000589	-0.020616
39641	0.014353	0.063630	9.814914	0.999781	0.003435	-0.000590	-0.020620
39642	0.004173	0.062950	9.825930	0.999781	0.003430	-0.000599	-0.020612
39643	0.013716	0.078803	9.816827	0.999781	0.003436	-0.000589	-0.020614
39644	0.032971	0.063773	9.813360	0.999782	0.003418	-0.000592	-0.020607
39645	0.032917	0.078283	9.815277	0.999782	0.003405	-0.000586	-0.020606
39646	0.010882	0.064657	9.814912	0.999782	0.003405	-0.000581	-0.020600
39647	0.009434	0.082242	9.796345	0.999782	0.003404	-0.000587	-0.020606
39648	0.020691	0.063634	9.824376	0.999782	0.003415	-0.000588	-0.020612
39649	0.020689	0.078275	9.826290	0.999782	0.003388	-0.000591	-0.020600
39650	0.018795	0.049298	9.822463	0.999782	0.003388	-0.000592	-0.020600
39651	0.010616	0.060320	9.855868	0.999782	0.003390	-0.000595	-0.020602
39652	0.018760	0.078986	9.826288	0.999782	0.003395	-0.000595	-0.020616
39653	0.018165	0.079385	9.826286	0.999782	0.003399	-0.000605	-0.020614
39654	0.014782	0.053441	9.801980	0.999782	0.003396	-0.000595	-0.020612
39655	-0.004616	0.066152	9.825908	0.999782	0.003396	-0.000591	-0.020606
39656	0.015218	0.065606	9.824373	0.999782	0.003380	-0.000578	-0.020609
39657	0.015776	0.063081	9.844854	0.999782	0.003391	-0.000567	-0.020602
39658	-0.007966	0.084203	9.807330	0.999782	0.003393	-0.000557	-0.020591
39659	0.022349	0.067603	9.813364	0.999782	0.003394	-0.000557	-0.020592
39660	0.012716	0.081387	9.826278	0.999782	0.003395	-0.000558	-0.020592
39661	0.022554	0.065421	9.833845	0.999782	0.003390	-0.000567	-0.020586
39662	0.010822	0.067453	9.824366	0.999782	0.003396	-0.000555	-0.020587
39663	0.009332	0.084852	9.805792	0.999783	0.003373	-0.000564	-0.020572
39664	0.020588	0.066223	9.833844	0.999782	0.003401	-0.000564	-0.020585
39665	0.009396	0.082859	9.826270	0.999782	0.003383	-0.000553	-0.020587
39666	-0.001644	0.067360	9.835363	0.999782	0.003376	-0.000550	-0.020579
39667	0.016900	0.069796	9.813360	0.999782	0.003370	-0.000599	-0.020612
39668	0.027309	0.068615	9.822841	0.999782	0.003378	-0.000604	-0.020592
39669	0.005971	0.069644	9.824355	0.999782	0.003376	-0.000599	-0.020598
39670	-0.006438	0.057162	9.812962	0.999782	0.003382	-0.000594	-0.020606
39671	0.012164	0.059685	9.790962	0.999782	0.003390	-0.000604	-0.020593
39672	0.005389	0.067878	9.844833	0.999782	0.003373	-0.000604	-0.020610
39673	0.003452	0.070753	9.824348	0.999782	0.003371	-0.000618	-0.020598
39674	-0.008176	0.040827	9.831535	0.999782	0.003355	-0.000591	-0.020582
39675	0.012083	0.086539	9.815256	0.999782	0.003351	-0.000604	-0.020583
39676	0.010951	0.072378	9.813349	0.999782	0.003361	-0.000606	-0.020588
39677	0.000686	0.071647	9.824342	0.999782	0.003354	-0.000609	-0.020585
39678	0.001335	0.069085	9.844826	0.999782	0.003350	-0.000599	-0.020583
39679	0.009667	0.055840	9.831929	0.999782	0.003347	-0.000607	-0.020577
39680	0.009789	0.070567	9.833831	0.999782	0.003342	-0.000617	-0.020600
39681	0.018989	0.072048	9.822836	0.999782	0.003361	-0.000632	-0.020599
39682	0.008675	0.071362	9.833826	0.999782	0.003349	-0.000618	-0.020587
39683	0.016578	0.089674	9.804251	0.999782	0.003334	-0.000608	-0.020592
39684	-0.004640	0.058746	9.822428	0.999782	0.003339	-0.000607	-0.020606
39685	0.006262	0.072105	9.833822	0.999782	0.003358	-0.000603	-0.020608
39686	0.004904	0.058046	9.831919	0.999782	0.003355	-0.000598	-0.020614
39687	0.013764	0.059279	9.820931	0.999781	0.003348	-0.000595	-0.020629
39688	0.004020	0.073017	9.833817	0.999782	0.003353	-0.000597	-0.020619
39689	0.023571	0.058075	9.830430	0.999782	0.003339	-0.000611	-0.020615
39690	-0.008041	0.075271	9.824312	0.999781	0.003358	-0.000612	-0.020624
39691	0.003715	0.071339	9.854297	0.999781	0.003358	-0.000613	-0.020624
39692	0.012594	0.072571	9.843311	0.999782	0.003346	-0.000604	-0.020619
39693	0.009804	0.060893	9.820926	0.999781	0.003339	-0.000600	-0.020633
39694	0.009098	0.061254	9.820924	0.999781	0.003353	-0.000604	-0.020628
39695	-0.001229	0.060653	9.831905	0.999782	0.003354	-0.000600	-0.020623
39696	0.008300	0.076573	9.822816	0.999782	0.003359	-0.000604	-0.020614
39697	0.029462	0.073444	9.841830	0.999782	0.003347	-0.000583	-0.020619
39698	0.016578	0.046328	9.828531	0.999781	0.003350	-0.000602	-0.020628
39699	0.005553	0.062833	9.820917	0.999781	0.003347	-0.000593	-0.020626
39700	0.014437	0.064158	9.809936	0.999781	0.003348	-0.000595	-0.020627
39701	0.013804	0.064513	9.809934	0.999782	0.003353	-0.000599	-0.020618
39702	0.015125	0.076698	9.832316	0.999782	0.003359	-0.000602	-0.020610
39703	0.024067	0.078155	9.821336	0.999782	0.003365	-0.000597	-0.020618
39704	-0.019090	0.050646	9.820478	0.999782	0.003357	-0.000597	-0.020615
39705	0.024206	0.075832	9.841826	0.999781	0.003348	-0.000608	-0.020625
39706	-0.008612	0.063743	9.831882	0.999782	0.003340	-0.000606	-0.020616
39707	0.010103	0.066021	9.809929	0.999782	0.003337	-0.000619	-0.020617
39708	0.010963	0.063421	9.830419	0.999782	0.003324	-0.000623	-0.020600
39709	-0.000049	0.079913	9.822793	0.999782	0.003338	-0.000630	-0.020601
39710	0.030533	0.063640	9.828957	0.999782	0.003347	-0.000638	-0.020588
39711	0.008563	0.050059	9.828523	0.999782	0.003341	-0.000622	-0.020591
39712	-0.002243	0.081084	9.822783	0.999782	0.003351	-0.000612	-0.020584
39713	-0.002199	0.064032	9.841383	0.999782	0.003331	-0.000612	-0.020587
39714	0.008107	0.062415	9.850903	0.999782	0.003328	-0.000611	-0.020592
39715	0.015581	0.066425	9.819440	0.999782	0.003325	-0.000601	-0.020591
39716	0.015336	0.081127	9.821329	0.999782	0.003317	-0.000597	-0.020581
39717	0.004438	0.065914	9.830408	0.999783	0.003331	-0.000599	-0.020576
39718	0.003074	0.051809	9.828517	0.999783	0.003328	-0.000582	-0.020568
39719	0.022303	0.068792	9.808468	0.999783	0.003336	-0.000601	-0.020567
39720	-0.007239	0.065846	9.841369	0.999783	0.003318	-0.000591	-0.020570
39721	0.011209	0.068147	9.819434	0.999783	0.003324	-0.000583	-0.020548
39722	0.003507	0.093888	9.854663	0.999783	0.003336	-0.000608	-0.020544
39723	0.030904	0.068240	9.817993	0.999783	0.003314	-0.000604	-0.020540
39724	-0.000107	0.067966	9.830395	0.999783	0.003323	-0.000605	-0.020544
39725	0.010074	0.066635	9.839922	0.999783	0.003315	-0.000588	-0.020545
39726	0.008638	0.052493	9.838035	0.999783	0.003330	-0.000583	-0.020558
39727	0.007751	0.084775	9.821307	0.999783	0.003339	-0.000592	-0.020545
39728	0.027295	0.070105	9.817990	0.999783	0.003344	-0.000596	-0.020535
39729	0.006551	0.085349	9.821303	0.999783	0.003323	-0.000596	-0.020539
39730	-0.005642	0.072530	9.809886	0.999783	0.003320	-0.000595	-0.020550
39731	0.024816	0.056002	9.816109	0.999783	0.003316	-0.000595	-0.020560
39732	0.003571	0.056903	9.817534	0.999783	0.003321	-0.000601	-0.020557
39733	0.024932	0.053966	9.836603	0.999783	0.003320	-0.000597	-0.020551
39734	0.014384	0.085004	9.830830	0.999783	0.003324	-0.000605	-0.020547
39735	0.012567	0.056018	9.827067	0.999784	0.003292	-0.000590	-0.020525
39736	0.001308	0.072144	9.819412	0.999784	0.003289	-0.000590	-0.020536
39737	0.022767	0.069299	9.838487	0.999784	0.003306	-0.000605	-0.020532
39738	0.011187	0.071389	9.828945	0.999783	0.003302	-0.000599	-0.020537
39739	0.011752	0.068919	9.849440	0.999783	0.003298	-0.000595	-0.020540
39740	-0.010934	0.072383	9.830357	0.999783	0.003290	-0.000598	-0.020537
39741	0.019495	0.055875	9.836605	0.999784	0.003291	-0.000594	-0.020532
39742	-0.012845	0.058449	9.828472	0.999784	0.003296	-0.000595	-0.020523
39743	0.018877	0.071058	9.838482	0.999784	0.003291	-0.000615	-0.020529
39744	-0.004871	0.045438	9.815637	0.999784	0.003282	-0.000593	-0.020536
39745	0.025749	0.075380	9.807032	0.999783	0.003304	-0.000607	-0.020547
39746	0.015441	0.074763	9.817982	0.999784	0.003295	-0.000596	-0.020530
39747	0.014698	0.074992	9.817981	0.999784	0.003296	-0.000601	-0.020532
39748	0.004321	0.074068	9.828931	0.999783	0.003280	-0.000596	-0.020542
39749	0.003506	0.074079	9.828931	0.999784	0.003268	-0.000588	-0.020536
39750	0.000917	0.062444	9.806555	0.999784	0.003268	-0.000588	-0.020537
39751	0.002045	0.074496	9.828928	0.999783	0.003261	-0.000581	-0.020551
39752	0.011927	0.058572	9.836601	0.999784	0.003259	-0.000597	-0.020539
39753	0.001741	0.057720	9.847547	0.999784	0.003251	-0.000599	-0.020537
39754	0.021019	0.074779	9.827528	0.999783	0.003270	-0.000608	-0.020552
39755	0.008924	0.062290	9.816099	0.999783	0.003262	-0.000610	-0.020549
39756	0.009945	0.074304	9.838471	0.999784	0.003258	-0.000595	-0.020540
39757	0.028820	0.044989	9.833333	0.999783	0.003259	-0.000602	-0.020548
39758	0.018172	0.075968	9.827525	0.999784	0.003260	-0.000593	-0.020536
39759	0.017368	0.076156	9.827525	0.999784	0.003247	-0.000591	-0.020536
39760	0.015760	0.047342	9.823778	0.999784	0.003254	-0.000604	-0.020542
39761	0.015635	0.062310	9.825649	0.999784	0.003265	-0.000595	-0.020534
39762	-0.005323	0.077789	9.828901	0.999784	0.003266	-0.000592	-0.020529
39763	0.004446	0.061927	9.836587	0.999784	0.003263	-0.000593	-0.020540
39764	0.011676	0.051439	9.803275	0.999783	0.003265	-0.000594	-0.020542
39765	0.003108	0.062427	9.836584	0.999784	0.003257	-0.000590	-0.020532
39766	0.012156	0.063724	9.825645	0.999784	0.003258	-0.000596	-0.020540
39767	0.020699	0.050725	9.812835	0.999784	0.003273	-0.000593	-0.020529
39768	0.002425	0.060691	9.857079	0.999783	0.003258	-0.000595	-0.020548
39769	0.009998	0.096484	9.808878	0.999783	0.003275	-0.000608	-0.020545
