// Start Time: Unknown
// Update Rate: 60.0Hz
// Filter Profile: human (46.1)
// Option Flags: AHS Disabled ICC Disabled 
// Firmware Version: 4.3.5
PacketCounter	Acc_X	Acc_Y	Acc_Z	Quat_q0	Quat_q1	Quat_q2	Quat_q3
34999	9.477840	-0.736468	2.508336	-0.042820	0.608905	-0.012197	0.791992
35000	9.388250	-0.691921	2.763365	-0.044011	0.609000	-0.011293	0.791868
35001	9.471292	-0.730599	2.558159	-0.045027	0.609182	-0.010522	0.791681
35002	9.422757	-0.775933	2.634253	-0.045951	0.609304	-0.009745	0.791544
35003	9.395710	-0.711771	2.631356	-0.046940	0.609464	-0.008868	0.791373
35004	9.466630	-0.750711	2.592885	-0.048054	0.609524	-0.007871	0.791270
35005	9.528546	-0.720846	2.633317	-0.049112	0.609542	-0.006918	0.791201
35006	9.552242	-0.705340	2.598909	-0.050135	0.609567	-0.005990	0.791125
35007	9.618527	-0.699459	2.516843	-0.051253	0.609488	-0.005020	0.791121
35008	9.659104	-0.628199	2.712587	-0.052562	0.609227	-0.003933	0.791243
35009	9.718002	-0.679135	2.828753	-0.053981	0.608885	-0.002778	0.791415
35010	9.778374	-0.529404	2.775995	-0.055139	0.608451	-0.001932	0.791671
35011	9.666018	-0.472799	2.679388	-0.055922	0.607916	-0.001569	0.792028
35012	9.392246	-0.562708	2.612645	-0.056692	0.607366	-0.001263	0.792396
35013	9.213792	-0.542797	2.748425	-0.057535	0.606906	-0.000865	0.792688
35014	9.169044	-0.525973	2.679454	-0.058375	0.606644	-0.000422	0.792828
35015	9.183164	-0.547530	2.736682	-0.058817	0.606583	-0.000287	0.792842
35016	9.162832	-0.567625	2.704736	-0.059032	0.606651	-0.000330	0.792773
35017	9.275758	-0.593820	2.711650	-0.059375	0.606700	-0.000316	0.792710
35018	9.507581	-0.629764	2.649167	-0.059815	0.606740	-0.000242	0.792647
35019	9.552761	-0.596808	2.760787	-0.060354	0.606785	-0.000125	0.792571
35020	9.458312	-0.642150	2.692168	-0.060957	0.606923	-0.000003	0.792420
35021	9.506633	-0.685743	2.518957	-0.061717	0.606980	0.000173	0.792317
35022	9.475934	-0.717235	2.470788	-0.062764	0.606949	0.000626	0.792259
35023	9.363508	-0.791187	2.591587	-0.063875	0.607000	0.001336	0.792129
35024	9.373972	-0.753569	2.615819	-0.064950	0.607180	0.002107	0.791903
35025	9.449795	-0.855193	2.605401	-0.065960	0.607298	0.002890	0.791726
35026	9.447538	-0.904462	2.524494	-0.066961	0.607335	0.003721	0.791610
35027	9.539243	-0.976682	2.412238	-0.068033	0.607181	0.004571	0.791633
35028	9.545725	-1.077085	2.494774	-0.069296	0.606905	0.005633	0.791727
35029	9.522515	-1.035575	2.617475	-0.070721	0.606591	0.007016	0.791831
35030	9.556295	-0.969963	2.650698	-0.072375	0.606339	0.008601	0.791859
35031	9.558450	-0.911553	2.530480	-0.074044	0.606068	0.010142	0.791894
35032	9.512228	-0.812251	2.581638	-0.075512	0.605648	0.011351	0.792060
35033	9.399304	-0.736338	2.662462	-0.076776	0.605138	0.012301	0.792315
35034	9.469490	-0.834134	2.753296	-0.078120	0.604416	0.013300	0.792718
35035	9.539100	-0.856828	2.903758	-0.079908	0.603414	0.014780	0.793276
35036	9.618133	-0.980416	3.071877	-0.082106	0.602370	0.016877	0.793803
35037	9.746145	-0.873143	3.118303	-0.084247	0.601462	0.019129	0.794216
35038	9.790232	-0.662999	2.964879	-0.085673	0.600338	0.020575	0.794878
35039	9.460843	-0.622603	2.819220	-0.086221	0.599254	0.021038	0.795624
35040	9.122342	-0.468357	2.908774	-0.086799	0.598308	0.021374	0.796264
35041	8.974415	-0.423947	2.990444	-0.087654	0.597719	0.021955	0.796597
35042	9.011405	-0.497653	2.922139	-0.088266	0.597462	0.022417	0.796709
35043	9.205038	-0.307776	2.768222	-0.088444	0.597594	0.022525	0.796588
35044	9.329172	-0.313954	2.825303	-0.088152	0.597865	0.022054	0.796430
35045	9.431475	-0.410493	2.878483	-0.088023	0.598172	0.021615	0.796225
35046	9.472919	-0.491817	2.794428	-0.087964	0.598519	0.021157	0.795983
35047	9.403923	-0.510756	2.879677	-0.087865	0.598956	0.020676	0.795678
35048	9.391343	-0.645435	2.885159	-0.087814	0.599525	0.020190	0.795268
35049	9.443624	-0.661641	2.870222	-0.087823	0.600385	0.019772	0.794628
35050	9.549028	-0.810460	2.564863	-0.087992	0.601326	0.019543	0.793904
35051	9.561731	-0.840930	2.676269	-0.088363	0.602224	0.019496	0.793182
35052	9.427047	-0.791855	2.754549	-0.088995	0.603190	0.019736	0.792372
35053	9.442812	-0.721655	2.622207	-0.089803	0.604377	0.020107	0.791366
35054	9.464510	-0.769854	2.720842	-0.090512	0.605518	0.020344	0.790406
35055	9.571533	-0.769363	2.513790	-0.090970	0.606394	0.020495	0.789678
35056	9.636972	-0.831820	2.590129	-0.090751	0.606869	0.020432	0.789340
35057	9.512839	-0.809754	2.544326	-0.090136	0.607072	0.020332	0.789256
35058	9.380279	-0.829566	2.494044	-0.089369	0.607072	0.020138	0.789349
35059	9.350482	-0.981850	2.555006	-0.088841	0.606947	0.020110	0.789505
35060	9.343318	-0.904904	2.549148	-0.088755	0.606733	0.020472	0.789670
35061	9.469297	-0.776544	2.521000	-0.088726	0.606543	0.020764	0.789811
35062	9.478315	-0.764135	2.542223	-0.088523	0.606271	0.020673	0.790046
35063	9.298013	-0.728506	2.702121	-0.088204	0.606075	0.020384	0.790239
35064	9.349774	-0.761766	2.621987	-0.088012	0.605780	0.020043	0.790495
35065	9.429407	-0.812240	2.671462	-0.087731	0.605599	0.019547	0.790678
35066	9.454520	-0.879317	2.556924	-0.087609	0.605441	0.019181	0.790821
35067	9.488812	-0.769810	2.566898	-0.087473	0.605319	0.018862	0.790937
35068	9.593135	-0.815815	2.498434	-0.087109	0.605155	0.018358	0.791114
35069	9.512274	-0.785861	2.440138	-0.086581	0.604939	0.017847	0.791350
35070	9.351492	-0.849020	2.629519	-0.086080	0.604705	0.017474	0.791591
35071	9.302614	-0.778298	2.652693	-0.085657	0.604480	0.017135	0.791816
35072	9.377589	-0.748789	2.645037	-0.085046	0.604363	0.016643	0.791982
35073	9.439509	-0.808611	2.613362	-0.084559	0.604345	0.016231	0.792057
35074	9.501457	-0.779734	2.653070	-0.084358	0.604319	0.016105	0.792100
35075	9.541646	-0.743302	2.717474	-0.084136	0.604214	0.015939	0.792207
35076	9.448684	-0.736673	2.652985	-0.083795	0.604108	0.015688	0.792329
35077	9.293634	-0.767392	2.815534	-0.083310	0.603979	0.015288	0.792487
35078	9.464673	-0.803814	2.601560	-0.083087	0.604120	0.015078	0.792407
35079	9.488871	-0.867174	2.811768	-0.083122	0.604192	0.014971	0.792350
35080	9.477242	-0.836279	2.743758	-0.083170	0.604322	0.014974	0.792246
35081	9.427448	-0.846416	2.751272	-0.083022	0.604524	0.014895	0.792109
35082	9.507310	-0.751738	2.626953	-0.082981	0.604727	0.014856	0.791959
35083	9.479046	-0.733526	2.700415	-0.083050	0.604822	0.014880	0.791879
35084	9.481552	-0.748687	2.679230	-0.083142	0.604802	0.014945	0.791883
35085	9.492664	-0.733103	2.650930	-0.083217	0.604694	0.015048	0.791955
35086	9.500436	-0.765339	2.626206	-0.083354	0.604587	0.015224	0.792019
35087	9.427332	-0.798138	2.654024	-0.083438	0.604552	0.015383	0.792034
35088	9.366847	-0.748222	2.748177	-0.083530	0.604579	0.015551	0.792001
35089	9.398397	-0.812607	2.640893	-0.083650	0.604676	0.015706	0.791911
35090	9.436781	-0.828566	2.623923	-0.083795	0.604776	0.015889	0.791815
35091	9.499075	-0.830429	2.652401	-0.083901	0.604810	0.016028	0.791775
35092	9.435891	-0.833220	2.668288	-0.083964	0.604827	0.016223	0.791752
35093	9.443059	-0.817928	2.668531	-0.084138	0.604972	0.016571	0.791615
35094	9.427280	-0.832463	2.728520	-0.084284	0.605058	0.016924	0.791527
35095	9.413408	-0.813567	2.671416	-0.084440	0.605212	0.017281	0.791384
35096	9.426906	-0.811896	2.743948	-0.084706	0.605294	0.017660	0.791285
35097	9.413125	-0.762289	2.696259	-0.084996	0.605419	0.018095	0.791149
35098	9.399282	-0.744271	2.638504	-0.085208	0.605585	0.018433	0.790991
35099	9.449667	-0.775482	2.579663	-0.085503	0.605807	0.018789	0.790781
35100	9.511588	-0.792243	2.490007	-0.085850	0.606022	0.019162	0.790570
35101	9.567086	-0.786218	2.488535	-0.086171	0.606145	0.019460	0.790433
35102	9.544413	-0.821120	2.467319	-0.086513	0.606214	0.019786	0.790334
35103	9.532154	-0.814619	2.471421	-0.086903	0.606248	0.020212	0.790255
35104	9.434757	-0.861490	2.578206	-0.087387	0.606322	0.020779	0.790130
35105	9.406752	-0.729057	2.572948	-0.087881	0.606439	0.021305	0.789971
35106	9.468419	-0.709608	2.574650	-0.088265	0.606532	0.021631	0.789848
35107	9.546229	-0.674797	2.514418	-0.088546	0.606569	0.021804	0.789783
35108	9.564973	-0.674153	2.430965	-0.088693	0.606572	0.021845	0.789764
35109	9.512942	-0.659083	2.498594	-0.088646	0.606479	0.021684	0.789845
35110	9.416569	-0.808445	2.597638	-0.088612	0.606372	0.021471	0.789937
35111	9.442536	-0.863398	2.642258	-0.088856	0.606222	0.021498	0.790024
35112	9.506557	-0.709764	2.592650	-0.089138	0.606059	0.021547	0.790116
35113	9.509767	-0.575638	2.538579	-0.089165	0.605952	0.021269	0.790202
35114	9.461489	-0.678332	2.575471	-0.089082	0.605839	0.020722	0.790313
35115	9.430026	-0.813011	2.646884	-0.089201	0.605692	0.020247	0.790424
35116	9.345253	-1.030764	2.677652	-0.090014	0.605622	0.020407	0.790381
35117	9.357177	-0.916665	2.835636	-0.090891	0.605517	0.020678	0.790355
35118	9.424933	-0.787927	2.681301	-0.091706	0.605660	0.020888	0.790145
35119	9.480848	-0.674517	2.679957	-0.092449	0.605817	0.021046	0.789934
35120	9.477991	-0.833706	2.715059	-0.093289	0.605911	0.021287	0.789757
35121	9.481056	-0.931849	2.655835	-0.094217	0.605987	0.021821	0.789573
35122	9.607959	-0.851765	2.533322	-0.095381	0.605970	0.022524	0.789427
35123	9.583466	-0.798932	2.712960	-0.096599	0.605846	0.023304	0.789351
35124	9.542722	-0.768803	2.751044	-0.097852	0.605683	0.024073	0.789299
35125	9.474984	-0.687001	2.748726	-0.099088	0.605422	0.024785	0.789323
35126	9.377904	-0.700996	2.699020	-0.100413	0.605156	0.025534	0.789336
35127	9.329563	-0.750119	2.594903	-0.101702	0.604993	0.026357	0.789269
35128	9.282946	-0.882243	2.639805	-0.102964	0.604858	0.027242	0.789179
35129	9.364415	-0.925114	2.641065	-0.104345	0.604743	0.028334	0.789047
35130	9.484423	-0.822221	2.652868	-0.105687	0.604527	0.029426	0.788994
35131	9.631850	-0.685850	2.697161	-0.106774	0.604272	0.030448	0.789004
35132	9.625943	-0.480786	2.704473	-0.107581	0.604057	0.031325	0.789025
35133	9.508132	-0.643819	2.839320	-0.108110	0.603902	0.031993	0.789044
35134	9.395584	-0.650674	2.699898	-0.108497	0.603639	0.032481	0.789172
35135	9.363942	-0.725395	2.633399	-0.108891	0.603404	0.032810	0.789285
35136	9.395173	-0.692746	2.637692	-0.109417	0.603178	0.033124	0.789371
35137	9.439773	-0.626399	2.724411	-0.109868	0.602928	0.033343	0.789490
35138	9.423123	-0.657150	2.773185	-0.110037	0.602769	0.033401	0.789586
35139	9.302882	-0.847260	2.795209	-0.110342	0.602694	0.033471	0.789598
35140	9.298952	-0.936913	2.854994	-0.110976	0.602677	0.033737	0.789510
35141	9.345966	-0.850714	2.863400	-0.111781	0.602693	0.034015	0.789372
35142	9.460598	-0.796227	2.815804	-0.112604	0.602687	0.034286	0.789249
35143	9.373315	-0.877408	2.868421	-0.113466	0.602652	0.034550	0.789140
35144	9.390230	-0.889660	2.831981	-0.114644	0.602635	0.035043	0.788961
35145	9.462354	-0.797588	2.803012	-0.115589	0.602692	0.035552	0.788757
35146	9.457023	-0.772599	2.886618	-0.116528	0.602752	0.035999	0.788553
35147	9.468561	-0.726854	2.799831	-0.117348	0.602842	0.036307	0.788348
35148	9.439520	-0.778084	2.732291	-0.118160	0.603015	0.036614	0.788080
35149	9.434309	-0.744337	2.707630	-0.118892	0.603121	0.037015	0.787870
35150	9.486098	-0.896379	2.768323	-0.119634	0.603160	0.037405	0.787710
35151	9.319217	-1.063260	2.821421	-0.120180	0.603278	0.037721	0.787521
35152	9.329740	-1.113272	2.961284	-0.120946	0.603308	0.038314	0.787352
35153	9.336081	-0.888198	2.804181	-0.121761	0.603441	0.039018	0.787090
35154	9.418576	-0.912754	2.773428	-0.122530	0.603608	0.039691	0.786809
35155	9.401039	-0.985850	2.774754	-0.123090	0.603733	0.040175	0.786601
35156	9.403846	-0.930863	2.939022	-0.123742	0.603665	0.040671	0.786525
35157	9.500451	-0.869903	2.741252	-0.124581	0.603642	0.041402	0.786373
35158	9.396451	-0.847050	2.757630	-0.125131	0.603631	0.041878	0.786269
35159	9.460204	-0.858414	2.658311	-0.125706	0.603884	0.042395	0.785954
35160	9.475834	-0.889122	2.780829	-0.126461	0.604120	0.043128	0.785612
35161	9.549472	-0.823302	2.737089	-0.127130	0.604356	0.043932	0.785279
35162	9.524906	-1.132750	2.585834	-0.127630	0.604450	0.044464	0.785095
35163	9.356343	-0.925536	2.684124	-0.128166	0.604483	0.045248	0.784938
35164	9.371849	-1.046580	2.761170	-0.128989	0.604577	0.046488	0.784657
35165	9.403443	-0.922540	2.819151	-0.129823	0.604536	0.047764	0.784475
35166	9.553112	-0.737950	2.689320	-0.130463	0.604389	0.048856	0.784414
35167	9.504579	-0.653218	2.688913	-0.130922	0.604103	0.049649	0.784509
35168	9.493291	-0.637799	2.607282	-0.131366	0.603731	0.050339	0.784677
35169	9.602559	-0.671978	2.546467	-0.131543	0.603457	0.050912	0.784821
35170	9.510374	-0.838357	2.700879	-0.131744	0.603052	0.051357	0.785070
35171	9.593910	-0.528085	2.695411	-0.131890	0.602616	0.051851	0.785347
35172	9.491944	-0.595337	2.533791	-0.131907	0.602210	0.052158	0.785636
35173	9.302855	-0.789168	2.557340	-0.132012	0.601774	0.052535	0.785927
35174	9.241749	-0.907868	2.727514	-0.132499	0.601546	0.053114	0.785981
35175	9.378446	-0.847663	2.844635	-0.132970	0.601255	0.053827	0.786075
35176	9.331731	-0.714774	2.775956	-0.133267	0.601035	0.054410	0.786153
35177	9.381718	-0.749650	2.636912	-0.133593	0.600892	0.054886	0.786174
35178	9.481179	-0.603083	2.760305	-0.133907	0.600735	0.055410	0.786204
35179	9.527146	-0.538371	2.653576	-0.134262	0.600618	0.055834	0.786202
35180	9.622854	-0.638962	2.691019	-0.134487	0.600456	0.056117	0.786268
35181	9.465367	-0.685060	2.665712	-0.134592	0.600310	0.056326	0.786346
35182	9.406576	-0.683978	2.652419	-0.134800	0.600214	0.056681	0.786358
35183	9.418080	-0.620600	2.645537	-0.134905	0.600145	0.056944	0.786374
35184	9.377036	-0.777599	2.568961	-0.135069	0.600203	0.057191	0.786283
35185	9.351636	-0.813385	2.598591	-0.135472	0.600278	0.057586	0.786128
35186	9.421816	-0.820113	2.761744	-0.135906	0.600284	0.058064	0.786013
35187	9.413760	-0.728941	2.701786	-0.136261	0.600214	0.058533	0.785971
35188	9.405240	-0.653473	2.563278	-0.136554	0.600197	0.058800	0.785913
35189	9.389818	-0.680248	2.608931	-0.136898	0.600216	0.058950	0.785827
35190	9.408490	-0.679354	2.756225	-0.137227	0.600349	0.058985	0.785666
35191	9.560564	-0.664751	2.763252	-0.137278	0.600469	0.058911	0.785570
35192	9.471644	-0.551102	2.726427	-0.137053	0.600539	0.058704	0.785572
35193	9.410054	-0.552113	2.695177	-0.136618	0.600700	0.058281	0.785556
35194	9.444197	-0.622245	2.642925	-0.136086	0.600878	0.057696	0.785556
35195	9.487218	-0.667675	2.732004	-0.135462	0.600879	0.057002	0.785713
35196	9.494733	-0.643164	2.768516	-0.134673	0.600756	0.056199	0.786001
35197	9.433543	-0.530708	2.778609	-0.133581	0.600566	0.055195	0.786403
35198	9.428181	-0.657718	2.565852	-0.132413	0.600458	0.054145	0.786756
35199	9.389780	-0.652442	2.905999	-0.131009	0.600191	0.052739	0.787290
35200	9.468248	-0.544864	2.729245	-0.129668	0.600048	0.051341	0.787713
35201	9.345689	-0.556018	2.797755	-0.128210	0.599849	0.049721	0.788207
35202	9.347466	-0.835646	2.877854	-0.126660	0.599690	0.048042	0.788683
35203	9.353847	-0.900160	2.949255	-0.125014	0.599432	0.046487	0.789235
35204	9.328972	-0.710676	2.954027	-0.123484	0.599233	0.044988	0.789714
35205	9.453775	-0.709499	2.822846	-0.122029	0.599101	0.043513	0.790122
35206	9.542033	-0.873164	2.729853	-0.120722	0.598859	0.042149	0.790581
35207	9.505723	-1.046731	3.036632	-0.119615	0.598464	0.041034	0.791106
35208	9.378857	-0.755664	3.107776	-0.118402	0.598046	0.040021	0.791656
35209	9.293118	-0.640540	3.009485	-0.117214	0.597742	0.038816	0.792123
35210	9.329477	-0.667233	2.819224	-0.115917	0.597536	0.037484	0.792533
35211	9.463045	-0.810924	2.825622	-0.114770	0.597301	0.036260	0.792934
35212	9.416386	-0.928723	3.067303	-0.113564	0.596919	0.035155	0.793445
35213	9.391411	-0.821661	3.106003	-0.112234	0.596619	0.034168	0.793903
35214	9.403474	-0.393799	2.898336	-0.110921	0.596341	0.033137	0.794340
35215	9.542602	-0.523704	2.611313	-0.109604	0.596238	0.031907	0.794650
35216	9.606330	-0.808611	2.614346	-0.108201	0.596004	0.030720	0.795064
35217	9.383665	-1.002821	3.186661	-0.106868	0.595645	0.029733	0.795552
35218	9.234216	-0.645858	3.068022	-0.105522	0.595267	0.028835	0.796047
35219	9.363949	-0.521805	2.703030	-0.104066	0.595115	0.027753	0.796391
35220	9.415901	-0.877387	2.811419	-0.102653	0.594947	0.026592	0.796739
35221	9.393824	-0.761993	3.035854	-0.101426	0.594771	0.025603	0.797060
35222	9.425318	-0.528132	3.014928	-0.100190	0.594550	0.024647	0.797411
35223	9.508622	-0.459705	2.786126	-0.098672	0.594431	0.023466	0.797725
35224	9.479252	-0.706553	2.751340	-0.097030	0.594287	0.022099	0.798073
35225	9.367887	-0.959594	2.826312	-0.095533	0.594090	0.020896	0.798432
35226	9.317802	-1.021207	2.967987	-0.094355	0.593788	0.019957	0.798821
35227	9.286860	-1.044324	3.116678	-0.093188	0.593430	0.019036	0.799246
35228	9.311835	-0.659437	2.893624	-0.092203	0.593232	0.018351	0.799523
35229	9.425400	-0.628244	2.849855	-0.091151	0.593054	0.017471	0.799796
35230	9.496802	-0.660171	2.813740	-0.089987	0.592954	0.016546	0.800022
35231	9.411527	-0.783538	2.926826	-0.088677	0.592917	0.015640	0.800213
35232	9.391704	-0.819716	3.016179	-0.087517	0.592879	0.014872	0.800384
35233	9.343754	-0.819887	3.074429	-0.086307	0.592907	0.014126	0.800508
35234	9.369254	-0.809625	2.946051	-0.085123	0.592953	0.013437	0.800612
35235	9.418314	-0.637499	2.875480	-0.083840	0.592828	0.012642	0.800853
35236	9.308409	-0.655362	3.024593	-0.082205	0.592677	0.011507	0.801151
35237	9.268475	-0.763914	3.004315	-0.080666	0.592730	0.010421	0.801283
35238	9.198467	-0.781048	3.202702	-0.079126	0.592806	0.009302	0.801395
35239	9.381692	-0.736877	2.903997	-0.077771	0.593109	0.008276	0.801314
35240	9.278285	-0.859984	3.214183	-0.076520	0.593467	0.007348	0.801179
35241	9.155794	-1.081469	3.120153	-0.075461	0.593967	0.006641	0.800915
35242	9.153319	-1.207973	3.101890	-0.074685	0.594517	0.006415	0.800581
35243	9.225085	-1.108889	3.023991	-0.074456	0.595075	0.006576	0.800186
35244	9.319557	-0.902448	3.020564	-0.074357	0.595639	0.006833	0.799774
35245	9.367138	-0.826398	3.128224	-0.074198	0.596334	0.007039	0.799269
35246	9.439260	-0.714857	2.986173	-0.074009	0.597146	0.007388	0.798677
35247	9.632013	-0.594726	2.750977	-0.073293	0.598041	0.007424	0.798073
35248	9.632088	-0.776694	2.704141	-0.072011	0.598953	0.007181	0.797508
35249	9.502103	-0.834094	2.711913	-0.070610	0.599792	0.007189	0.797002
35250	9.424383	-0.827769	2.617009	-0.069193	0.600527	0.007353	0.796571
35251	9.368450	-0.847900	2.526161	-0.067873	0.601151	0.007595	0.796212
35252	9.465269	-0.851350	2.467797	-0.066481	0.601616	0.007481	0.795979
35253	9.390222	-0.783801	2.543089	-0.065429	0.602024	0.007409	0.795758
35254	9.357824	-0.700637	2.408003	-0.064668	0.602464	0.007353	0.795488
35255	9.368962	-0.910492	2.469213	-0.064094	0.602989	0.007207	0.795138
35256	9.445698	-0.779869	2.382462	-0.063521	0.603570	0.006996	0.794745
35257	9.365260	-0.739359	2.627432	-0.063106	0.604068	0.006551	0.794404
35258	9.416799	-0.690141	2.556973	-0.063092	0.604550	0.006196	0.794041
35259	9.436535	-0.696781	2.588791	-0.062970	0.605050	0.005722	0.793673
35260	9.453300	-0.760937	2.585857	-0.063057	0.605622	0.005507	0.793231
35261	9.458953	-0.655014	2.591402	-0.063023	0.606251	0.005273	0.792754
35262	9.606976	-0.662468	2.393740	-0.062858	0.606862	0.004773	0.792304
35263	9.635758	-0.670944	2.406354	-0.062816	0.607257	0.004260	0.792007
35264	9.679429	-0.628197	2.453062	-0.062988	0.607420	0.003822	0.791870
35265	9.654882	-0.587557	2.506666	-0.063223	0.607447	0.003338	0.791833
35266	9.648577	-0.571052	2.550470	-0.063410	0.607361	0.002783	0.791887
35267	9.589290	-0.511295	2.673604	-0.063616	0.607154	0.002184	0.792031
35268	9.554821	-0.443176	2.604174	-0.063777	0.606851	0.001488	0.792251
35269	9.417777	-0.488458	2.605889	-0.063782	0.606570	0.000631	0.792468
35270	9.315138	-0.544690	2.577857	-0.063765	0.606318	-0.000200	0.792662
35271	9.410401	-0.594117	2.529259	-0.063781	0.606101	-0.000925	0.792826
35272	9.503787	-0.566402	2.521533	-0.063886	0.605942	-0.001464	0.792938
35273	9.655354	-0.608072	2.393163	-0.064037	0.605860	-0.001882	0.792988
35274	9.676457	-0.674524	2.386005	-0.064406	0.605748	-0.001980	0.793043
35275	9.640264	-0.584861	2.416098	-0.064888	0.605514	-0.001900	0.793183
35276	9.520524	-0.412378	2.578404	-0.065158	0.605156	-0.001953	0.793433
35277	9.434609	-0.395194	2.439523	-0.065237	0.604980	-0.002245	0.793560
35278	9.391851	-0.507997	2.578650	-0.065176	0.604774	-0.002707	0.793721
35279	9.432230	-0.650178	2.571828	-0.065529	0.604823	-0.002866	0.793654
35280	9.614793	-0.739204	2.352071	-0.066485	0.604881	-0.002782	0.793531
35281	9.730967	-0.887198	2.323588	-0.067781	0.604797	-0.002472	0.793486
35282	9.780863	-1.089662	2.156010	-0.069057	0.604445	-0.002061	0.793645
35283	9.731347	-0.903154	2.231324	-0.070476	0.603675	-0.001278	0.794108
35284	9.527508	-0.698468	2.468289	-0.071596	0.602665	-0.000534	0.794776
35285	9.354082	-0.690609	2.617661	-0.072563	0.601627	-0.000071	0.795474
35286	9.358047	-0.921021	2.487090	-0.073730	0.600577	0.000322	0.796161
35287	9.249678	-0.820193	2.574082	-0.075013	0.599279	0.000938	0.797017
35288	9.113729	-0.810464	2.874390	-0.076064	0.598127	0.001574	0.797782
35289	9.027850	-0.807567	3.091991	-0.076502	0.597137	0.001885	0.798480
35290	9.056775	-0.683149	3.329746	-0.076040	0.596539	0.001604	0.798972
35291	9.124763	-0.855104	3.186551	-0.075285	0.596532	0.001229	0.799050
35292	9.672597	-1.076301	2.749784	-0.074983	0.596419	0.001511	0.799162
35293	9.704306	-0.848155	3.086375	-0.074780	0.595961	0.001971	0.799521
35294	9.413418	-0.581804	3.199926	-0.074440	0.595562	0.001943	0.799851
35295	9.226726	-0.496679	3.340367	-0.073672	0.595373	0.001385	0.800064
35296	9.176070	-0.699706	3.305964	-0.072436	0.595434	0.000378	0.800132
35297	9.356789	-0.939136	3.200725	-0.071133	0.595597	-0.000616	0.800127
35298	9.487361	-1.173384	3.042097	-0.070196	0.595836	-0.001230	0.800031
35299	9.563867	-1.326104	2.875644	-0.069596	0.595854	-0.001511	0.800070
35300	9.471389	-1.201674	2.765163	-0.068911	0.595636	-0.001633	0.800291
35301	9.435025	-1.163908	2.870867	-0.067956	0.595120	-0.001827	0.800757
35302	9.383941	-1.129002	2.952313	-0.066894	0.594416	-0.002092	0.801368
35303	9.283790	-1.194316	2.840890	-0.066038	0.593626	-0.002162	0.802024
35304	9.294714	-1.082756	2.969231	-0.065214	0.592746	-0.002204	0.802742
35305	9.288373	-0.887055	3.052390	-0.064355	0.591793	-0.002336	0.803513
35306	9.211533	-0.749940	3.100198	-0.063231	0.590986	-0.002658	0.804195
35307	9.295593	-0.867775	3.181984	-0.061857	0.590294	-0.003329	0.804808
35308	9.324215	-1.113193	3.199958	-0.060665	0.589692	-0.003984	0.805337
35309	9.262928	-1.140962	3.184403	-0.059601	0.589016	-0.004446	0.805908
35310	9.075401	-0.959033	3.188378	-0.058357	0.588387	-0.004714	0.806457
35311	9.147617	-0.933113	3.253155	-0.056729	0.587897	-0.005437	0.806926
35312	9.246061	-0.985874	3.377277	-0.054899	0.587565	-0.006297	0.807288
35313	9.287859	-1.159078	3.421725	-0.053403	0.587328	-0.006912	0.807556
35314	9.152859	-1.172657	3.161128	-0.052111	0.587286	-0.007285	0.807668
35315	9.203987	-1.075362	3.119494	-0.050817	0.587036	-0.007375	0.807930
35316	9.249646	-0.880559	3.240581	-0.049345	0.586936	-0.007584	0.808093
35317	9.301970	-0.769279	3.281076	-0.047670	0.586917	-0.007979	0.808203
35318	9.369117	-0.725935	3.293524	-0.045877	0.586930	-0.008604	0.808291
35319	9.275588	-0.700638	3.336693	-0.043982	0.586860	-0.009377	0.808439
35320	9.246281	-0.867507	3.296458	-0.042153	0.586834	-0.010179	0.808545
35321	9.268275	-0.912116	3.272361	-0.040608	0.586776	-0.010629	0.808661
35322	9.245214	-0.884849	3.188101	-0.038950	0.586781	-0.011094	0.808732
35323	9.198547	-0.742827	3.150507	-0.037240	0.586827	-0.011607	0.808773
35324	9.318637	-0.572716	3.453139	-0.035545	0.586976	-0.012389	0.808729
35325	9.452587	-0.959642	3.334268	-0.034067	0.587193	-0.012996	0.808625
35326	9.332149	-0.900715	3.168671	-0.032600	0.587282	-0.013331	0.808616
35327	9.322552	-0.685259	3.167276	-0.031270	0.587275	-0.013488	0.808671
35328	9.339641	-0.746028	3.280473	-0.030031	0.587258	-0.013725	0.808726
35329	9.331653	-0.821170	3.250714	-0.029281	0.587134	-0.013424	0.808848
35330	9.198963	-0.876973	3.177963	-0.028612	0.587023	-0.013095	0.808958
35331	9.334383	-0.864291	3.149423	-0.028326	0.586905	-0.012359	0.809066
35332	9.394157	-0.760419	3.315843	-0.028629	0.587088	-0.011673	0.808933
35333	9.194990	-0.937262	3.112702	-0.028856	0.587228	-0.010807	0.808835
35334	9.355294	-0.675700	3.087397	-0.029143	0.587447	-0.009863	0.808677
35335	9.403150	-0.642336	2.871497	-0.029617	0.587744	-0.008703	0.808458
35336	9.397403	-0.025239	3.145124	-0.029620	0.587624	-0.007771	0.808554
35337	9.255893	-0.240269	3.239179	-0.029437	0.587632	-0.007343	0.808560
35338	9.373685	-0.303785	3.312194	-0.029643	0.587743	-0.006830	0.808476
35339	9.404832	-0.450645	3.037132	-0.030337	0.587947	-0.005785	0.808310
35340	9.175429	-0.289031	2.840020	-0.030969	0.588072	-0.004507	0.808203
35341	9.143144	-0.147861	2.892557	-0.031074	0.588231	-0.003913	0.808086
35342	9.367415	-0.197488	3.102628	-0.031154	0.588532	-0.003792	0.807864
35343	9.385772	-0.182944	3.079527	-0.031548	0.588964	-0.003395	0.807536
35344	9.387810	-0.297918	2.947625	-0.032135	0.589451	-0.002919	0.807160
35345	9.405478	-0.293884	2.838737	-0.032846	0.589881	-0.002170	0.806819
35346	9.340439	-0.053448	2.914861	-0.033114	0.590238	-0.001751	0.806548
35347	9.423147	-0.083411	3.019378	-0.033128	0.590653	-0.001843	0.806243
35348	9.555672	-0.178959	2.963235	-0.033211	0.590881	-0.001883	0.806072
35349	9.327939	-0.320610	2.870194	-0.033148	0.590926	-0.001981	0.806042
35350	9.320124	-0.194282	2.772009	-0.033133	0.591060	-0.001902	0.805945
35351	9.317723	-0.204488	2.814170	-0.032881	0.591210	-0.002179	0.805844
35352	9.391770	-0.419115	2.940679	-0.032682	0.591374	-0.002525	0.805731
35353	9.410975	-0.432413	2.816465	-0.032732	0.591624	-0.002625	0.805545
35354	9.429371	-0.467494	2.844315	-0.032708	0.591786	-0.002847	0.805426
35355	9.421904	-0.543221	2.753476	-0.032765	0.591901	-0.002956	0.805339
35356	9.521509	-0.504713	2.807752	-0.032796	0.591822	-0.003085	0.805395
35357	9.476206	-0.559205	2.963385	-0.032873	0.591607	-0.003162	0.805550
35358	9.386564	-0.624583	2.792783	-0.033145	0.591269	-0.002929	0.805787
35359	9.252621	-0.612233	2.788866	-0.033587	0.590971	-0.002485	0.805989
35360	9.234568	-0.443114	2.683391	-0.034099	0.590756	-0.001873	0.806127
35361	9.357672	-0.272203	2.783259	-0.034232	0.590456	-0.001606	0.806342
35362	9.436045	-0.178021	3.060709	-0.034175	0.590060	-0.001786	0.806634
35363	9.400528	-0.409476	3.379377	-0.034345	0.589672	-0.001992	0.806910
35364	9.394203	-0.538376	3.038924	-0.035286	0.589613	-0.001551	0.806913
35365	9.386190	-0.498977	2.756489	-0.036387	0.589399	-0.000748	0.807021
35366	9.417722	-0.266810	2.949529	-0.037093	0.589015	-0.000454	0.807270
35367	9.475411	-0.240684	3.051381	-0.037765	0.588609	-0.000522	0.807535
35368	9.485410	-0.219998	3.116710	-0.038596	0.588128	-0.000477	0.807846
35369	9.385070	-0.312560	3.312018	-0.039387	0.587590	-0.000339	0.808200
35370	9.294888	-0.292985	3.241658	-0.040366	0.587087	0.000022	0.808517
35371	9.330810	-0.379654	3.311799	-0.041611	0.586524	0.000505	0.808862
35372	9.349627	-0.525391	3.112707	-0.043064	0.586028	0.001147	0.809145
35373	9.378299	-0.537568	3.084394	-0.044626	0.585486	0.001770	0.809452
35374	9.400595	-0.552643	3.279656	-0.046156	0.584863	0.002210	0.809814
35375	9.290937	-0.533357	3.436643	-0.047620	0.584311	0.002533	0.810127
35376	9.260082	-0.590448	3.281527	-0.049218	0.583782	0.003113	0.810411
35377	9.325287	-0.710536	3.290842	-0.051002	0.583099	0.003958	0.810789
35378	9.331591	-0.617561	3.430646	-0.052995	0.582400	0.005077	0.811157
35379	9.202209	-0.750644	3.320375	-0.055210	0.581868	0.006301	0.811383
35380	9.401941	-0.564811	3.382264	-0.057508	0.581323	0.007495	0.811604
35381	9.332806	-0.311155	3.692381	-0.059769	0.580727	0.008426	0.811857
35382	9.293101	-0.500682	3.609615	-0.062237	0.580280	0.009117	0.811984
35383	9.311040	-0.642867	3.391138	-0.064833	0.579707	0.010005	0.812180
35384	9.313526	-0.738923	3.378766	-0.067484	0.579137	0.010854	0.812360
35385	9.211065	-0.792630	3.244683	-0.070370	0.578527	0.012146	0.812531
35386	9.223585	-0.382097	3.502685	-0.073001	0.577661	0.013247	0.812898
35387	9.196513	-0.350222	3.768111	-0.075042	0.576935	0.013596	0.813222
35388	9.160507	-0.792312	3.577247	-0.077021	0.576255	0.013750	0.813516
35389	9.125214	-1.019398	3.200211	-0.079589	0.575599	0.014565	0.813719
35390	9.064267	-0.754474	3.024063	-0.082687	0.574885	0.016329	0.813881
35391	9.015643	-0.412521	3.150716	-0.085482	0.574554	0.018001	0.813791
35392	9.189426	-0.761673	2.908242	-0.087943	0.574663	0.019362	0.813421
35393	9.274461	-0.521620	3.151835	-0.090056	0.574837	0.020538	0.813038
35394	9.263137	-0.505087	3.230688	-0.091834	0.575146	0.021131	0.812605
35395	9.340333	-0.651207	3.283621	-0.093436	0.575531	0.021132	0.812149
35396	9.319408	-0.899601	3.099972	-0.095029	0.575975	0.020931	0.811655
35397	9.357022	-0.844223	3.318742	-0.096242	0.576328	0.020384	0.811276
35398	9.353349	-0.874877	3.249376	-0.096861	0.576723	0.019228	0.810949
35399	9.347571	-1.046266	3.116470	-0.097186	0.576958	0.017805	0.810776
35400	9.182044	-1.214177	3.183300	-0.097553	0.577122	0.016608	0.810640
35401	9.185893	-1.298190	3.238956	-0.098156	0.577380	0.015832	0.810400
35402	9.187434	-1.482680	3.114334	-0.098992	0.577651	0.015454	0.810112
35403	9.187434	-1.297663	3.022414	-0.099919	0.577756	0.015643	0.809919
35404	9.063413	-0.870690	2.919764	-0.100794	0.578031	0.016178	0.809604
35405	9.247315	-0.812210	3.078543	-0.101435	0.578433	0.016455	0.809231
35406	9.284277	-0.974647	3.206441	-0.101845	0.579021	0.016343	0.808761
35407	9.386713	-1.194348	3.245022	-0.102320	0.579631	0.016260	0.808266
35408	9.559158	-1.176478	3.019987	-0.103071	0.580423	0.016614	0.807595
35409	9.622712	-1.117634	3.146465	-0.104012	0.581044	0.017065	0.807018
35410	9.639303	-0.979984	2.890786	-0.104871	0.581517	0.017248	0.806562
35411	9.522345	-0.827692	2.899465	-0.105581	0.581685	0.017186	0.806350
35412	9.451171	-0.684777	3.026871	-0.106124	0.581566	0.016831	0.806372
35413	9.301900	-0.738002	3.172003	-0.106261	0.581321	0.016150	0.806544
35414	9.248187	-0.924818	3.084088	-0.106202	0.580964	0.015654	0.806819
35415	9.151659	-0.966721	3.240090	-0.106070	0.580473	0.015423	0.807194
35416	9.047493	-1.063634	3.138488	-0.105877	0.580000	0.015348	0.807560
35417	9.060892	-0.993992	3.209578	-0.105549	0.579412	0.015405	0.808025
35418	9.147332	-1.022816	3.243762	-0.105325	0.578804	0.015669	0.808484
35419	9.030895	-0.815281	3.342155	-0.105043	0.578210	0.015951	0.808941
35420	9.161739	-0.869417	3.283487	-0.104716	0.577781	0.016169	0.809285
35421	9.229417	-0.792461	3.360146	-0.104240	0.577254	0.016242	0.809721
35422	9.234400	-0.764270	3.421141	-0.103560	0.576822	0.016102	0.810118
35423	9.184289	-0.773122	3.466471	-0.102951	0.576434	0.015890	0.810477
35424	9.172565	-0.909802	3.332849	-0.102607	0.576251	0.015951	0.810649
35425	9.180933	-0.927640	3.342317	-0.102224	0.576349	0.015999	0.810627
35426	9.129780	-0.898397	3.463326	-0.101783	0.576432	0.015889	0.810626
35427	9.115467	-0.800010	3.534155	-0.101161	0.576573	0.015479	0.810611
35428	9.208124	-0.749466	3.528461	-0.100283	0.576724	0.014774	0.810626
35429	9.153611	-0.753886	3.626582	-0.099110	0.576917	0.014033	0.810646
35430	9.023325	-0.849135	3.726791	-0.097968	0.577328	0.013623	0.810499
35431	9.233387	-0.953268	3.619264	-0.096971	0.578011	0.013509	0.810135
35432	9.502547	-0.995214	3.650497	-0.096004	0.578818	0.013024	0.809681
35433	9.656412	-0.985904	3.483778	-0.095037	0.579775	0.011956	0.809127
35434	9.658359	-1.056570	3.432997	-0.094376	0.580585	0.010836	0.808639
35435	9.793183	-0.990866	3.335511	-0.094075	0.581242	0.009946	0.808214
35436	9.843234	-0.998994	3.146397	-0.093969	0.581612	0.009156	0.807969
35437	9.748486	-0.963296	3.359022	-0.093899	0.581536	0.008505	0.808039
35438	9.666361	-0.980341	3.065200	-0.093925	0.581530	0.007958	0.808045
35439	9.791479	-1.122424	2.865928	-0.093816	0.581590	0.007443	0.808020
35440	9.713941	-1.232367	2.944397	-0.093784	0.581506	0.007484	0.808084
35441	9.736430	-1.095510	2.980622	-0.093688	0.581266	0.007799	0.808264
35442	9.985624	-0.997371	2.845094	-0.093897	0.580716	0.008209	0.808631
35443	9.999695	-1.087328	2.957353	-0.094215	0.579833	0.008524	0.809225
35444	10.072826	-1.212016	2.906240	-0.094694	0.578326	0.009246	0.810239
35445	9.753895	-1.415075	2.840777	-0.094064	0.576102	0.010095	0.811885
35446	9.594993	-1.438474	2.896447	-0.091837	0.573222	0.010571	0.814169
35447	9.515824	-1.160349	2.782745	-0.088443	0.569685	0.010552	0.817023
35448	9.678827	-1.055560	2.593493	-0.084941	0.565890	0.010052	0.820032
35449	9.291277	-1.150092	2.718143	-0.082182	0.561813	0.010182	0.823109
35450	8.372974	-0.793138	2.703968	-0.080883	0.557199	0.011740	0.826347
35451	7.911626	-0.543721	3.122857	-0.080156	0.552620	0.013434	0.829461
35452	8.041782	-0.586578	3.981701	-0.079108	0.547743	0.013915	0.832782
35453	8.102852	-0.499243	4.401173	-0.078442	0.543246	0.012743	0.835804
35454	7.781126	-0.726176	4.514551	-0.077620	0.539443	0.009868	0.838379
35455	7.939160	-1.185810	4.365985	-0.077045	0.536592	0.007049	0.840288
35456	8.051359	-0.345581	3.609061	-0.075947	0.534028	0.004444	0.842037
35457	8.523426	0.789378	4.049657	-0.077574	0.532187	0.003171	0.843059
35458	8.299548	-0.602925	4.567149	-0.080650	0.531147	0.001899	0.843431
35459	7.805750	-1.474272	5.366464	-0.081795	0.529625	0.000219	0.844279
35460	7.600671	-0.833555	4.925452	-0.081647	0.528008	-0.001929	0.845303
35461	8.251442	-0.484722	4.552135	-0.082231	0.527904	-0.003227	0.845308
35462	8.732505	-0.863628	4.754326	-0.083029	0.528318	-0.003705	0.844969
35463	8.735693	-0.852548	5.044691	-0.083205	0.528531	-0.004017	0.844817
35464	8.884371	-0.531863	4.620501	-0.082611	0.528765	-0.003967	0.844729
35465	8.939491	-0.499323	4.780126	-0.083374	0.529934	-0.003709	0.843923
35466	8.843934	-1.071904	4.490831	-0.083635	0.531227	-0.003799	0.843083
35467	9.252177	-0.795167	4.502028	-0.083821	0.532583	-0.003550	0.842210
35468	9.126430	-0.833089	4.426456	-0.084800	0.533872	-0.003027	0.841297
35469	9.168685	-1.150165	4.108724	-0.085351	0.535177	-0.002867	0.840412
35470	8.804152	-1.404228	4.161975	-0.085474	0.536271	-0.002796	0.839702
35471	8.984466	-1.039126	4.078128	-0.085473	0.537288	-0.002666	0.839052
35472	9.360576	-1.003494	4.237240	-0.085899	0.538271	-0.002701	0.838378
35473	9.235438	-0.915255	4.242701	-0.086400	0.538831	-0.002695	0.837967
35474	9.111157	-0.676241	4.175201	-0.087036	0.539247	-0.002806	0.837633
35475	9.047507	-0.917085	4.410120	-0.088271	0.539929	-0.003054	0.837064
35476	8.907323	-1.311800	4.377837	-0.089711	0.540625	-0.003217	0.836461
35477	9.054886	-1.033545	4.159546	-0.091399	0.541291	-0.002873	0.835848
35478	9.186264	-0.937187	4.104541	-0.093999	0.541942	-0.002139	0.835140
35479	9.134774	-0.882986	4.129197	-0.096974	0.542620	-0.001088	0.834361
35480	8.885727	-1.088948	4.453643	-0.099448	0.542904	0.000018	0.833886
35481	8.597448	-1.112924	4.643480	-0.100730	0.542296	0.000955	0.834127
35482	8.697876	-0.958713	4.255662	-0.102487	0.542143	0.002479	0.834009
35483	8.726741	-0.930176	4.086079	-0.104606	0.542815	0.004399	0.833301
35484	8.743431	-0.698454	4.366517	-0.106514	0.543689	0.006276	0.832477
35485	8.665799	-0.441311	4.522655	-0.108199	0.544429	0.007628	0.831764
35486	8.650306	-0.931874	4.129208	-0.110287	0.545476	0.008653	0.830794
35487	8.735953	-1.393316	3.896615	-0.112537	0.546938	0.010443	0.829509
35488	8.533797	-1.704112	3.784959	-0.114171	0.548372	0.013162	0.828300
35489	8.607007	-1.344709	4.010631	-0.114619	0.549529	0.015710	0.827426
35490	8.771091	-0.801110	4.162793	-0.114134	0.550366	0.017163	0.826907
35491	8.722164	-0.440997	4.206283	-0.113565	0.551702	0.017489	0.826089
35492	8.970455	-0.710458	3.590489	-0.113507	0.553402	0.017443	0.824960
35493	9.110887	-1.107832	3.358162	-0.113442	0.555471	0.017372	0.823578
35494	8.936895	-1.029309	3.899238	-0.112497	0.557438	0.017026	0.822385
35495	8.594813	-0.932261	4.378282	-0.111614	0.559513	0.016411	0.821108
35496	8.470886	-1.051192	3.905356	-0.111222	0.561689	0.015581	0.819690
35497	8.678245	-1.329837	3.089305	-0.111220	0.563979	0.016161	0.818105
35498	8.990455	-1.413432	3.049835	-0.110368	0.566542	0.017275	0.816426
35499	9.314137	-1.229550	3.506753	-0.108229	0.568571	0.017233	0.815302
35500	9.249745	-0.862280	3.622291	-0.105585	0.570103	0.015673	0.814609
35501	8.982405	-0.610340	3.497297	-0.104689	0.571810	0.013501	0.813567
35502	8.939968	-0.818718	3.287844	-0.104253	0.573753	0.011686	0.812282
35503	9.006425	-1.488836	3.112914	-0.103853	0.575254	0.010849	0.811282
35504	9.178666	-1.734780	3.302288	-0.103566	0.576366	0.011003	0.810528
35505	9.207871	-1.220002	3.385171	-0.103531	0.577489	0.011230	0.809729
35506	9.125632	-0.840783	3.027029	-0.103126	0.578722	0.010022	0.808916
35507	8.871189	-0.567547	2.899982	-0.102853	0.579160	0.008123	0.808659
35508	8.982736	-1.113019	2.788535	-0.102619	0.579346	0.006285	0.808572
35509	9.480987	-1.220916	3.060423	-0.102928	0.579275	0.005375	0.808590
35510	9.641611	-1.187067	3.336181	-0.102997	0.579401	0.004503	0.808496
35511	9.359030	-1.180059	3.330665	-0.102896	0.579252	0.003450	0.808621
35512	8.518334	-1.441310	3.377362	-0.103111	0.578308	0.002872	0.809271
35513	9.233216	-1.512777	2.751753	-0.103922	0.577214	0.002981	0.809948
35514	10.201793	-1.334190	3.150627	-0.104490	0.576242	0.003040	0.810567
35515	9.886893	-1.222736	3.317201	-0.104513	0.575315	0.002715	0.811223
35516	8.952179	-1.330385	3.449552	-0.103688	0.574250	0.002099	0.812085
35517	8.224587	-1.355191	3.062064	-0.102666	0.572835	0.002293	0.813213
35518	8.674528	-1.558655	2.902665	-0.102107	0.571104	0.003414	0.814495
35519	9.822316	-1.313927	3.629375	-0.101874	0.569551	0.004643	0.815605
35520	9.770595	-1.430439	3.224050	-0.101688	0.568094	0.005252	0.816640
35521	9.383980	-1.270224	3.332059	-0.101398	0.567051	0.005925	0.817396
35522	8.947440	-1.072325	3.680241	-0.101113	0.565811	0.006850	0.818283
35523	9.425724	-1.327934	3.396831	-0.100566	0.564873	0.008022	0.818987
35524	10.048800	-1.016427	3.619167	-0.100125	0.563506	0.009440	0.819968
35525	10.196899	-0.955635	3.861155	-0.099032	0.562624	0.010132	0.820698
35526	9.632472	-0.792470	3.654465	-0.097627	0.562114	0.010503	0.821210
35527	9.156515	-0.829536	3.622590	-0.096150	0.561864	0.010737	0.821552
35528	9.029108	-1.129136	3.534688	-0.095283	0.561752	0.011247	0.821723
35529	9.008387	-1.322507	3.459725	-0.095225	0.561474	0.012110	0.821908
35530	9.234549	-0.951517	3.435446	-0.095383	0.560799	0.013243	0.822333
35531	9.233885	-0.671433	3.560843	-0.094926	0.560039	0.013841	0.822893
35532	8.905805	-0.464996	3.453070	-0.093848	0.559409	0.014132	0.823441
35533	8.803455	-0.547228	3.668510	-0.092646	0.558738	0.014586	0.824024
35534	8.759997	-0.693810	3.706749	-0.091799	0.558189	0.015318	0.824478
35535	8.890331	-1.058105	3.715362	-0.091545	0.557530	0.016235	0.824934
35536	9.204172	-0.797923	3.880955	-0.091564	0.557171	0.017036	0.825158
35537	9.422188	-0.637051	3.816584	-0.091373	0.557176	0.017399	0.825169
35538	9.194574	-0.465158	3.719456	-0.091131	0.557120	0.017528	0.825230
35539	9.126041	-0.537263	3.785574	-0.090711	0.557252	0.017501	0.825188
35540	9.156085	-0.613888	3.772804	-0.090349	0.557662	0.017403	0.824953
35541	9.088534	-0.705554	3.643589	-0.090162	0.558222	0.017388	0.824595
35542	8.850811	-0.680199	3.806247	-0.090171	0.558849	0.017405	0.824169
35543	8.689671	-0.680547	3.981785	-0.090231	0.559631	0.017354	0.823632
35544	8.659601	-0.669117	3.989945	-0.090290	0.560379	0.017304	0.823118
35545	8.756299	-0.585982	3.592475	-0.090398	0.560644	0.017256	0.822927
35546	9.003194	-0.495200	3.473004	-0.090167	0.560616	0.016800	0.822981
35547	9.154466	-0.391892	3.362070	-0.089972	0.560229	0.016295	0.823276
35548	9.390354	-0.528683	3.522814	-0.089705	0.559578	0.015704	0.823759
35549	9.251843	-0.764537	3.634376	-0.089451	0.559094	0.015399	0.824121
35550	9.542487	-0.726735	3.906461	-0.088847	0.558420	0.015141	0.824648
35551	9.683083	-0.780209	4.025155	-0.087977	0.557767	0.014979	0.825186
35552	9.699357	-0.712719	3.747504	-0.086822	0.557202	0.014641	0.825696
35553	9.619241	-0.723789	3.630675	-0.085718	0.556485	0.014446	0.826298
35554	9.375908	-0.690508	3.715475	-0.084626	0.555666	0.014178	0.826966
35555	9.050773	-0.680492	3.773630	-0.083696	0.554961	0.013952	0.827537
35556	8.956790	-0.598229	3.621214	-0.083123	0.554303	0.013857	0.828038
35557	8.988165	-0.644100	3.543697	-0.082758	0.553541	0.013725	0.828586
35558	9.008658	-0.744814	3.592596	-0.082533	0.552749	0.013513	0.829141
35559	8.896495	-0.758817	3.602683	-0.082514	0.552105	0.013310	0.829575
35560	8.950927	-0.740363	3.690142	-0.082732	0.551605	0.013082	0.829889
35561	8.984609	-0.705411	3.646364	-0.082951	0.551132	0.012722	0.830187
35562	9.091000	-0.746835	3.635001	-0.083021	0.550726	0.012290	0.830456
35563	9.252912	-0.692671	3.669566	-0.082982	0.550543	0.011717	0.830589
35564	9.233465	-0.675605	3.834312	-0.082880	0.550435	0.011096	0.830680
35565	9.233050	-0.629306	3.805503	-0.082801	0.550371	0.010498	0.830738
35566	9.240473	-0.617652	3.524097	-0.082739	0.550172	0.009989	0.830882
35567	9.391402	-0.632333	3.359802	-0.082572	0.549790	0.009489	0.831158
35568	9.319512	-0.695361	3.332316	-0.082401	0.549285	0.009070	0.831513
35569	9.237144	-0.691866	3.412951	-0.082227	0.549035	0.008642	0.831700
35570	9.167175	-0.667671	3.203129	-0.082018	0.549016	0.008209	0.831737
35571	9.090258	-0.640947	3.233881	-0.081700	0.549208	0.007662	0.831647
35572	8.933217	-0.726096	3.193528	-0.081332	0.549628	0.007136	0.831410
35573	8.865142	-0.738382	3.387110	-0.081060	0.550233	0.006706	0.831040
35574	8.835342	-0.793317	3.531153	-0.080883	0.551021	0.006295	0.830538
35575	8.847945	-0.809692	3.632074	-0.080840	0.551910	0.006131	0.829953
35576	8.747798	-0.706348	3.988159	-0.080839	0.553071	0.005957	0.829182
35577	8.466808	-0.743734	4.011619	-0.080948	0.555206	0.005714	0.827745
35578	8.441751	-0.780675	3.883741	-0.081125	0.558010	0.005358	0.825842
35579	8.345993	-0.781491	3.903175	-0.081370	0.561234	0.004970	0.823633
35580	8.437408	-0.836216	3.873550	-0.081436	0.565135	0.004309	0.820958
35581	8.510617	-0.825368	4.137134	-0.081187	0.568665	0.003429	0.818545
35582	8.769449	-0.861171	3.905307	-0.080720	0.571693	0.002468	0.816483
35583	9.749181	-0.909133	3.558346	-0.080569	0.572639	0.002176	0.815836
35584	9.841453	-0.740627	3.982392	-0.080601	0.572574	0.002358	0.815878
35585	9.611553	-0.860725	3.936331	-0.080827	0.571522	0.002589	0.816593
35586	9.379138	-1.088435	2.934472	-0.081689	0.570155	0.003668	0.817457
35587	8.906691	-0.626727	3.267499	-0.082230	0.563046	0.004424	0.822313
35588	9.253380	-0.698063	3.636029	-0.082157	0.554493	0.003976	0.828113
35589	8.796306	-0.950716	3.602119	-0.082716	0.544094	0.003788	0.834928
35590	8.266069	-1.094051	4.459389	-0.084820	0.533007	0.005470	0.841831
35591	7.990500	-1.061491	4.819535	-0.087994	0.523866	0.008908	0.847197
35592	8.324535	-0.943875	5.130683	-0.090622	0.517976	0.012053	0.850496
35593	8.925604	-0.912542	5.313000	-0.092806	0.513952	0.014716	0.852657
35594	9.029945	-0.936393	5.324490	-0.094606	0.511018	0.017036	0.854178
35595	9.170727	-0.933168	5.265094	-0.095854	0.508857	0.018873	0.855289
35596	9.287726	-0.729971	5.305194	-0.096545	0.508022	0.020089	0.855680
35597	9.278818	-0.735567	5.171477	-0.096646	0.508392	0.020571	0.855438
35598	9.300540	-0.765508	4.967870	-0.096291	0.509563	0.020532	0.854782
35599	9.275176	-0.817265	4.795500	-0.095685	0.510948	0.020145	0.854032
35600	9.243159	-0.864901	4.684103	-0.094960	0.512183	0.019555	0.853387
35601	9.097745	-0.850413	4.604756	-0.094050	0.513552	0.018672	0.852684
35602	9.012307	-0.741886	4.632801	-0.092958	0.515171	0.017481	0.851852
35603	8.821202	-0.672260	4.679212	-0.091679	0.517360	0.016028	0.850692
35604	8.763933	-0.648728	4.698370	-0.090027	0.520510	0.014205	0.848977
35605	8.853968	-0.704818	4.663389	-0.088292	0.524258	0.012264	0.846881
35606	8.899166	-0.743234	4.635390	-0.086481	0.528733	0.010160	0.844310
35607	8.905761	-0.797301	4.454426	-0.084720	0.533928	0.008130	0.841236
35608	9.003926	-0.792480	4.346803	-0.083231	0.539264	0.006719	0.837987
35609	9.042709	-0.799490	4.162865	-0.082179	0.544259	0.006161	0.834860
35610	8.907508	-0.757162	4.105518	-0.081533	0.548832	0.005980	0.831925
35611	8.829741	-0.753825	4.176579	-0.080844	0.553371	0.005582	0.828983
35612	9.293984	-0.738537	3.421763	-0.080295	0.556806	0.005008	0.826737
35613	8.992941	-0.711243	3.900588	-0.079557	0.557369	0.004047	0.826435
35614	8.866455	-0.676803	4.086819	-0.079184	0.557765	0.003486	0.826206
35615	8.913651	-0.729677	3.957629	-0.078992	0.557737	0.003064	0.826245
35616	8.929987	-0.820382	3.937446	-0.078870	0.557222	0.002909	0.826604
35617	8.804436	-0.885780	3.914972	-0.078921	0.556751	0.002941	0.826916
35618	8.841254	-0.747446	3.719648	-0.079079	0.555708	0.002788	0.827603
35619	8.968339	-0.783239	4.123055	-0.079326	0.553814	0.002657	0.828849
35620	9.102237	-0.753597	4.124903	-0.079454	0.551924	0.002487	0.830097
35621	9.169660	-0.815368	4.095304	-0.079601	0.549976	0.002479	0.831375
35622	9.163725	-0.892986	3.937229	-0.079788	0.547595	0.002582	0.832927
35623	8.916564	-0.814798	4.078072	-0.079883	0.545244	0.002392	0.834459
35624	9.032203	-0.867977	3.982541	-0.080043	0.542609	0.002395	0.836160
35625	8.850839	-0.861652	4.145169	-0.080089	0.540008	0.002286	0.837838
35626	9.011335	-0.828531	4.165070	-0.080194	0.537284	0.002165	0.839577
35627	9.155226	-0.719327	4.180207	-0.080174	0.534507	0.001914	0.841351
35628	9.117249	-0.744704	4.086273	-0.080130	0.531403	0.001612	0.843320
35629	8.931648	-0.795362	4.059621	-0.080176	0.528127	0.001385	0.845371
35630	8.930317	-0.810185	4.062576	-0.080137	0.524863	0.001114	0.847405
35631	8.809812	-0.846547	3.988292	-0.080056	0.521636	0.000917	0.849403
35632	8.593350	-0.749274	4.040255	-0.079796	0.518527	0.000619	0.851330
35633	8.338936	-0.751904	4.225223	-0.079757	0.515837	0.000482	0.852966
35634	8.173996	-0.833167	4.344786	-0.079919	0.513684	0.000552	0.854249
35635	8.142282	-0.794685	4.527033	-0.080093	0.512079	0.000701	0.855196
35636	8.162115	-0.822464	4.543577	-0.080266	0.511082	0.000902	0.855776
35637	8.135985	-0.844592	4.627007	-0.080477	0.510644	0.001231	0.856017
35638	8.267180	-0.900467	4.612992	-0.080770	0.510794	0.001684	0.855899
35639	8.539779	-0.911258	4.615323	-0.081190	0.511245	0.002306	0.855588
35640	8.750340	-0.945719	4.698635	-0.081638	0.511803	0.002898	0.855210
35641	8.783508	-1.006352	4.626314	-0.082187	0.512288	0.003505	0.854865
35642	8.795529	-1.001544	4.663046	-0.082725	0.512753	0.004017	0.854532
35643	8.812172	-0.981630	4.552313	-0.083317	0.513282	0.004442	0.854155
35644	8.797664	-1.059480	4.418023	-0.083864	0.513732	0.004814	0.853828
35645	8.780985	-1.074429	4.300721	-0.084503	0.514176	0.005223	0.853496
35646	8.758517	-1.081248	4.229914	-0.085032	0.514733	0.005588	0.853105
35647	8.756007	-1.099159	4.092988	-0.085526	0.515438	0.005932	0.852628
35648	8.814064	-1.163895	3.956188	-0.086011	0.516216	0.006318	0.852105
35649	8.823521	-1.297969	3.938478	-0.086395	0.516976	0.006781	0.851602
35650	8.868386	-1.510361	3.976786	-0.086850	0.517687	0.007383	0.851119
35651	8.802435	-1.641312	4.130321	-0.087321	0.518266	0.008151	0.850711
35652	8.629711	-1.624741	4.324231	-0.087991	0.518816	0.009167	0.850296
35653	8.298159	-1.544358	4.446465	-0.088678	0.519559	0.010221	0.849759
35654	8.131641	-1.650124	4.364456	-0.089246	0.520681	0.011233	0.849000
35655	8.152007	-1.770030	4.462097	-0.089749	0.522181	0.012281	0.848010
35656	7.991489	-1.668433	4.579519	-0.090153	0.524195	0.013400	0.846707
35657	7.619723	-1.721464	4.674660	-0.090368	0.527159	0.014357	0.844826
35658	7.866228	-1.947191	4.249774	-0.090724	0.531052	0.015289	0.842330
35659	8.213593	-2.081472	4.353613	-0.091253	0.534968	0.016356	0.839770
35660	8.572946	-2.271303	4.288032	-0.091870	0.538879	0.017661	0.837172
35661	8.732403	-2.255937	4.308757	-0.092324	0.542728	0.019181	0.834599
35662	8.758622	-2.198285	4.210931	-0.092371	0.546720	0.020568	0.831950
35663	9.014756	-2.197958	4.166005	-0.091799	0.550484	0.021683	0.829500
35664	9.317880	-2.212971	4.082295	-0.090904	0.553886	0.022693	0.827304
35665	9.482185	-2.066154	3.946335	-0.089660	0.556902	0.023411	0.825393
35666	9.584759	-1.956918	3.935040	-0.088063	0.559610	0.023952	0.823716
35667	9.560980	-1.778620	3.898403	-0.085968	0.562145	0.024266	0.822200
35668	9.455801	-1.546930	3.783286	-0.083412	0.564442	0.024327	0.820887
35669	9.459419	-1.233494	3.644108	-0.080471	0.566721	0.024170	0.819615
35670	9.933440	-0.854288	3.510764	-0.077231	0.568836	0.023835	0.818470
35671	10.490956	-0.327812	3.674682	-0.073687	0.570583	0.023239	0.817597
35672	10.500055	0.029068	3.455020	-0.069851	0.572085	0.022189	0.816913
35673	9.794194	0.241908	3.163286	-0.065745	0.573405	0.020715	0.816367
35674	9.228258	0.614944	2.851225	-0.061147	0.574779	0.018696	0.815806
35675	9.100474	0.855381	2.680053	-0.056147	0.576275	0.016389	0.815160
35676	9.314542	1.069597	2.782300	-0.050811	0.577700	0.013798	0.814549
35677	9.758301	0.997064	3.062298	-0.045318	0.578868	0.010886	0.814088
35678	9.727074	0.790180	3.183058	-0.040127	0.579620	0.007939	0.813860
35679	9.389990	0.604309	3.125794	-0.035339	0.580080	0.005075	0.813777
35680	9.372831	0.536494	3.059321	-0.031089	0.580433	0.002400	0.813711
35681	9.646084	0.650673	3.134381	-0.027227	0.580690	-0.000131	0.813669
35682	9.845488	0.685872	3.328138	-0.023702	0.580765	-0.002480	0.813722
35683	9.757100	0.768325	3.492544	-0.020557	0.580476	-0.004638	0.814004
35684	9.407418	0.761515	3.403515	-0.017742	0.579981	-0.006744	0.814409
35685	9.067347	0.706249	3.346508	-0.015156	0.579349	-0.008926	0.814890
35686	8.863048	0.773575	3.274803	-0.012734	0.578750	-0.011231	0.815328
35687	8.887444	0.862609	3.180226	-0.010295	0.578325	-0.013700	0.815627
35688	9.107500	0.810290	3.231678	-0.007699	0.577982	-0.016369	0.815849
35689	9.374801	0.651892	3.233127	-0.005264	0.577645	-0.019031	0.816049
35690	9.316107	0.462666	3.351343	-0.003009	0.577204	-0.021681	0.816306
35691	9.278020	0.291978	3.313151	-0.001079	0.576692	-0.024290	0.816599
35692	9.246021	0.257140	3.409468	0.000618	0.575953	-0.026761	0.817045
35693	9.360793	0.392554	3.502686	0.002191	0.574989	-0.029167	0.817638
35694	9.588829	0.351476	3.733689	0.003731	0.573801	-0.031529	0.818379
35695	9.371787	0.228320	3.924208	0.005227	0.572416	-0.033803	0.819250
35696	8.996283	0.153822	3.776079	0.006502	0.571110	-0.035888	0.820063
35697	8.639911	0.143516	3.660767	0.007769	0.570113	-0.038075	0.820647
35698	8.635586	-0.126300	3.472450	0.008934	0.569564	-0.040320	0.820909
35699	8.628701	-0.375102	3.595485	0.010015	0.568969	-0.042565	0.821195
35700	8.626711	-0.413577	3.728573	0.011061	0.568427	-0.044784	0.821440
35701	8.697024	-0.277415	3.715133	0.012260	0.567931	-0.047061	0.821638
35702	8.533694	-0.225586	3.704867	0.013484	0.567440	-0.049207	0.821832
35703	8.334505	-0.441370	3.688868	0.014627	0.567081	-0.051149	0.821943
35704	8.177135	-0.666969	3.654102	0.015590	0.566992	-0.052881	0.821876
35705	8.313386	-0.907635	3.634108	0.016234	0.567320	-0.054437	0.821536
35706	8.640960	-0.889566	3.646628	0.016588	0.567934	-0.055832	0.821011
35707	9.027289	-0.800825	3.710816	0.016757	0.568738	-0.057122	0.820362
35708	9.095245	-0.621205	3.642648	0.016803	0.569599	-0.058193	0.819688
35709	9.176937	-0.637178	3.458470	0.016780	0.570534	-0.059045	0.818977
35710	9.420329	-0.980406	3.148164	0.016529	0.571520	-0.059671	0.818249
35711	9.810182	-1.208769	3.361444	0.016114	0.572407	-0.060171	0.817600
35712	9.829966	-1.259340	3.037142	0.015575	0.573277	-0.060581	0.816971
35713	9.873882	-1.312804	3.070921	0.014949	0.574177	-0.061007	0.816319
35714	10.030166	-1.359856	3.004345	0.014175	0.574992	-0.061245	0.815740
35715	10.233429	-1.414031	2.992980	0.013294	0.575705	-0.061191	0.815256
35716	10.199969	-1.286360	2.937911	0.012437	0.576138	-0.060958	0.814981
35717	10.230280	-1.211192	3.083236	0.011644	0.576189	-0.060581	0.814985
35718	9.854550	-1.037213	3.296582	0.010975	0.575825	-0.059996	0.815295
35719	9.543100	-0.925667	3.307027	0.010316	0.575178	-0.059186	0.815819
35720	9.427044	-0.828089	3.441799	0.009612	0.574285	-0.058101	0.816535
35721	9.255898	-0.724573	3.377724	0.008911	0.573200	-0.056740	0.817400
35722	9.451012	-0.562168	3.489428	0.008149	0.571923	-0.055127	0.818412
35723	9.421722	-0.503278	3.482251	0.007279	0.570358	-0.053303	0.819633
35724	9.297587	-0.389610	3.538047	0.006271	0.568553	-0.051361	0.821018
35725	9.084296	-0.396739	3.344006	0.005175	0.566647	-0.049458	0.822459
35726	8.957438	-0.398839	3.203727	0.004034	0.564793	-0.047709	0.823843
35727	9.230899	-0.353862	3.312434	0.002996	0.562924	-0.046210	0.825211
35728	9.596372	-0.270477	3.476524	0.001892	0.560947	-0.044863	0.826633
35729	9.782015	-0.269732	3.849665	0.000703	0.558590	-0.043530	0.828300
35730	9.409669	-0.164688	3.921992	-0.000669	0.555821	-0.042073	0.830236
35731	8.730088	-0.196601	4.040995	-0.002312	0.552958	-0.040543	0.832219
35732	8.200201	-0.129794	3.932344	-0.004221	0.550286	-0.038970	0.834056
35733	8.560785	0.119487	4.101464	-0.006181	0.547832	-0.037453	0.835727
35734	9.109960	0.149598	4.558189	-0.008067	0.545346	-0.036019	0.837398
35735	9.107809	0.146636	4.462486	-0.010036	0.542827	-0.034512	0.839075
35736	8.710381	0.049406	4.637603	-0.011882	0.540412	-0.033245	0.840660
35737	7.987464	-0.091631	4.423855	-0.013840	0.538225	-0.032054	0.842078
35738	7.866522	0.106286	4.259900	-0.015922	0.536668	-0.030905	0.843077
35739	8.617443	0.286092	4.351388	-0.017901	0.535649	-0.029914	0.843721
35740	9.416251	0.212544	4.624714	-0.019751	0.534647	-0.028947	0.844349
35741	9.571979	0.181281	4.813414	-0.021600	0.533326	-0.027931	0.845173
35742	8.976432	0.157847	4.767756	-0.023399	0.531785	-0.026931	0.846128
35743	8.218828	0.149905	4.437480	-0.025315	0.530495	-0.025988	0.846911
35744	8.038405	0.282365	4.219293	-0.027353	0.529733	-0.025200	0.847349
35745	8.567198	0.505359	4.384866	-0.029330	0.529485	-0.024629	0.847454
35746	8.970947	0.526513	4.763062	-0.031234	0.529229	-0.024188	0.847559
35747	8.875819	0.562221	4.852920	-0.033011	0.528706	-0.023867	0.847827
35748	8.498985	0.538182	4.692814	-0.034640	0.528085	-0.023624	0.848156
35749	8.066269	0.398647	4.555806	-0.036163	0.527714	-0.023495	0.848327
35750	7.868099	0.379101	4.019678	-0.037639	0.528103	-0.023472	0.848021
35751	8.041761	0.267282	4.072337	-0.038889	0.529062	-0.023699	0.847360
35752	8.285290	0.296637	3.990179	-0.039958	0.530430	-0.024079	0.846444
35753	8.408341	0.156784	3.867083	-0.040866	0.531955	-0.024608	0.845428
35754	8.238549	-0.219642	3.802801	-0.041686	0.533592	-0.025304	0.844335
35755	8.290801	-0.502029	3.848714	-0.042334	0.535319	-0.026266	0.843179
35756	8.341102	-0.845095	3.918238	-0.042595	0.537171	-0.027632	0.841944
35757	8.561689	-1.194923	3.953217	-0.042440	0.539182	-0.029247	0.840611
35758	8.937803	-1.482257	3.975026	-0.041924	0.541336	-0.030931	0.839191
35759	9.067221	-1.744988	3.922733	-0.041173	0.543653	-0.032664	0.837663
35760	9.030472	-1.994156	3.818703	-0.040265	0.546230	-0.034383	0.835960
35761	9.125134	-2.259994	3.673188	-0.039266	0.549015	-0.036027	0.834112
35762	9.215370	-2.370734	3.641843	-0.038202	0.551767	-0.037505	0.832278
35763	9.434703	-2.455623	3.449666	-0.037133	0.554265	-0.038656	0.830613
35764	9.598610	-2.517496	3.293599	-0.036185	0.556158	-0.039428	0.829352
35765	9.711383	-2.399423	3.318246	-0.035490	0.557423	-0.039721	0.828518
35766	9.713116	-2.349418	3.375324	-0.035194	0.558173	-0.039618	0.828030
35767	9.708101	-2.318342	3.406389	-0.035342	0.558518	-0.039125	0.827815
35768	9.655256	-2.227501	3.489662	-0.035894	0.558692	-0.038411	0.827708
35769	9.646013	-1.927476	3.538146	-0.036719	0.558956	-0.037616	0.827530
35770	9.739447	-1.571226	3.451282	-0.037688	0.559294	-0.036831	0.827293
35771	9.741762	-1.301985	3.513334	-0.038588	0.559694	-0.036066	0.827015
35772	9.686779	-1.079194	3.437599	-0.039247	0.560046	-0.035347	0.826776
35773	9.480805	-0.891591	3.288300	-0.039676	0.560379	-0.034630	0.826560
35774	9.340029	-1.000131	3.052735	-0.040019	0.560848	-0.034072	0.826248
35775	9.365166	-1.094356	3.275214	-0.040387	0.561024	-0.033666	0.826128
35776	9.426339	-0.989734	3.336099	-0.040814	0.560969	-0.033331	0.826158
35777	9.381337	-0.933328	3.399431	-0.041245	0.560528	-0.032916	0.826453
35778	9.313315	-0.820294	3.430353	-0.041760	0.559779	-0.032479	0.826951
35779	9.382704	-0.733425	3.660615	-0.042296	0.558720	-0.032047	0.827657
35780	9.301232	-0.572688	3.785953	-0.042903	0.557257	-0.031599	0.828628
35781	9.203865	-0.350891	3.956742	-0.043592	0.555521	-0.031312	0.829768
35782	8.937713	-0.272421	3.912546	-0.044399	0.553601	-0.031191	0.831012
35783	8.556343	-0.182262	3.838113	-0.045298	0.551705	-0.031351	0.832218
35784	8.478441	-0.045690	3.760493	-0.046312	0.550092	-0.031736	0.833215
35785	8.447518	0.059648	3.632950	-0.047456	0.548676	-0.032432	0.834057
35786	8.509611	0.149304	3.552038	-0.048698	0.547436	-0.033382	0.834762
35787	8.426511	0.281520	3.451654	-0.049889	0.546246	-0.034569	0.835423
35788	8.454568	0.459949	3.231832	-0.050967	0.545274	-0.035925	0.835936
35789	8.566370	0.653143	3.321204	-0.051712	0.544338	-0.037642	0.836424
35790	8.972952	0.530554	3.370701	-0.052309	0.543622	-0.039515	0.836766
35791	9.435288	0.377455	3.358095	-0.053039	0.542931	-0.041267	0.837084
35792	9.530418	0.270450	3.373392	-0.053895	0.542236	-0.042908	0.837397
35793	9.878649	-0.037703	3.535207	-0.054920	0.541361	-0.044399	0.837819
35794	10.161943	-0.444472	3.563973	-0.056217	0.540136	-0.045786	0.838449
35795	10.019141	-0.888579	3.707940	-0.057897	0.538629	-0.047206	0.839225
35796	10.260864	-1.304145	4.048068	-0.059977	0.537091	-0.048744	0.839976
35797	10.551694	-1.655751	4.336880	-0.062357	0.535461	-0.050459	0.840742
35798	10.688907	-2.022217	4.586655	-0.065124	0.533752	-0.051898	0.841531
35799	10.159111	-2.227303	4.657230	-0.068226	0.531983	-0.052667	0.842357
35800	9.186275	-2.389443	4.468986	-0.071616	0.530357	-0.052496	0.843111
35801	8.379192	-2.555808	4.382756	-0.075447	0.529306	-0.051447	0.843502
35802	7.875612	-2.694591	4.143274	-0.079799	0.529037	-0.049770	0.843371
35803	7.818125	-2.847116	4.125632	-0.084519	0.529405	-0.047778	0.842796
35804	8.145537	-2.988553	4.297391	-0.089366	0.530072	-0.045627	0.841995
35805	8.553987	-3.044886	4.554613	-0.094058	0.530582	-0.043423	0.841279
35806	8.764167	-2.935111	4.732770	-0.098424	0.530689	-0.041249	0.840821
35807	8.508713	-2.677948	4.739599	-0.102521	0.530463	-0.039095	0.840577
35808	8.118623	-2.732432	4.719294	-0.106437	0.530171	-0.036998	0.840370
35809	7.895346	-2.846665	4.675673	-0.110317	0.530250	-0.034853	0.839911
35810	7.863781	-2.720917	4.885530	-0.114080	0.530632	-0.032869	0.839247
35811	7.614030	-2.622951	4.704535	-0.117836	0.531483	-0.031068	0.838257
35812	7.699839	-2.673342	4.439707	-0.121521	0.532641	-0.029485	0.837052
35813	7.862324	-2.756452	4.296483	-0.125133	0.534010	-0.027979	0.835699
35814	8.235657	-2.654076	4.280202	-0.128437	0.535364	-0.026553	0.834377
35815	8.552162	-2.479058	4.265221	-0.131382	0.536561	-0.025178	0.833191
35816	8.489473	-2.408650	4.179679	-0.133875	0.537433	-0.023882	0.832270
35817	8.401112	-2.322763	4.118425	-0.136069	0.538020	-0.022634	0.831569
35818	8.356947	-2.302201	3.969006	-0.138169	0.538452	-0.021443	0.830975
35819	8.378502	-2.464909	3.869335	-0.140230	0.538765	-0.020433	0.830452
35820	8.248056	-2.571537	3.718203	-0.142248	0.538827	-0.019631	0.830087
35821	8.159105	-2.476934	3.959381	-0.144138	0.538581	-0.019123	0.829933
35822	8.114159	-2.350909	4.149979	-0.145903	0.538056	-0.018858	0.829971
35823	8.020299	-2.259003	4.115533	-0.147522	0.537190	-0.018709	0.830249
35824	7.927089	-2.124395	4.138624	-0.149081	0.536160	-0.018708	0.830637
35825	7.942291	-2.238958	4.211758	-0.150647	0.535217	-0.018712	0.830962
35826	8.171273	-2.366778	4.212447	-0.152093	0.534578	-0.018911	0.831106
35827	8.329826	-2.449727	4.324157	-0.153435	0.534251	-0.019309	0.831060
35828	8.443413	-2.441789	4.197167	-0.154529	0.534063	-0.019877	0.830965
35829	8.651934	-2.379640	4.405602	-0.155320	0.533855	-0.020542	0.830935
35830	8.693485	-2.254484	4.438627	-0.155802	0.533476	-0.021220	0.831071
35831	8.626739	-2.163258	4.409032	-0.155998	0.533104	-0.021845	0.831257
35832	8.459862	-2.274895	4.413293	-0.156234	0.532918	-0.022189	0.831322
35833	8.417170	-2.354445	4.371393	-0.156585	0.532967	-0.022308	0.831221
35834	8.432603	-2.333481	4.463974	-0.157135	0.533166	-0.022214	0.830993
35835	8.389770	-2.192270	4.340221	-0.157797	0.533489	-0.021991	0.830666
35836	8.270195	-2.078708	4.178313	-0.158411	0.534157	-0.021754	0.830126
35837	8.529188	-2.020467	4.004667	-0.158798	0.535002	-0.021638	0.829511
35838	9.252786	-1.920780	4.256169	-0.158914	0.535782	-0.021735	0.828982
35839	9.791123	-1.845481	4.374969	-0.158751	0.536343	-0.021974	0.828644
35840	9.628093	-1.978735	4.342265	-0.158472	0.536867	-0.022186	0.828353
35841	9.507354	-2.233901	4.100457	-0.158306	0.537789	-0.022275	0.827784
35842	9.750629	-2.580032	4.209685	-0.158174	0.538875	-0.022383	0.827100
35843	10.118292	-2.652759	4.533594	-0.157996	0.539675	-0.022687	0.826604
35844	10.104568	-2.409760	4.752160	-0.157739	0.539819	-0.023141	0.826546
35845	9.627920	-2.095569	4.618908	-0.157548	0.538990	-0.023521	0.827113
35846	9.016198	-2.099407	4.352575	-0.157440	0.537539	-0.023842	0.828068
35847	8.816960	-2.267289	4.327954	-0.157350	0.535960	-0.024208	0.829097
35848	8.338284	-2.133271	4.473861	-0.157120	0.534709	-0.024847	0.829929
35849	8.286250	-1.761347	4.393662	-0.156685	0.533846	-0.025792	0.830538
35850	7.781015	-1.539621	4.239696	-0.155960	0.533637	-0.027046	0.830769
35851	7.694630	-1.737399	4.081961	-0.154927	0.533995	-0.028539	0.830682
35852	8.024032	-2.028721	4.049476	-0.153653	0.534703	-0.030380	0.830398
35853	8.702979	-2.174979	4.558300	-0.152240	0.535492	-0.032556	0.830067
35854	8.608220	-2.052225	4.620740	-0.150622	0.536188	-0.034950	0.829816
35855	8.337679	-2.081432	4.611837	-0.148874	0.536723	-0.037420	0.829677
35856	7.789932	-2.129932	4.275957	-0.147004	0.537218	-0.039966	0.829572
35857	8.021333	-2.486302	4.310752	-0.145200	0.537750	-0.042563	0.829416
35858	8.453431	-2.677718	4.573129	-0.143453	0.538336	-0.045346	0.829192
35859	8.422778	-2.523972	4.647112	-0.141702	0.538971	-0.048309	0.828913
35860	7.895987	-2.322316	4.429779	-0.139952	0.539756	-0.051415	0.828513
35861	7.132350	-2.296640	3.850371	-0.138129	0.540877	-0.054556	0.827886
35862	7.273358	-2.743895	3.363227	-0.136351	0.542420	-0.057676	0.826959
35863	8.587841	-3.135465	3.772658	-0.134278	0.543884	-0.061352	0.826073
35864	9.204501	-3.102714	4.174188	-0.131964	0.545039	-0.065215	0.825388
35865	8.959382	-2.907002	4.234497	-0.129494	0.545871	-0.069070	0.824915
35866	8.073981	-2.808387	3.925422	-0.127020	0.546591	-0.072560	0.824524
35867	7.607922	-3.128163	3.217317	-0.124741	0.547443	-0.075708	0.824023
35868	8.086558	-3.449032	3.207586	-0.122618	0.548322	-0.078877	0.823460
35869	8.806112	-3.648546	3.833161	-0.120406	0.548900	-0.082417	0.823054
35870	8.579808	-3.491824	4.100466	-0.117974	0.548970	-0.086151	0.822978
35871	8.141189	-3.302569	4.070766	-0.115413	0.548788	-0.089764	0.823076
35872	7.785718	-3.409408	3.397324	-0.112891	0.548739	-0.093072	0.823091
35873	7.903477	-3.665729	3.015553	-0.110502	0.549122	-0.096123	0.822809
35874	8.579897	-3.959256	3.252063	-0.108276	0.549494	-0.099016	0.822514
35875	9.010154	-4.038185	3.886363	-0.106136	0.549397	-0.101818	0.822515
35876	8.641479	-3.837771	4.039199	-0.103977	0.549021	-0.104381	0.822721
35877	8.313350	-3.838715	3.892194	-0.101932	0.548435	-0.106500	0.823095
35878	7.900776	-3.877820	3.685078	-0.100109	0.547822	-0.108197	0.823506
35879	7.571660	-3.976793	3.527629	-0.098662	0.547350	-0.109484	0.823825
35880	7.328107	-3.838757	3.258298	-0.097656	0.547202	-0.110259	0.823940
35881	7.387931	-3.866406	2.968174	-0.097066	0.547518	-0.110714	0.823738
35882	7.760589	-4.012450	2.995268	-0.096722	0.548169	-0.110839	0.823329
35883	8.386763	-4.143246	2.983920	-0.096362	0.548994	-0.110896	0.822814
35884	8.873660	-4.251959	3.285191	-0.095731	0.549791	-0.110937	0.822349
35885	9.003337	-4.141059	3.548964	-0.094771	0.550411	-0.111073	0.822027
35886	9.208078	-4.076768	3.696405	-0.093793	0.550884	-0.111124	0.821816
35887	8.849543	-3.902520	3.788232	-0.092720	0.551148	-0.111234	0.821746
35888	8.727885	-3.866679	3.717635	-0.091785	0.551431	-0.111409	0.821637
35889	9.022302	-3.686446	3.648051	-0.090956	0.551647	-0.111485	0.821574
35890	8.770550	-3.538330	4.018311	-0.090108	0.551953	-0.111519	0.821457
35891	8.616896	-3.457850	3.759470	-0.089315	0.552431	-0.111374	0.821242
35892	9.016511	-3.320473	3.706539	-0.088666	0.553196	-0.110980	0.820851
35893	9.239641	-3.203896	3.759561	-0.088029	0.553976	-0.110349	0.820479
35894	9.169375	-3.066504	3.705731	-0.087348	0.554741	-0.109487	0.820149
35895	9.170088	-2.998857	3.796404	-0.086576	0.555250	-0.108531	0.820014
35896	9.843463	-2.725388	3.750914	-0.085809	0.555928	-0.107450	0.819778
35897	10.275131	-2.509342	4.163734	-0.084710	0.556943	-0.106588	0.819316
35898	10.496571	-2.157147	4.199624	-0.083434	0.558647	-0.105717	0.818399
35899	9.631611	-1.936770	3.997084	-0.081914	0.560205	-0.104975	0.817582
35900	9.708683	-1.833884	3.479243	-0.080315	0.561694	-0.104099	0.816831
35901	9.121884	-1.634476	3.535792	-0.078232	0.562929	-0.103240	0.816292
35902	8.444462	-1.399650	3.380503	-0.075823	0.564181	-0.102260	0.815778
35903	8.197227	-1.362497	3.171318	-0.073029	0.565382	-0.101383	0.815311
35904	8.544883	-1.378768	2.933248	-0.069813	0.566825	-0.100446	0.814706
35905	9.070007	-1.324377	2.847444	-0.066169	0.568215	-0.099459	0.814163
35906	9.284834	-1.252524	3.017603	-0.062338	0.569735	-0.098266	0.813548
35907	9.625086	-1.246255	2.963400	-0.058246	0.571083	-0.096846	0.813076
35908	9.625035	-1.323676	3.231316	-0.053741	0.572121	-0.095266	0.812843
35909	9.667650	-1.307250	3.202909	-0.049079	0.572775	-0.093448	0.812888
35910	9.536193	-1.089524	3.249762	-0.044326	0.572744	-0.091527	0.813402
35911	9.336828	-0.967547	3.275294	-0.039611	0.572148	-0.089540	0.814285
35912	9.191637	-0.903440	3.261283	-0.034921	0.571234	-0.087509	0.815362
35913	9.164724	-0.957039	3.265013	-0.030466	0.570133	-0.085442	0.816529
35914	9.095217	-0.985560	3.355553	-0.026491	0.568853	-0.083281	0.817783
35915	9.075857	-0.970828	3.383047	-0.023191	0.567495	-0.081007	0.819054
35916	9.114947	-0.920472	3.537389	-0.020587	0.566033	-0.078651	0.820364
35917	9.120345	-0.934503	3.573083	-0.018580	0.564483	-0.076178	0.821712
35918	9.101628	-0.852147	3.610779	-0.016999	0.562831	-0.073702	0.823104
35919	9.159216	-0.747813	3.653023	-0.015636	0.561047	-0.071400	0.824551
35920	9.068243	-0.641930	3.748216	-0.014295	0.559236	-0.069320	0.825982
35921	8.929566	-0.639250	3.975874	-0.012502	0.557910	-0.067904	0.827024
35922	8.908583	-0.696712	3.817173	-0.010406	0.557010	-0.066906	0.827741
35923	9.061924	-0.537207	3.714990	-0.008425	0.556134	-0.065926	0.828431
35924	9.080791	-0.510359	3.730896	-0.006478	0.555172	-0.064851	0.829178
35925	9.034639	-0.365048	3.712370	-0.004318	0.553936	-0.063650	0.830112
35926	8.847365	-0.301863	4.168143	-0.001249	0.553307	-0.063331	0.830565
35927	8.913259	-0.423252	3.652885	0.002179	0.553037	-0.063486	0.830732
35928	9.070749	-0.328845	3.575448	0.005926	0.552633	-0.064002	0.830942
35929	8.953010	-0.322217	3.444028	0.009593	0.552036	-0.064435	0.831272
35930	9.009291	-0.324822	3.729304	0.013349	0.551304	-0.065018	0.831660
35931	8.986636	-0.500210	3.880264	0.017138	0.550703	-0.065973	0.831913
35932	9.240948	-0.538031	3.509703	0.020804	0.550136	-0.067153	0.832110
35933	9.167766	-0.677865	3.406069	0.024318	0.549373	-0.068459	0.832413
35934	9.008878	-0.577824	3.739015	0.027640	0.548832	-0.070031	0.832536
35935	9.148889	-0.670180	3.404386	0.030358	0.548209	-0.071360	0.832738
35936	9.125053	-0.724265	3.538351	0.032836	0.547273	-0.072591	0.833153
35937	9.191113	-0.853079	3.744339	0.034976	0.546334	-0.073779	0.833578
35938	9.142996	-0.854447	3.732757	0.036819	0.545320	-0.074864	0.834066
35939	9.229279	-0.860050	3.640523	0.038454	0.544208	-0.075910	0.834624
35940	9.155363	-0.828862	3.804252	0.039891	0.542852	-0.076774	0.835360
35941	9.132296	-0.760820	3.769549	0.041168	0.541473	-0.077554	0.836120
35942	9.035540	-0.875111	3.963068	0.042280	0.540140	-0.078283	0.836859
35943	8.969997	-0.836960	3.915902	0.043272	0.538903	-0.078895	0.837548
35944	8.963804	-0.874910	3.937511	0.044112	0.537735	-0.079496	0.838197
35945	9.031721	-0.810730	4.004816	0.044909	0.536629	-0.080086	0.838808
35946	8.948276	-0.766631	3.992616	0.045761	0.535511	-0.080694	0.839418
35947	8.920183	-0.824484	4.070335	0.046629	0.534417	-0.081289	0.840009
35948	8.927411	-0.859807	4.072694	0.047420	0.533363	-0.081820	0.840583
35949	8.947223	-0.875917	4.166588	0.048227	0.532347	-0.082323	0.841133
35950	8.942667	-0.865190	4.192972	0.049033	0.531338	-0.082770	0.841679
35951	8.917684	-0.895882	4.180197	0.049900	0.530469	-0.083229	0.842131
35952	8.980232	-0.875465	4.201403	0.050728	0.529749	-0.083716	0.842487
35953	8.942516	-0.888439	4.227563	0.051562	0.529101	-0.084286	0.842787
35954	8.849799	-0.886794	4.198648	0.052515	0.528421	-0.084912	0.843092
35955	8.766326	-0.853796	4.168710	0.053550	0.527804	-0.085639	0.843339
35956	8.794955	-0.906926	4.181454	0.054714	0.527283	-0.086500	0.843502
35957	8.868168	-0.945166	4.097618	0.055984	0.526688	-0.087387	0.843700
35958	8.880158	-0.925152	4.151871	0.057336	0.526100	-0.088323	0.843878
35959	8.836771	-0.976571	4.052078	0.058723	0.525515	-0.089198	0.844055
35960	8.782662	-0.956482	4.094274	0.060094	0.524848	-0.089941	0.844295
35961	8.747566	-0.935732	4.219763	0.061474	0.524264	-0.090739	0.844473
35962	8.768255	-0.930217	4.264531	0.062898	0.523672	-0.091600	0.844643
35963	8.809081	-0.978753	4.329100	0.064439	0.522937	-0.092516	0.844882
35964	8.803760	-1.025196	4.264758	0.065983	0.522080	-0.093331	0.845203
35965	8.828094	-1.014876	4.332682	0.067652	0.521349	-0.094337	0.845410
35966	9.000313	-1.088646	4.255447	0.069278	0.520564	-0.095382	0.845645
35967	8.907303	-1.105785	4.385617	0.070995	0.519631	-0.096469	0.845953
35968	8.777935	-1.066059	4.502595	0.072835	0.518648	-0.097527	0.846279
35969	8.717649	-1.075999	4.566223	0.074793	0.517841	-0.098640	0.846473
35970	8.826907	-1.035102	4.492056	0.076872	0.517077	-0.099808	0.846617
35971	8.846903	-1.077299	4.527731	0.079044	0.516247	-0.101031	0.846778
35972	8.767975	-1.119523	4.535876	0.081201	0.515395	-0.102176	0.846956
35973	8.715522	-1.140679	4.641186	0.083359	0.514582	-0.103363	0.847097
35974	8.748111	-1.120408	4.593699	0.085506	0.513757	-0.104566	0.847235
35975	8.749210	-1.144177	4.520801	0.087646	0.512886	-0.105750	0.847398
35976	8.816824	-1.117147	4.562867	0.089739	0.512019	-0.106827	0.847568
35977	8.848287	-1.198032	4.625966	0.091711	0.511104	-0.107902	0.847773
35978	8.659882	-1.136794	4.586347	0.093582	0.510186	-0.108875	0.847997
35979	8.480938	-1.089914	4.676136	0.095287	0.509405	-0.109852	0.848151
35980	8.374009	-1.036705	4.427503	0.096810	0.508977	-0.110692	0.848126
35981	8.459462	-0.960137	4.545488	0.098408	0.508789	-0.111636	0.847931
35982	8.604373	-0.991647	4.459698	0.099968	0.508797	-0.112453	0.847636
35983	8.643738	-1.067251	4.417016	0.101545	0.508933	-0.113180	0.847270
35984	8.730644	-1.041726	4.417796	0.103058	0.509230	-0.113871	0.846816
35985	8.848165	-1.051222	4.371378	0.104420	0.509698	-0.114477	0.846286
35986	8.839721	-1.100959	4.339903	0.105594	0.510215	-0.115023	0.845754
35987	8.821106	-1.084316	4.265612	0.106544	0.510790	-0.115554	0.845215
35988	8.867652	-1.009423	4.370974	0.107384	0.511234	-0.116099	0.844766
35989	8.807968	-1.001689	4.549597	0.108097	0.511529	-0.116590	0.844428
35990	8.757372	-0.940831	4.589318	0.108660	0.511734	-0.116972	0.844180
35991	8.747716	-0.778307	4.592585	0.109188	0.511792	-0.117449	0.844010
35992	8.827711	-0.690424	4.522986	0.109567	0.511721	-0.117931	0.843937
35993	8.870235	-0.675313	4.500179	0.109756	0.511403	-0.118299	0.844053
35994	8.864371	-0.576862	4.544310	0.109966	0.510923	-0.118670	0.844265
