// Start Time: Unknown
// Update Rate: 60.0Hz
// Filter Profile: human (46.1)
// Option Flags: AHS Disabled ICC Disabled 
// Firmware Version: 4.3.5
PacketCounter	Acc_X	Acc_Y	Acc_Z	Quat_q0	Quat_q1	Quat_q2	Quat_q3
43442	-9.703462	0.909949	-0.575960	0.684183	0.018881	0.727809	0.042806
43443	-9.710405	0.910351	-0.549346	0.684142	0.018924	0.727858	0.042602
43444	-9.709673	0.923233	-0.597464	0.684114	0.018965	0.727894	0.042403
43445	-9.719950	0.924164	-0.616798	0.684095	0.018957	0.727922	0.042244
43446	-9.734508	0.911242	-0.575522	0.684070	0.018908	0.727953	0.042125
43447	-9.717896	0.904734	-0.466615	0.684060	0.018837	0.727971	0.042020
43448	-9.693285	0.834281	-0.517488	0.684032	0.018787	0.728005	0.041898
43449	-9.718523	0.885150	-0.545000	0.683968	0.018817	0.728077	0.041691
43450	-9.711647	0.880819	-0.576058	0.683907	0.018752	0.728142	0.041579
43451	-9.717000	0.834395	-0.606781	0.683854	0.018669	0.728200	0.041485
43452	-9.734749	0.822146	-0.612704	0.683801	0.018626	0.728258	0.041354
43453	-9.746967	0.853900	-0.650525	0.683772	0.018617	0.728295	0.041189
43454	-9.717700	0.889145	-0.662865	0.683750	0.018551	0.728323	0.041085
43455	-9.719845	0.842348	-0.645866	0.683755	0.018437	0.728322	0.041061
43456	-9.736472	0.860918	-0.621660	0.683771	0.018373	0.728313	0.040986
43457	-9.730768	0.842799	-0.543838	0.683774	0.018319	0.728317	0.040897
43458	-9.713726	0.836421	-0.555207	0.683764	0.018303	0.728331	0.040803
43459	-9.689963	0.828565	-0.534899	0.683749	0.018241	0.728350	0.040762
43460	-9.703600	0.831577	-0.539929	0.683719	0.018152	0.728380	0.040758
43461	-9.702989	0.846045	-0.527493	0.683675	0.018090	0.728423	0.040767
43462	-9.709567	0.847483	-0.561486	0.683631	0.018012	0.728464	0.040807
43463	-9.727152	0.837202	-0.567161	0.683564	0.017937	0.728526	0.040835
43464	-9.716893	0.834124	-0.551737	0.683493	0.017920	0.728596	0.040808
43465	-9.715826	0.848791	-0.600638	0.683426	0.017947	0.728659	0.040773
43466	-9.722840	0.835629	-0.649211	0.683366	0.017956	0.728716	0.040768
43467	-9.736679	0.840410	-0.594628	0.683315	0.017953	0.728762	0.040802
43468	-9.697612	0.860173	-0.603702	0.683263	0.017929	0.728810	0.040821
43469	-9.718642	0.851500	-0.595347	0.683205	0.017905	0.728863	0.040853
43470	-9.732090	0.855861	-0.601310	0.683132	0.017860	0.728930	0.040897
43471	-9.710692	0.865430	-0.614214	0.683071	0.017831	0.728986	0.040940
43472	-9.713995	0.867077	-0.602709	0.682989	0.017776	0.729061	0.041000
43473	-9.711813	0.836593	-0.587481	0.682925	0.017731	0.729119	0.041044
43474	-9.724163	0.871264	-0.565597	0.682852	0.017741	0.729188	0.041041
43475	-9.699187	0.879733	-0.593313	0.682761	0.017692	0.729271	0.041092
43476	-9.730265	0.873908	-0.603817	0.682662	0.017638	0.729361	0.041142
43477	-9.727002	0.858158	-0.635332	0.682561	0.017524	0.729453	0.041256
43478	-9.740886	0.847430	-0.656359	0.682466	0.017439	0.729539	0.041344
43479	-9.737408	0.907677	-0.723387	0.682399	0.017321	0.729598	0.041450
43480	-9.719270	0.856964	-0.671820	0.682353	0.017162	0.729637	0.041586
43481	-9.739752	0.847715	-0.723503	0.682308	0.017075	0.729677	0.041667
43482	-9.733576	0.922101	-0.668296	0.682293	0.017019	0.729693	0.041658
43483	-9.723114	0.842223	-0.675864	0.682297	0.016913	0.729690	0.041685
43484	-9.712599	0.853560	-0.644466	0.682301	0.016889	0.729690	0.041614
43485	-9.718141	0.884710	-0.648581	0.682326	0.016866	0.729670	0.041564
43486	-9.745938	0.876574	-0.670275	0.682356	0.016786	0.729644	0.041563
43487	-9.717181	0.897656	-0.694661	0.682395	0.016629	0.729609	0.041598
43488	-9.760328	0.863129	-0.687018	0.682465	0.016423	0.729543	0.041692
43489	-9.754431	0.829414	-0.742019	0.682581	0.016249	0.729437	0.041712
43490	-9.724933	0.880237	-0.735605	0.682740	0.016130	0.729292	0.041708
43491	-9.804057	0.885853	-0.782197	0.682946	0.015963	0.729103	0.041693
43492	-9.756207	0.885147	-0.779829	0.683205	0.015781	0.728864	0.041712
43493	-9.735775	0.816248	-0.747561	0.683520	0.015589	0.728570	0.041751
43494	-9.751718	0.788192	-0.710763	0.683890	0.015451	0.728227	0.041735
43495	-9.749005	0.876560	-0.676414	0.684294	0.015303	0.727850	0.041728
43496	-9.744354	0.842503	-0.662043	0.684738	0.015077	0.727434	0.041797
43497	-9.749355	0.826272	-0.650426	0.685210	0.014890	0.726992	0.041797
43498	-9.746144	0.761544	-0.602250	0.685737	0.014846	0.726505	0.041649
43499	-9.719562	0.842454	-0.603243	0.686279	0.014852	0.726003	0.041471
43500	-9.756021	0.819587	-0.536405	0.686829	0.014847	0.725493	0.041297
43501	-9.747368	0.798649	-0.519006	0.687380	0.014905	0.724986	0.041011
43502	-9.718090	0.771954	-0.466162	0.687940	0.015052	0.724470	0.040683
43503	-9.682270	0.819832	-0.417425	0.688483	0.015199	0.723970	0.040340
43504	-9.692079	0.758802	-0.372421	0.688992	0.015232	0.723497	0.040112
43505	-9.744166	0.846863	-0.303552	0.689477	0.015354	0.723053	0.039762
43506	-9.734931	0.902560	-0.204376	0.689878	0.015389	0.722682	0.039526
43507	-9.663957	0.849440	-0.100231	0.690194	0.015368	0.722394	0.039292
43508	-9.618158	0.787412	-0.094386	0.690410	0.015396	0.722202	0.039004
43509	-9.633238	0.849084	-0.084426	0.690515	0.015413	0.722118	0.038695
43510	-9.675969	0.841367	-0.168793	0.690535	0.015288	0.722111	0.038518
43511	-9.689323	0.794590	-0.290473	0.690504	0.015093	0.722150	0.038414
43512	-9.741672	0.804795	-0.381046	0.690444	0.014760	0.722213	0.038444
43513	-9.718930	0.779307	-0.436842	0.690380	0.014330	0.722273	0.038612
43514	-9.742010	0.721723	-0.470577	0.690324	0.013883	0.722325	0.038820
43515	-9.739462	0.702930	-0.500847	0.690275	0.013513	0.722371	0.038967
43516	-9.780715	0.711842	-0.512584	0.690261	0.013244	0.722386	0.039031
43517	-9.770947	0.706389	-0.555777	0.690287	0.012989	0.722363	0.039074
43518	-9.730622	0.677712	-0.559035	0.690354	0.012796	0.722300	0.039109
43519	-9.715976	0.687473	-0.479527	0.690452	0.012680	0.722210	0.039104
43520	-9.743107	0.693496	-0.424420	0.690539	0.012673	0.722135	0.038949
43521	-9.742159	0.706755	-0.348520	0.690634	0.012777	0.722055	0.038707
43522	-9.714748	0.712571	-0.387031	0.690697	0.012966	0.722007	0.038410
43523	-9.748895	0.720845	-0.365185	0.690744	0.013181	0.721975	0.038084
43524	-9.735266	0.715788	-0.361740	0.690788	0.013384	0.721945	0.037785
43525	-9.713858	0.724261	-0.312602	0.690811	0.013548	0.721934	0.037523
43526	-9.758991	0.720581	-0.323719	0.690812	0.013743	0.721943	0.037245
43527	-9.720306	0.754024	-0.379283	0.690775	0.013974	0.721991	0.036924
43528	-9.740501	0.773854	-0.402655	0.690746	0.014177	0.722027	0.036677
43529	-9.720239	0.752736	-0.383518	0.690696	0.014268	0.722082	0.036525
43530	-9.734409	0.755485	-0.449463	0.690673	0.014346	0.722109	0.036382
43531	-9.753498	0.791158	-0.397843	0.690653	0.014325	0.722130	0.036347
43532	-9.748075	0.758195	-0.455870	0.690626	0.014265	0.722156	0.036360
43533	-9.731630	0.737735	-0.481857	0.690623	0.014218	0.722161	0.036350
43534	-9.746112	0.711060	-0.453768	0.690638	0.014159	0.722149	0.036338
43535	-9.762430	0.745110	-0.475555	0.690657	0.014121	0.722132	0.036312
43536	-9.779531	0.749268	-0.464513	0.690719	0.014104	0.722075	0.036268
43537	-9.725345	0.718439	-0.463666	0.690806	0.014129	0.721995	0.036200
43538	-9.718835	0.715792	-0.490555	0.690910	0.014186	0.721900	0.036080
43539	-9.756866	0.725241	-0.512961	0.691040	0.014228	0.721781	0.035960
43540	-9.792285	0.718269	-0.562641	0.691222	0.014281	0.721612	0.035833
43541	-9.763241	0.770025	-0.555151	0.691456	0.014320	0.721393	0.035721
43542	-9.762450	0.784622	-0.474991	0.691718	0.014346	0.721147	0.035597
43543	-9.770061	0.770244	-0.454055	0.692014	0.014401	0.720869	0.035437
43544	-9.739716	0.730970	-0.361676	0.692314	0.014430	0.720588	0.035299
43545	-9.753167	0.748578	-0.343936	0.692614	0.014485	0.720305	0.035150
43546	-9.759347	0.764637	-0.294459	0.692901	0.014487	0.720035	0.035036
43547	-9.698611	0.701624	-0.224207	0.693162	0.014414	0.719787	0.034998
43548	-9.692384	0.698001	-0.247122	0.693384	0.014397	0.719579	0.034896
43549	-9.723563	0.811025	-0.243580	0.693554	0.014380	0.719423	0.034736
43550	-9.740639	0.798475	-0.183377	0.693683	0.014263	0.719308	0.034592
43551	-9.722536	0.729285	-0.202643	0.693749	0.014226	0.719254	0.034418
43552	-9.705577	0.706909	-0.166767	0.693786	0.014221	0.719229	0.034175
43553	-9.672304	0.664095	-0.157034	0.693764	0.014211	0.719263	0.033910
43554	-9.700035	0.667691	-0.166399	0.693686	0.014190	0.719353	0.033602
43555	-9.742138	0.659642	-0.194895	0.693543	0.014243	0.719506	0.033255
43556	-9.735351	0.683577	-0.261306	0.693368	0.014311	0.719689	0.032917
43557	-9.703711	0.595339	-0.298590	0.693179	0.014254	0.719881	0.032733
43558	-9.692662	0.483732	-0.278897	0.692954	0.014341	0.720109	0.032445
43559	-9.752776	0.515106	-0.197506	0.692688	0.014544	0.720374	0.032144
43560	-9.711777	0.580912	-0.112312	0.692357	0.014963	0.720704	0.031685
43561	-9.702294	0.548165	-0.133518	0.691968	0.015447	0.721087	0.031237
43562	-9.711392	0.475351	-0.187173	0.691527	0.016260	0.721522	0.030530
43563	-9.733758	0.449321	-0.384392	0.691079	0.017171	0.721961	0.029793
43564	-9.867740	0.377177	-0.618415	0.690679	0.018383	0.722352	0.028835
43565	-9.792022	0.261523	-0.857133	0.690392	0.020010	0.722636	0.027489
43566	-9.784950	0.833865	-1.023749	0.690247	0.021748	0.722777	0.026088
43567	-9.920624	1.117037	-0.998374	0.690265	0.022957	0.722756	0.025126
43568	-9.929342	1.060357	-1.023076	0.690523	0.023457	0.722500	0.024944
43569	-9.736005	0.443928	-1.130421	0.691006	0.023935	0.722025	0.024855
43570	-9.747083	0.560881	-1.024207	0.691663	0.024829	0.721384	0.024302
43571	-9.925653	0.950879	-0.951308	0.692525	0.025569	0.720543	0.023938
43572	-9.841807	0.813692	-0.860774	0.693575	0.025929	0.719516	0.024030
43573	-9.806920	0.647373	-0.728185	0.694766	0.026489	0.718348	0.023971
43574	-9.703311	0.646484	-0.563955	0.696160	0.027526	0.716973	0.023503
43575	-9.753427	0.730258	-0.500093	0.697643	0.028680	0.715502	0.022992
43576	-9.821717	0.789327	-0.449701	0.699194	0.029620	0.713956	0.022768
43577	-9.735998	0.840388	-0.333888	0.700775	0.030178	0.712375	0.022948
43578	-9.746580	0.705656	-0.215562	0.702399	0.030679	0.710745	0.023163
43579	-9.746257	0.631191	-0.070133	0.704106	0.031351	0.709020	0.023304
43580	-9.738944	0.823670	-0.043885	0.705816	0.032243	0.707277	0.023323
43581	-9.733367	1.023448	0.070747	0.707488	0.032680	0.705567	0.023822
43582	-9.691515	0.780361	0.109093	0.709125	0.032692	0.703891	0.024719
43583	-9.575994	0.754439	0.298369	0.710721	0.032621	0.702248	0.025689
43584	-9.761055	0.955535	0.301289	0.712246	0.032866	0.700668	0.026249
43585	-9.844681	1.244106	0.460908	0.713705	0.032851	0.699153	0.027028
43586	-9.642928	0.692892	0.270402	0.715145	0.032909	0.697647	0.027812
43587	-9.819653	0.544762	-0.118895	0.716576	0.033699	0.696139	0.027826
43588	-10.321336	0.917126	-0.571340	0.718026	0.034396	0.694592	0.028225
43589	-10.085746	1.219447	-0.952924	0.719752	0.034605	0.692744	0.029416
43590	-9.950917	1.190160	-1.226130	0.721971	0.034420	0.690391	0.030556
43591	-9.790655	1.064449	-1.099458	0.724793	0.034727	0.687403	0.030756
43592	-9.675202	0.380569	-0.711823	0.728079	0.036627	0.683885	0.029349
43593	-9.746816	0.436288	-0.391379	0.731606	0.040687	0.680017	0.025965
43594	-9.791125	1.165935	0.252040	0.735267	0.044791	0.675919	0.022555
43595	-9.710566	1.528074	0.417779	0.739090	0.047247	0.671634	0.020543
43596	-9.652593	1.547165	0.633079	0.743055	0.047965	0.667210	0.019980
43597	-9.617007	1.351992	0.689564	0.747104	0.047759	0.662679	0.020296
43598	-9.453681	1.301052	1.105788	0.751158	0.047390	0.658091	0.020789
43599	-9.367802	1.274419	1.539537	0.755155	0.047090	0.653521	0.020815
43600	-9.287487	1.352722	1.953161	0.759008	0.046822	0.649070	0.020536
43601	-9.316628	1.228829	2.339570	0.762535	0.046210	0.644965	0.020624
43602	-9.128493	1.003969	2.793825	0.765742	0.045046	0.641218	0.021193
43603	-8.914140	0.809489	3.332989	0.768559	0.043192	0.637929	0.022316
43604	-8.926125	0.770466	3.908359	0.770844	0.041175	0.635263	0.023363
43605	-9.070726	0.946560	4.338217	0.772470	0.039314	0.633367	0.024298
43606	-9.075298	0.852691	4.383356	0.773385	0.037839	0.632316	0.024915
43607	-9.299310	0.745268	4.000091	0.773642	0.037291	0.632047	0.024598
43608	-9.415230	1.046920	3.374430	0.773407	0.037717	0.632351	0.023484
43609	-9.465307	1.075810	3.032133	0.772820	0.037864	0.633090	0.022647
43610	-9.472698	0.882024	2.735899	0.771954	0.037754	0.634174	0.022024
43611	-9.403917	0.881589	2.703929	0.770864	0.037364	0.635533	0.021674
43612	-9.405118	0.852907	2.669457	0.769539	0.036681	0.637180	0.021584
43613	-9.321166	0.933055	2.718077	0.767943	0.036121	0.639141	0.021410
43614	-9.340104	1.053498	2.857519	0.766073	0.035718	0.641412	0.021158
43615	-9.371449	0.744393	2.951238	0.763910	0.035342	0.644017	0.020839
43616	-9.300857	0.476380	2.959665	0.761408	0.035623	0.646985	0.019961
43617	-9.331167	0.747044	2.448762	0.758517	0.036279	0.650370	0.018824
43618	-9.232363	1.104028	2.215417	0.755234	0.035850	0.654210	0.018616
43619	-9.260841	0.612751	1.925264	0.751631	0.034104	0.658413	0.019512
43620	-9.370249	0.433813	1.802843	0.747711	0.031911	0.662934	0.020695
43621	-9.323872	0.580137	1.879061	0.743428	0.029267	0.667804	0.022274
43622	-9.275826	0.708657	1.980992	0.738750	0.026240	0.673031	0.024268
43623	-9.266861	0.949330	1.854323	0.733637	0.023148	0.678636	0.026347
43624	-9.251173	0.943530	1.435132	0.728157	0.020128	0.684528	0.028350
43625	-9.360683	0.727812	0.831226	0.722407	0.017574	0.690600	0.029854
43626	-9.701490	0.787483	-0.051318	0.716642	0.016134	0.696599	0.030225
43627	-9.861762	0.995344	-0.822073	0.711063	0.014627	0.702306	0.030685
43628	-9.868218	0.688676	-1.475814	0.705855	0.012801	0.707538	0.031556
43629	-9.974525	0.560656	-1.811259	0.701078	0.011094	0.712266	0.032292
43630	-9.959644	0.691434	-2.009760	0.696832	0.009711	0.716423	0.032707
43631	-10.064115	0.825016	-2.023413	0.693161	0.008437	0.719974	0.033067
43632	-10.039355	0.756297	-1.961867	0.690023	0.007154	0.722979	0.033450
43633	-9.948269	0.517998	-1.675385	0.687335	0.005748	0.725520	0.034034
43634	-9.973750	0.428446	-1.173422	0.684956	0.004642	0.727759	0.034363
43635	-9.810759	1.026953	-0.656775	0.682751	0.003403	0.729814	0.034806
43636	-9.711175	0.866517	-0.147973	0.680468	0.001341	0.731881	0.036213
43637	-9.709926	0.457504	0.177757	0.677909	-0.000856	0.734174	0.037782
43638	-9.543149	0.536626	0.257581	0.675048	-0.003028	0.736722	0.039259
43639	-9.552036	0.593147	0.053443	0.671835	-0.005167	0.739564	0.040688
43640	-9.543447	0.654385	-0.352794	0.668355	-0.007238	0.742626	0.041907
43641	-9.472648	0.817314	-0.948303	0.664810	-0.009033	0.745735	0.042721
43642	-9.253613	0.332660	-1.338275	0.661294	-0.010812	0.748782	0.043562
43643	-9.660114	-0.726425	-1.827738	0.657931	-0.011379	0.751750	0.043233
43644	-9.917389	0.049975	-2.028820	0.654849	-0.011083	0.754506	0.042085
43645	-9.914608	0.306899	-2.182353	0.652045	-0.011403	0.756935	0.041927
43646	-9.614099	0.396099	-2.432714	0.649541	-0.011860	0.759065	0.042131
43647	-9.622309	0.268655	-2.481417	0.647343	-0.012435	0.760894	0.042808
43648	-9.719236	0.168705	-2.321040	0.645438	-0.012816	0.762467	0.043459
43649	-9.709642	0.136445	-1.973718	0.643797	-0.013011	0.763810	0.044157
43650	-9.641693	-0.023699	-1.954704	0.642310	-0.012726	0.765045	0.044523
43651	-9.683221	0.065227	-2.059040	0.640938	-0.012113	0.766192	0.044744
43652	-9.650086	-0.022291	-2.267203	0.639750	-0.011289	0.767189	0.044876
43653	-9.637798	0.193993	-2.409143	0.638744	-0.010158	0.768049	0.044765
43654	-9.733979	0.677826	-2.533813	0.638111	-0.008884	0.768611	0.044425
43655	-9.661981	1.125958	-2.568001	0.637763	-0.007627	0.768934	0.044051
43656	-9.802845	0.956520	-2.548297	0.637652	-0.006382	0.769067	0.043526
43657	-9.668518	1.031297	-2.546088	0.637901	-0.005056	0.768922	0.042612
43658	-9.271586	1.160130	-2.622491	0.638465	-0.003906	0.768504	0.041811
43659	-9.024541	1.140738	-2.634759	0.639282	-0.002910	0.767869	0.041075
43660	-9.408438	0.875704	-2.673302	0.640358	-0.001616	0.767037	0.039910
43661	-9.663653	0.934854	-2.716025	0.641756	0.000167	0.765969	0.037959
43662	-9.744151	1.251855	-2.523247	0.643525	0.001581	0.764564	0.036264
43663	-9.898473	0.760289	-2.376591	0.645629	0.002328	0.762830	0.035338
43664	-9.922318	0.503762	-2.510599	0.648121	0.003049	0.760756	0.034346
43665	-9.974490	0.370441	-2.525002	0.650987	0.003910	0.758347	0.033315
43666	-9.644951	0.867380	-2.667313	0.654282	0.004986	0.755547	0.032224
43667	-9.877330	0.476591	-2.298680	0.657933	0.004914	0.752349	0.032734
43668	-9.744977	0.052393	-1.607869	0.661761	0.005269	0.748971	0.032977
43669	-9.676423	-0.523889	-1.374791	0.665823	0.006529	0.745360	0.032790
43670	-9.729769	-0.743586	-1.245342	0.669954	0.009213	0.741675	0.031552
43671	-9.961546	-0.545173	-0.949555	0.674154	0.012416	0.737861	0.030380
43672	-9.678186	-0.536750	-0.881934	0.678426	0.015680	0.733902	0.029671
43673	-9.566758	-0.124771	-0.782499	0.682599	0.018987	0.729952	0.029465
43674	-9.448570	0.480605	-0.464382	0.686736	0.022251	0.725958	0.029716
43675	-9.542991	0.705950	-0.412563	0.690844	0.024921	0.721917	0.030816
43676	-9.609622	0.819024	-0.401552	0.694900	0.027270	0.717862	0.032319
43677	-9.741853	1.170902	-0.293020	0.698888	0.029078	0.713815	0.034319
43678	-9.851320	1.688983	-0.118885	0.702772	0.029939	0.709812	0.037194
43679	-9.782830	1.795420	-0.057717	0.706581	0.029645	0.705820	0.041023
43680	-9.840532	1.601266	-0.337085	0.710350	0.029274	0.701839	0.044355
43681	-9.654356	1.907682	-0.559679	0.714148	0.029615	0.697830	0.046352
43682	-9.554730	1.968791	-0.345796	0.718063	0.030189	0.693701	0.047465
43683	-9.493343	1.766175	0.165214	0.722074	0.030916	0.689476	0.047713
43684	-9.422575	2.148915	0.948540	0.726031	0.031434	0.685314	0.047283
43685	-9.336122	2.664293	1.507456	0.729855	0.031245	0.681285	0.046767
43686	-9.523210	2.398634	1.489264	0.733441	0.029980	0.677485	0.046693
43687	-9.424951	2.358395	1.247090	0.736924	0.028183	0.673785	0.046493
43688	-9.820153	2.533148	0.610980	0.740374	0.025802	0.670129	0.045904
43689	-9.598582	2.562087	0.275229	0.743987	0.022773	0.666283	0.045077
43690	-9.599378	2.002971	0.186656	0.747861	0.020044	0.662131	0.043418
43691	-9.809408	2.372867	0.504801	0.751948	0.017989	0.657735	0.040450
43692	-9.470257	2.302778	1.451759	0.756078	0.014816	0.653216	0.037888
43693	-9.280833	1.355897	2.339782	0.760104	0.011133	0.648760	0.035043
43694	-9.081995	1.157867	2.737768	0.763782	0.008283	0.644674	0.031057
43695	-9.162338	1.676441	2.978228	0.767100	0.005685	0.640958	0.026426
43696	-9.497893	1.106614	2.851705	0.769997	0.002253	0.637656	0.022232
43697	-9.613194	1.209700	2.664992	0.772667	-0.000798	0.634570	0.017466
43698	-9.239293	1.570293	2.867518	0.775000	-0.004897	0.631802	0.013305
43699	-9.001405	0.932451	3.184581	0.777051	-0.009389	0.629298	0.009349
43700	-8.915378	-0.826639	3.370181	0.778678	-0.013398	0.627260	0.005155
43701	-9.246865	-1.506271	3.814547	0.779642	-0.015744	0.626028	-0.000244
43702	-8.948433	-0.927483	4.477774	0.779967	-0.017826	0.625540	-0.005775
43703	-8.674933	-0.941880	4.631657	0.779569	-0.020788	0.625880	-0.010704
43704	-8.716310	-1.435669	4.453765	0.778505	-0.022940	0.627006	-0.016349
43705	-8.605583	-1.335103	4.190829	0.776882	-0.023198	0.628777	-0.023566
43706	-9.084723	-1.171497	3.716436	0.774593	-0.022729	0.631273	-0.031363
43707	-8.941461	-1.275517	3.616204	0.771706	-0.022724	0.634399	-0.038622
43708	-9.123545	-1.878567	3.359502	0.768245	-0.022406	0.638115	-0.045897
43709	-8.926467	-1.787633	3.382891	0.764343	-0.021680	0.642259	-0.053048
43710	-9.058905	-2.514928	2.821946	0.759985	-0.020662	0.646832	-0.060028
43711	-9.072961	-2.430024	2.438569	0.755273	-0.019077	0.651717	-0.066820
43712	-8.991183	-2.736278	2.579435	0.750158	-0.018545	0.657065	-0.072009
43713	-9.119421	-3.886303	2.169052	0.744957	-0.017895	0.662492	-0.076312
43714	-9.366180	-3.514392	1.319258	0.739609	-0.016127	0.668004	-0.080554
43715	-9.439501	-2.164491	1.056113	0.734160	-0.016622	0.673874	-0.081410
43716	-9.656879	-2.266747	0.663601	0.728564	-0.020131	0.680201	-0.078202
43717	-9.558667	-2.193787	0.556876	0.722859	-0.024924	0.686735	-0.072455
43718	-9.263862	-2.433878	0.658920	0.717052	-0.029918	0.693307	-0.065325
43719	-9.158179	-2.740063	0.657452	0.711185	-0.034214	0.699780	-0.057900
43720	-9.308445	-2.967439	0.563323	0.705264	-0.037281	0.706131	-0.050916
43721	-9.473070	-2.814524	-0.032172	0.699353	-0.038493	0.712313	-0.045100
43722	-9.453840	-2.071803	-0.152284	0.693347	-0.038437	0.718470	-0.039924
43723	-9.488266	-1.697955	-0.594911	0.687336	-0.037017	0.724524	-0.035566
43724	-9.744714	-1.325497	-1.215311	0.681536	-0.034613	0.730272	-0.031827
43725	-10.004947	-1.002927	-1.972055	0.676138	-0.031649	0.735550	-0.028328
43726	-9.487399	-1.154018	-2.408143	0.671116	-0.028800	0.740391	-0.024374
43727	-9.510197	-1.113312	-2.608417	0.666519	-0.025062	0.744767	-0.021117
43728	-9.310708	-0.545572	-2.373272	0.662271	-0.021114	0.748758	-0.017699
43729	-9.155037	-0.811403	-2.652339	0.658308	-0.017350	0.752424	-0.013748
43730	-9.084988	-0.365825	-3.113455	0.654840	-0.013620	0.755585	-0.009526
43731	-9.833888	-0.181036	-4.047412	0.651924	-0.010640	0.758200	-0.003862
43732	-10.449004	0.069215	-4.751401	0.650035	-0.008413	0.759852	0.003011
43733	-9.756508	-0.315240	-4.393507	0.649300	-0.006786	0.760419	0.011281
43734	-10.059521	-1.586061	-3.490116	0.649337	-0.004317	0.760247	0.019160
43735	-10.317247	-0.371605	-1.954124	0.649968	-0.000572	0.759523	0.025821
43736	-9.030995	0.753669	-0.452548	0.650524	0.001928	0.758717	0.034112
43737	-9.055159	0.380497	-0.334071	0.650710	0.004664	0.758131	0.042320
43738	-9.440611	0.570165	-1.001441	0.650596	0.008356	0.757744	0.049799
43739	-9.688871	0.929648	-1.427131	0.650446	0.012462	0.757309	0.056994
43740	-9.137311	1.458747	-1.413176	0.650248	0.015845	0.756763	0.065089
43741	-9.243280	1.685924	-1.334387	0.650054	0.018110	0.756019	0.074414
43742	-9.467344	1.814194	-1.598310	0.649962	0.020236	0.755090	0.083540
43743	-9.374961	2.395256	-1.686078	0.650044	0.022624	0.753996	0.091766
43744	-9.425000	2.316114	-2.135035	0.650423	0.026025	0.752759	0.098117
43745	-9.679495	2.707643	-2.676482	0.651146	0.031033	0.751433	0.101955
43746	-10.019752	3.284731	-3.065432	0.652449	0.036479	0.749661	0.104824
43747	-10.018932	3.387558	-3.013267	0.654577	0.040769	0.747082	0.108330
43748	-9.178964	3.355369	-2.569411	0.657323	0.043464	0.743816	0.113024
43749	-8.904739	3.022095	-2.068221	0.660585	0.045338	0.740044	0.117923
43750	-8.844337	2.878903	-1.905677	0.664121	0.047846	0.736179	0.121223
43751	-9.285913	3.553338	-1.861714	0.667850	0.051552	0.732295	0.122727
43752	-9.394922	3.970799	-1.684745	0.671996	0.054809	0.728034	0.124036
43753	-9.546187	3.326371	-1.519846	0.676564	0.057412	0.723318	0.125601
43754	-9.286023	3.155761	-1.094176	0.681481	0.059480	0.718259	0.127083
43755	-9.183597	3.411158	-0.534811	0.686627	0.060816	0.712944	0.128664
43756	-9.323277	3.306953	-0.234659	0.691897	0.061822	0.707519	0.129898
43757	-9.214662	3.503120	-0.061941	0.697192	0.062891	0.702102	0.130461
43758	-9.227915	3.663523	0.293047	0.702431	0.063803	0.696751	0.130606
43759	-9.203770	3.300788	0.722351	0.707556	0.064502	0.691522	0.130386
43760	-9.021021	2.826759	0.935149	0.712473	0.065647	0.686560	0.129263
43761	-9.149320	2.943471	1.072437	0.717164	0.067149	0.681871	0.127352
43762	-9.295238	3.327677	1.263536	0.721704	0.068087	0.677299	0.125594
43763	-9.459765	3.054667	1.329202	0.726129	0.067961	0.672789	0.124386
43764	-9.367406	2.706735	1.442925	0.730352	0.067501	0.668501	0.123030
43765	-9.471760	2.900072	1.645822	0.734272	0.066979	0.664524	0.121515
43766	-9.396571	3.419044	1.432032	0.738057	0.065583	0.660634	0.120549
43767	-9.530394	3.896148	1.053893	0.741902	0.061960	0.656549	0.121186
43768	-9.125077	4.142861	0.984552	0.745836	0.055767	0.652178	0.123624
43769	-8.708453	3.920225	1.147328	0.749751	0.048374	0.647671	0.126715
43770	-8.776197	3.400073	1.705104	0.753561	0.040743	0.643173	0.129672
43771	-8.957344	2.443143	1.968176	0.757222	0.034428	0.638939	0.131097
43772	-9.036793	1.953534	2.326235	0.760647	0.029899	0.635238	0.130362
43773	-9.208484	1.799374	2.202639	0.763940	0.027279	0.631969	0.127540
43774	-9.409391	2.375290	2.192900	0.767152	0.025382	0.628940	0.123565
43775	-9.866914	3.049656	2.022830	0.770307	0.022888	0.625971	0.119431
43776	-9.715821	3.523006	2.173544	0.773361	0.019029	0.623042	0.115630
43777	-9.005216	3.320641	2.591417	0.776307	0.014701	0.620161	0.111944
43778	-8.724256	2.634158	3.369534	0.779008	0.010784	0.617594	0.107742
43779	-8.756279	2.057277	3.849232	0.781366	0.007674	0.615548	0.102511
43780	-8.596890	1.961413	4.368389	0.783401	0.004474	0.613898	0.096912
43781	-8.488289	1.295492	4.439294	0.785021	0.000354	0.612656	0.091627
43782	-8.603552	0.119441	4.467977	0.786277	-0.003366	0.611899	0.085656
43783	-9.061426	-0.893257	3.822458	0.787159	-0.004492	0.611910	0.076985
43784	-9.015045	0.339695	3.418334	0.787813	-0.001597	0.612509	0.064659
43785	-9.111527	2.091894	2.853452	0.788254	0.002839	0.613234	0.050911
43786	-9.321820	2.631302	2.448448	0.788578	0.006926	0.613744	0.037608
43787	-9.561927	1.444732	2.542867	0.788526	0.009563	0.614387	0.025771
43788	-9.291088	0.121904	3.273192	0.788139	0.012005	0.615212	0.014415
43789	-9.030423	-0.863320	3.570173	0.787383	0.013638	0.616303	0.003562
43790	-8.898147	-0.063438	4.127867	0.786207	0.013887	0.617773	-0.006423
43791	-8.444382	0.026114	4.601992	0.784606	0.011664	0.619719	-0.014336
43792	-8.370816	-1.116155	4.764924	0.782547	0.009118	0.622136	-0.022001
43793	-8.472169	-2.446036	3.977835	0.779906	0.009665	0.625005	-0.031967
43794	-8.895818	-1.637957	2.953956	0.776793	0.014160	0.627997	-0.044847
43795	-9.657713	-0.515714	2.014428	0.773428	0.017579	0.631125	-0.056398
43796	-9.725946	-0.673460	1.763096	0.769969	0.017649	0.634558	-0.064586
43797	-9.423158	-1.759582	2.226920	0.766346	0.015542	0.638404	-0.070081
43798	-9.123108	-2.194764	2.860084	0.762482	0.013223	0.642570	-0.074501
43799	-9.233089	-2.422443	2.750437	0.758310	0.010859	0.647138	-0.077851
43800	-9.270768	-2.534802	2.230961	0.753941	0.007444	0.652108	-0.079201
43801	-9.368851	-2.661633	1.615478	0.749391	0.002780	0.657480	-0.078267
43802	-9.195822	-2.705009	1.308614	0.744801	-0.003235	0.663055	-0.074962
43803	-9.282995	-2.435115	1.211332	0.740103	-0.009936	0.668784	-0.069834
43804	-9.288549	-2.082120	1.366028	0.735292	-0.017805	0.674624	-0.062537
43805	-9.258698	-2.190085	1.694404	0.730268	-0.026529	0.680549	-0.053450
43806	-9.270792	-2.706280	1.289132	0.724987	-0.033991	0.686461	-0.044838
43807	-9.522119	-2.300485	0.637194	0.719594	-0.038671	0.692269	-0.038115
43808	-9.525201	-2.182874	0.204772	0.714204	-0.040650	0.697965	-0.033227
43809	-9.668859	-2.268364	-0.245006	0.708923	-0.040209	0.703500	-0.029974
43810	-9.711010	-1.969798	-0.733275	0.703819	-0.038453	0.708801	-0.027587
43811	-9.648878	-1.694709	-0.978736	0.698936	-0.036697	0.713822	-0.024498
43812	-9.366298	-1.641074	-1.089515	0.694228	-0.035268	0.718594	-0.020637
43813	-9.427744	-1.434340	-1.090707	0.689673	-0.034039	0.723138	-0.016253
43814	-9.617141	-1.102329	-1.173598	0.685311	-0.032442	0.727430	-0.011927
43815	-9.789599	-0.679086	-1.616358	0.681271	-0.029900	0.731375	-0.008137
43816	-9.852257	-0.246832	-1.961093	0.677526	-0.027334	0.734980	-0.004054
43817	-9.687954	-0.276140	-2.097228	0.674141	-0.024732	0.738188	0.000110
43818	-9.722377	-0.258607	-2.023658	0.671144	-0.021821	0.740995	0.004022
43819	-9.898129	-0.585296	-2.151045	0.668582	-0.018452	0.743369	0.007712
43820	-9.714592	-0.174443	-2.265250	0.666456	-0.014679	0.745317	0.011110
43821	-9.671150	0.068229	-2.142662	0.664639	-0.011343	0.746926	0.015124
43822	-9.551244	0.173181	-1.820933	0.663106	-0.008433	0.748223	0.019535
43823	-9.551246	0.330122	-1.395924	0.661737	-0.005230	0.749343	0.023712
43824	-9.689999	1.143209	-1.368051	0.660460	-0.001736	0.750360	0.027370
43825	-9.867379	1.622499	-1.255297	0.659176	0.000898	0.751309	0.031939
43826	-9.496199	0.851436	-0.957945	0.657883	0.002988	0.752206	0.036971
43827	-9.471474	0.702107	-0.560673	0.656375	0.005582	0.753287	0.041230
43828	-9.731953	1.305233	-0.042568	0.654491	0.008496	0.754704	0.044621
43829	-9.324714	1.995517	0.218099	0.652383	0.011244	0.756302	0.047733
43830	-9.042618	1.843093	-0.360953	0.649739	0.013387	0.758333	0.050908
43831	-9.747752	1.943823	-1.062287	0.646656	0.015725	0.760785	0.052870
43832	-9.445495	2.030664	-1.397386	0.643343	0.017768	0.763445	0.054277
43833	-9.153520	1.765150	-1.618884	0.639828	0.019865	0.766276	0.055197
43834	-9.125770	1.323666	-1.176923	0.635893	0.022634	0.769513	0.054559
43835	-9.449544	1.231041	-0.729235	0.631434	0.026323	0.773236	0.052002
43836	-9.880276	1.000044	-0.348943	0.626292	0.031226	0.777537	0.047119
43837	-9.734181	1.730450	-1.141019	0.620534	0.037656	0.782276	0.039549
43838	-10.030107	2.893200	-1.537191	0.614519	0.043233	0.787064	0.032061
43839	-9.894250	3.679743	-2.341856	0.608506	0.047728	0.791702	0.025494
43840	-9.765749	3.616531	-2.932969	0.602714	0.051746	0.796015	0.020463
43841	-10.435679	1.834730	-3.317547	0.597665	0.058421	0.799464	0.015526
43842	-11.241803	1.260519	-3.864847	0.594073	0.070963	0.801249	0.006474
43843	-9.949899	2.254510	-3.995500	0.592691	0.088922	0.800476	-0.006932
43844	-8.840540	3.231270	-4.441979	0.593367	0.109489	0.797179	-0.020812
43845	-8.600160	3.296530	-5.113864	0.595527	0.130446	0.791978	-0.033186
43846	-8.482003	2.820554	-5.565349	0.598411	0.150732	0.785678	-0.043524
43847	-8.275695	2.253331	-5.796534	0.601004	0.169847	0.779172	-0.053266
43848	-8.203281	1.492755	-5.752457	0.602621	0.186883	0.773362	-0.061921
43849	-6.292315	-0.377652	-6.422060	0.601394	0.201485	0.770039	-0.069060
43850	-8.489784	-4.389196	-4.208188	0.598952	0.213806	0.767882	-0.076816
43851	-8.557209	-0.698880	-1.669920	0.597077	0.224656	0.765019	-0.088177
43852	-8.730260	0.090239	-0.814806	0.598365	0.225383	0.763139	-0.093706
43853	-8.738715	-2.199829	-1.451934	0.602420	0.217273	0.762130	-0.095079
43854	-10.077089	3.877401	0.013993	0.606225	0.206746	0.761989	-0.095496
43855	-13.327909	4.845165	1.851316	0.612360	0.193507	0.761976	-0.083448
43856	-9.227831	-6.086740	-2.650115	0.612672	0.195486	0.760138	-0.092779
43857	-10.203250	4.598640	-1.983281	0.606224	0.210127	0.757568	-0.120123
43858	-10.677009	10.905251	1.011644	0.604757	0.210489	0.757005	-0.130023
43859	-8.639892	-0.633545	-2.048357	0.605936	0.202363	0.758509	-0.128668
43860	-9.285129	-6.731581	-2.211050	0.604967	0.200638	0.758850	-0.133809
43861	-10.021029	-3.195636	-2.191786	0.601922	0.205591	0.757657	-0.146212
43862	-10.037469	-0.083993	-1.910396	0.599143	0.210407	0.756447	-0.156668
43863	-10.463977	-2.242499	-2.653024	0.595963	0.215857	0.755349	-0.166376
43864	-10.181668	-1.715277	-3.509049	0.593020	0.222042	0.753631	-0.176252
43865	-9.331100	1.426346	-3.777873	0.591269	0.226225	0.752016	-0.183562
43866	-9.723109	1.473396	-4.568111	0.591334	0.226965	0.750900	-0.186976
43867	-10.000605	1.586668	-4.824947	0.591928	0.227456	0.749159	-0.191433
43868	-9.731850	3.977152	-2.849298	0.594301	0.223774	0.748223	-0.192080
43869	-9.589623	1.483146	-1.242268	0.597852	0.216295	0.748556	-0.188290
43870	-9.342918	-1.524990	0.179779	0.600835	0.209386	0.749084	-0.184467
43871	-9.237361	-2.621401	0.052319	0.601913	0.206234	0.749181	-0.184108
43872	-9.019333	-1.651520	0.243089	0.602462	0.202855	0.750101	-0.182314
43873	-9.192916	-2.611730	-0.121880	0.602357	0.199933	0.751646	-0.179505
43874	-8.814029	-2.399957	0.041804	0.601288	0.198421	0.753341	-0.177651
43875	-9.030534	-1.398543	-0.089827	0.598846	0.199448	0.754934	-0.177986
43876	-9.434514	-0.408873	-0.675877	0.595564	0.201550	0.756763	-0.178860
43877	-9.798753	-0.496483	-1.571002	0.592140	0.203375	0.758963	-0.178839
43878	-9.777756	-1.010764	-1.682058	0.588676	0.205182	0.761362	-0.178011
43879	-9.464812	-2.008602	-2.510706	0.584816	0.208413	0.763425	-0.178148
43880	-9.443403	-1.139406	-2.571770	0.580482	0.213413	0.764996	-0.179658
43881	-9.477032	-0.679984	-3.374923	0.576303	0.218778	0.766258	-0.181272
43882	-9.363761	-0.155219	-2.877712	0.572571	0.223497	0.767616	-0.181597
43883	-9.595783	-0.969333	-2.110802	0.569107	0.227756	0.769132	-0.180777
43884	-9.663138	-1.907217	-2.328648	0.565164	0.233507	0.770230	-0.181135
43885	-9.445355	-1.611178	-3.545227	0.560580	0.241679	0.770408	-0.183884
43886	-9.061019	-0.845451	-4.314832	0.556097	0.250791	0.769912	-0.187341
43887	-9.342901	-1.108183	-4.345655	0.552079	0.259891	0.769113	-0.190079
43888	-9.547078	-0.749834	-2.861254	0.548391	0.268735	0.768269	-0.191865
43889	-9.713031	-1.287832	-0.395970	0.544673	0.277316	0.767919	-0.191647
43890	-9.949669	-3.084077	-0.913030	0.539808	0.287961	0.767328	-0.192077
43891	-9.586343	-1.890954	-3.595341	0.533231	0.302043	0.765413	-0.196412
43892	-8.901280	0.248403	-4.678451	0.526664	0.316159	0.763108	-0.200835
43893	-9.287006	0.795914	-4.229274	0.521276	0.328408	0.761190	-0.202508
43894	-8.938930	-0.685710	-2.836322	0.516701	0.338918	0.759940	-0.201607
43895	-9.586482	-2.545947	-0.956589	0.511171	0.349995	0.758927	-0.200591
43896	-11.360600	-2.631225	0.287935	0.503592	0.363218	0.757734	-0.200766
43897	-12.777142	-3.314120	1.961199	0.494979	0.377661	0.756918	-0.198602
43898	-13.938539	-5.213053	-0.654092	0.482907	0.397242	0.754440	-0.199547
43899	-14.160722	-3.333337	-3.351562	0.467382	0.422357	0.749254	-0.204418
43900	-11.351419	-1.772350	-5.282635	0.450170	0.451372	0.740982	-0.211084
43901	-8.240981	-1.798145	-8.497257	0.432159	0.483443	0.729142	-0.218803
43902	-6.275160	-1.565928	-9.795380	0.412965	0.518314	0.713366	-0.227857
43903	-4.831936	-0.436571	-9.892835	0.390722	0.555505	0.693595	-0.240159
43904	-4.922435	-0.363377	-3.200011	0.372331	0.591112	0.670553	-0.249629
43905	-4.871882	-7.708087	-5.952489	0.352722	0.625647	0.643132	-0.265582
43906	-7.329372	-4.938702	-2.744954	0.323877	0.660125	0.609206	-0.296997
43907	-7.556943	4.691788	-3.197505	0.294694	0.690777	0.569513	-0.334123
43908	-4.843675	9.963233	-1.955176	0.284616	0.709872	0.535221	-0.358627
43909	-5.635530	5.871577	-2.817329	0.291933	0.720761	0.506003	-0.373148
43910	-7.932105	3.391510	-3.249291	0.306942	0.727688	0.477028	-0.385617
43911	-9.356533	-0.794745	-4.346833	0.323299	0.732156	0.446420	-0.400169
43912	-9.100490	-5.927219	-5.954107	0.331182	0.737135	0.410617	-0.422308
43913	-7.514149	-9.025844	-8.791187	0.320150	0.746962	0.364481	-0.454648
43914	-7.282268	-5.529055	-10.359665	0.286199	0.763112	0.304245	-0.493138
43915	-8.067264	1.502774	-8.392379	0.242755	0.779057	0.235729	-0.527799
43916	-8.694728	2.699116	-6.605994	0.202789	0.790108	0.168290	-0.553430
43917	-9.558690	0.028692	-6.122721	0.167621	0.796401	0.106327	-0.571265
43918	-8.889454	-0.335840	-8.616731	0.131601	0.799782	0.048604	-0.583667
43919	-7.947315	2.385705	-9.837853	0.093961	0.799710	-0.002523	-0.592983
43920	-5.216720	4.959822	-12.076433	0.062593	0.798768	-0.038656	-0.597124
43921	-5.794422	3.655836	-11.338914	0.046827	0.800048	-0.051334	-0.595898
43922	-10.541252	-4.103553	-0.850720	0.052319	0.799068	-0.040287	-0.597604
43923	-12.054055	-6.445819	0.549013	0.057187	0.796033	-0.023589	-0.602084
43924	-17.551488	1.596326	0.350109	0.071111	0.792794	-0.003623	-0.605317
43925	-12.089265	1.768861	-3.551389	0.079624	0.789706	0.009448	-0.608222
43926	-7.130163	1.185270	-2.756999	0.073559	0.788571	0.012101	-0.610409
43927	-7.552558	0.037163	-0.850877	0.063027	0.788141	0.012396	-0.612134
43928	-10.867615	-3.052675	-2.694828	0.053012	0.787623	0.012393	-0.613748
43929	-10.688965	-2.391270	-4.228139	0.043276	0.786542	0.010789	-0.615924
43930	-9.647967	-1.490492	-3.796889	0.036789	0.784896	0.010021	-0.618454
43931	-9.582065	-0.153646	-3.199272	0.030652	0.782735	0.008815	-0.621538
43932	-9.559349	1.731086	-1.787641	0.027848	0.780285	0.009923	-0.624725
43933	-9.220164	0.415063	-1.419762	0.027107	0.777834	0.012464	-0.627762
43934	-9.165532	0.160763	-0.397312	0.025083	0.775909	0.013992	-0.630190
43935	-9.219073	0.409463	0.708726	0.024299	0.774555	0.016439	-0.631826
43936	-9.147939	-2.409420	-0.162261	0.022259	0.773916	0.017324	-0.632660
43937	-9.400061	-1.661424	-0.227236	0.017372	0.774025	0.015411	-0.632728
43938	-9.437686	-0.922475	-0.582376	0.013904	0.774546	0.014136	-0.632206
43939	-9.389180	-0.677787	-0.849660	0.011402	0.775559	0.012891	-0.631041
43940	-9.679626	-1.223418	-0.816649	0.009379	0.776933	0.011384	-0.629410
43941	-9.716018	-1.320205	-1.653083	0.005610	0.778491	0.007883	-0.627582
43942	-9.981989	-0.145328	-2.166540	0.001837	0.780161	0.003764	-0.625565
43943	-9.631545	0.183349	-2.157427	-0.000136	0.781814	0.000676	-0.623512
43944	-9.747440	-0.674698	-2.113942	-0.001194	0.783479	-0.002004	-0.621414
43945	-9.736097	-1.286541	-2.039895	-0.002747	0.785145	-0.005641	-0.619280
43946	-9.477145	-1.579944	-1.997910	-0.005486	0.786855	-0.011044	-0.617015
43947	-9.342325	-0.894691	-1.551841	-0.009051	0.788656	-0.017929	-0.614506
43948	-9.546996	-1.432704	-1.851831	-0.012788	0.790622	-0.026229	-0.611608
43949	-9.601707	-1.397147	-1.955252	-0.017514	0.792617	-0.036366	-0.608383
43950	-9.573162	-1.096963	-1.421712	-0.021369	0.794789	-0.046962	-0.604689
43951	-9.257449	-2.096316	-0.851893	-0.024562	0.797223	-0.058045	-0.600385
43952	-8.970043	-2.775640	-0.432948	-0.028944	0.800172	-0.070934	-0.594857
43953	-9.449147	-2.367963	0.479504	-0.034114	0.803710	-0.085261	-0.587892
43954	-9.595166	0.012053	-0.583496	-0.040344	0.807559	-0.100077	-0.579832
43955	-10.639287	1.280064	-1.326255	-0.041883	0.811966	-0.110896	-0.571541
43956	-11.665602	0.309662	-1.999963	-0.039349	0.816683	-0.118589	-0.563398
43957	-12.285004	0.356661	-1.765171	-0.035569	0.821584	-0.125585	-0.554944
43958	-12.293963	-0.461710	-0.410707	-0.029334	0.826741	-0.132567	-0.545953
43959	-12.195378	-3.325315	-0.676991	-0.025216	0.831896	-0.143374	-0.535497
43960	-11.517919	-3.980447	-2.500463	-0.027558	0.836330	-0.160554	-0.523465
43961	-9.974554	-2.206882	-5.520727	-0.036239	0.839354	-0.183361	-0.510441
43962	-8.975309	-0.439285	-8.107423	-0.046612	0.841126	-0.208304	-0.496935
43963	-7.697191	-0.663277	-8.341664	-0.055395	0.841332	-0.233724	-0.484216
43964	-6.127394	-1.413456	-9.183320	-0.067329	0.839736	-0.261331	-0.471186
43965	-5.504187	-0.942248	-4.914353	-0.075876	0.835848	-0.288574	-0.460788
43966	-4.645557	-8.804993	-5.569439	-0.085800	0.828621	-0.316825	-0.453484
43967	-5.918762	-10.647943	-6.243380	-0.115672	0.817110	-0.351112	-0.442348
43968	-6.903210	-2.494302	-5.921645	-0.162528	0.799111	-0.390444	-0.427271
43969	-6.289663	6.007446	-4.474374	-0.201861	0.777917	-0.423346	-0.418182
43970	-5.256274	6.340957	-3.723869	-0.221080	0.758537	-0.444667	-0.421920
43971	-7.659346	2.421139	-4.321254	-0.229338	0.740188	-0.459179	-0.434375
43972	-8.717929	-1.732723	-4.346370	-0.233953	0.721214	-0.470579	-0.451300
43973	-9.190018	-7.443028	-6.330673	-0.245477	0.698729	-0.484563	-0.465529
43974	-9.133916	-10.317656	-8.440435	-0.272574	0.669177	-0.507410	-0.469511
43975	-8.375168	-9.435201	-10.221034	-0.315207	0.629821	-0.541551	-0.459013
43976	-8.058611	-4.951119	-10.794710	-0.367046	0.579706	-0.583810	-0.434032
43977	-7.893178	-1.165756	-10.190906	-0.417512	0.521862	-0.626358	-0.401272
43978	-8.087504	-1.296089	-9.397366	-0.461518	0.460671	-0.664277	-0.365403
43979	-8.504586	-2.088044	-8.970013	-0.499937	0.397055	-0.697458	-0.325520
43980	-8.828038	-0.919761	-8.748519	-0.532970	0.332144	-0.725556	-0.281409
43981	-9.472692	2.569800	-7.591847	-0.560038	0.270729	-0.746284	-0.236902
43982	-9.208986	5.063908	-4.797683	-0.580883	0.220047	-0.757762	-0.199876
43983	-9.180663	5.125155	-3.942040	-0.596794	0.184270	-0.761133	-0.174809
43984	-8.547185	-0.726250	-6.781545	-0.607778	0.165152	-0.759625	-0.162173
43985	-5.071634	-1.706095	-11.055044	-0.613787	0.156386	-0.758553	-0.152992
43986	-3.322512	-2.365262	-12.654683	-0.614220	0.157948	-0.757874	-0.153011
43987	-5.455341	-6.577909	-10.843857	-0.612445	0.166675	-0.756302	-0.158550
43988	-9.630367	-2.270970	-5.803586	-0.615511	0.169801	-0.753438	-0.156989
43989	-15.054557	5.509145	-0.858597	-0.620336	0.169781	-0.750453	-0.152243
43990	-14.416167	6.322234	-0.595298	-0.624317	0.173623	-0.745795	-0.154508
43991	-8.431397	0.664254	0.318234	-0.627483	0.177288	-0.741789	-0.156791
43992	-8.181992	-5.586756	0.077310	-0.630495	0.177965	-0.739534	-0.154577
43993	-9.678727	-7.119208	-1.999835	-0.635123	0.170960	-0.739456	-0.143514
43994	-10.213249	-1.257710	-1.583142	-0.639553	0.162143	-0.739840	-0.131598
43995	-10.005999	1.216580	-0.707949	-0.642355	0.157685	-0.739317	-0.126196
43996	-9.337065	0.501883	-0.217554	-0.644555	0.154729	-0.738645	-0.122518
43997	-9.501568	0.038801	-0.740582	-0.646599	0.150627	-0.738545	-0.117357
43998	-9.575337	0.303659	-0.385246	-0.648126	0.147463	-0.738484	-0.113261
43999	-9.291199	-0.821318	-0.855708	-0.649239	0.145400	-0.738365	-0.110292
44000	-9.433573	-0.552343	-0.971903	-0.650142	0.142815	-0.738590	-0.106788
44001	-9.712631	-0.176273	-0.974131	-0.650534	0.141378	-0.738771	-0.105051
44002	-9.652209	-0.654030	-1.307121	-0.650671	0.140973	-0.738778	-0.104689
44003	-9.661827	-0.571857	-0.885626	-0.650718	0.140533	-0.738867	-0.104368
44004	-9.816942	-1.933468	-1.848074	-0.651485	0.136033	-0.739648	-0.099916
44005	-9.801645	0.608568	-0.935898	-0.652241	0.130927	-0.740566	-0.094877
44006	-9.400706	-0.053497	-0.612693	-0.652260	0.129158	-0.740971	-0.094008
44007	-9.392756	-2.120346	-1.095100	-0.652028	0.127536	-0.741508	-0.093591
44008	-9.660042	-1.372424	-1.145683	-0.652129	0.123063	-0.742579	-0.090331
44009	-9.537501	0.051351	-0.969167	-0.651997	0.118771	-0.743706	-0.087719
44010	-9.611555	-0.674591	-1.170252	-0.651608	0.114905	-0.744857	-0.085981
44011	-9.829243	-0.997704	-0.922229	-0.651067	0.110767	-0.746142	-0.084350
44012	-9.633223	-0.746461	-0.999476	-0.650340	0.106384	-0.747583	-0.082823
44013	-9.606966	-0.401653	-1.021199	-0.649342	0.102241	-0.749120	-0.081979
44014	-9.856331	-0.549265	-1.257407	-0.648171	0.098234	-0.750714	-0.081569
44015	-9.769834	-0.141250	-1.641262	-0.647035	0.093599	-0.752393	-0.080559
44016	-9.921077	0.318980	-1.467401	-0.645742	0.089012	-0.754133	-0.079861
44017	-9.664803	-0.006358	-0.735535	-0.644166	0.084597	-0.756009	-0.079645
44018	-9.561082	-0.859003	-0.861148	-0.642403	0.078690	-0.758307	-0.078082
44019	-9.101655	0.907002	-1.821581	-0.640576	0.070945	-0.760969	-0.074542
44020	-9.195589	3.277602	-2.928834	-0.638467	0.064014	-0.763508	-0.072918
44021	-9.188058	4.055281	-3.908870	-0.636432	0.057314	-0.765743	-0.072855
44022	-9.490926	3.582414	-4.330853	-0.634845	0.048368	-0.767720	-0.072368
44023	-10.014680	1.374813	-4.373628	-0.634257	0.035664	-0.769212	-0.068980
44024	-9.940695	0.638703	-4.164317	-0.634545	0.018728	-0.770331	-0.059936
44025	-9.764420	2.270224	-2.822295	-0.635236	0.003152	-0.770570	-0.051844
44026	-8.926885	0.582026	-1.986550	-0.636369	-0.007834	-0.769836	-0.048230
44027	-9.065868	-2.223069	-1.986648	-0.637781	-0.017063	-0.768730	-0.044703
44028	-9.497633	-1.676576	-1.867515	-0.639532	-0.025834	-0.767321	-0.039376
44029	-10.016901	-0.378819	-1.698455	-0.641900	-0.030720	-0.765323	-0.036084
44030	-10.478524	0.417019	-1.663283	-0.645025	-0.030662	-0.762686	-0.036234
44031	-10.638946	4.763611	-1.297650	-0.648295	-0.026192	-0.759803	-0.041572
44032	-9.913379	1.979415	-1.472920	-0.651779	-0.018806	-0.756493	-0.050485
44033	-9.304731	0.847186	-1.440716	-0.654818	-0.015418	-0.753606	-0.055265
44034	-9.131720	0.762909	-0.946937	-0.657537	-0.013961	-0.751064	-0.057906
44035	-9.021282	0.330668	-0.715848	-0.660040	-0.012975	-0.748746	-0.059659
44036	-9.368694	0.259870	-0.553427	-0.662316	-0.012285	-0.746634	-0.061035
44037	-9.764286	0.769967	-0.336855	-0.664418	-0.011780	-0.744697	-0.061941
44038	-9.716022	1.227032	-0.448280	-0.666333	-0.011233	-0.742920	-0.062797
44039	-9.642067	1.239217	-0.467612	-0.668041	-0.010773	-0.741329	-0.063540
44040	-9.553979	1.357514	-0.571419	-0.669566	-0.010369	-0.739914	-0.064050
44041	-9.472225	1.361293	-0.537751	-0.670857	-0.009593	-0.738687	-0.064813
44042	-9.411530	1.510417	-0.537677	-0.672049	-0.008506	-0.737534	-0.065732
44043	-9.431907	1.354690	-0.411496	-0.673068	-0.006822	-0.736481	-0.067301
44044	-9.528297	0.834899	-0.236613	-0.673922	-0.005018	-0.735559	-0.068968
44045	-9.856066	0.637271	-0.108457	-0.674587	-0.003633	-0.734853	-0.070081
44046	-9.988463	0.958883	-0.189899	-0.675045	-0.002667	-0.734367	-0.070797
44047	-9.688672	1.219745	-0.278263	-0.675408	-0.001498	-0.733936	-0.071827
44048	-9.588811	0.742190	-0.545495	-0.675638	-0.000061	-0.733591	-0.073196
44049	-9.637256	0.770498	-0.508602	-0.675778	0.001031	-0.733361	-0.074189
44050	-9.670374	1.160412	-0.431780	-0.675832	0.001775	-0.733247	-0.074807
44051	-9.724744	1.388596	-0.571821	-0.675858	0.002902	-0.733115	-0.075825
44052	-9.701215	1.139997	-1.030444	-0.675931	0.004106	-0.732932	-0.076880
44053	-9.849649	1.217411	-1.192437	-0.676116	0.005318	-0.732644	-0.077918
44054	-9.936683	1.101811	-1.298486	-0.676479	0.006702	-0.732160	-0.079208
44055	-9.821132	0.989272	-1.109621	-0.676971	0.008314	-0.731512	-0.080821
44056	-9.693811	0.788683	-1.006011	-0.677600	0.009979	-0.730713	-0.082565
44057	-9.809528	0.917100	-0.941601	-0.678330	0.011382	-0.729843	-0.084078
44058	-9.972620	1.007534	-0.811391	-0.679125	0.012705	-0.728906	-0.085578
44059	-9.810834	0.997720	-0.585228	-0.679976	0.013693	-0.727964	-0.086680
44060	-9.639234	1.103038	-0.189039	-0.680735	0.014513	-0.727142	-0.087482
44061	-9.532286	0.902267	0.056894	-0.681396	0.015035	-0.726461	-0.087912
44062	-9.514218	0.875923	0.091555	-0.681881	0.015146	-0.726008	-0.087871
44063	-9.492796	1.100616	0.080005	-0.682175	0.014914	-0.725784	-0.087477
44064	-9.593704	1.295925	0.118794	-0.682238	0.015199	-0.725717	-0.087496
44065	-9.643340	0.907777	0.096189	-0.682082	0.015800	-0.725819	-0.087754
44066	-9.694479	0.777204	-0.292519	-0.681832	0.015714	-0.726102	-0.087379
44067	-9.670047	1.268491	-0.514771	-0.681546	0.015489	-0.726450	-0.086747
44068	-9.701950	1.139503	-0.567187	-0.681238	0.015701	-0.726763	-0.086507
44069	-9.693885	0.889250	-0.625325	-0.680962	0.015688	-0.727083	-0.085993
44070	-9.636377	0.910654	-0.634193	-0.680685	0.015419	-0.727439	-0.085224
44071	-9.712612	0.872074	-0.697557	-0.680482	0.014925	-0.727753	-0.084250
44072	-9.816088	1.027941	-0.765523	-0.680312	0.014535	-0.728024	-0.083338
44073	-9.749988	1.077403	-0.768734	-0.680134	0.014358	-0.728261	-0.082747
44074	-9.651879	0.901187	-0.762824	-0.680032	0.014500	-0.728383	-0.082487
44075	-9.732590	0.877146	-0.622991	-0.679942	0.014563	-0.728496	-0.082220
44076	-9.756260	0.928337	-0.480558	-0.679871	0.014720	-0.728568	-0.082143
44077	-9.737521	0.930749	-0.433006	-0.679723	0.014942	-0.728687	-0.082273
44078	-9.720398	0.898108	-0.478417	-0.679567	0.015167	-0.728811	-0.082420
44079	-9.655979	0.964161	-0.571001	-0.679342	0.015334	-0.729001	-0.082559
44080	-9.672996	0.849536	-0.598516	-0.679126	0.015609	-0.729162	-0.082869
44081	-9.664840	0.930582	-0.647213	-0.678885	0.015731	-0.729363	-0.083043
44082	-9.691178	1.108358	-0.628526	-0.678589	0.016085	-0.729570	-0.083581
44083	-9.735037	0.857546	-0.726870	-0.678378	0.016516	-0.729688	-0.084178
44084	-9.730833	0.940009	-0.759720	-0.678238	0.016676	-0.729779	-0.084491
44085	-9.712138	1.039771	-0.710616	-0.678127	0.016928	-0.729828	-0.084898
44086	-9.694099	0.918604	-0.755872	-0.678031	0.017103	-0.729870	-0.085270
44087	-9.756331	0.991351	-0.790206	-0.678006	0.017193	-0.729865	-0.085500
44088	-9.737791	0.984150	-0.754458	-0.678019	0.017266	-0.729823	-0.085735
44089	-9.687406	0.929456	-0.663349	-0.678107	0.017214	-0.729730	-0.085840
44090	-9.646965	1.050872	-0.602734	-0.678178	0.017083	-0.729671	-0.085801
44091	-9.709400	1.122290	-0.635090	-0.678214	0.017036	-0.729637	-0.085819
44092	-9.766502	0.943116	-0.654527	-0.678257	0.016956	-0.729598	-0.085829
44093	-9.691635	1.073723	-0.644022	-0.678376	0.016721	-0.729519	-0.085605
44094	-9.735516	1.055059	-0.625821	-0.678467	0.016587	-0.729461	-0.085402
44095	-9.726936	1.022471	-0.637664	-0.678574	0.016420	-0.729391	-0.085187
44096	-9.749049	1.012134	-0.627478	-0.678779	0.016079	-0.729257	-0.084765
44097	-9.763657	1.113304	-0.674692	-0.678916	0.015737	-0.729189	-0.084314
44098	-9.751450	1.171496	-0.698684	-0.679058	0.015494	-0.729104	-0.083949
44099	-9.796643	1.048349	-0.740556	-0.679282	0.015467	-0.728931	-0.083644
44100	-9.884199	1.087620	-0.882970	-0.679604	0.015155	-0.728698	-0.083118
44101	-9.851190	1.139178	-0.926251	-0.679999	0.015073	-0.728385	-0.082642
44102	-9.916194	1.055793	-1.011796	-0.680499	0.014992	-0.727961	-0.082272
44103	-9.852901	1.124142	-1.024227	-0.681143	0.014905	-0.727416	-0.081780
44104	-9.745640	1.157891	-0.838267	-0.681890	0.014924	-0.726762	-0.081361
44105	-9.701944	1.052193	-0.761111	-0.682724	0.014863	-0.726053	-0.080717
44106	-9.611659	1.147748	-0.545826	-0.683612	0.014754	-0.725318	-0.079815
44107	-9.633831	1.028011	-0.471252	-0.684541	0.014409	-0.724581	-0.078606
44108	-9.625566	1.123873	-0.357430	-0.685426	0.014039	-0.723909	-0.077141
44109	-9.493856	1.141106	-0.150968	-0.686229	0.013847	-0.723309	-0.075652
44110	-9.475947	1.179355	0.202910	-0.686877	0.013798	-0.722835	-0.074288
44111	-9.483205	0.978231	0.362366	-0.687327	0.014055	-0.722552	-0.072820
44112	-9.582402	0.796375	0.414069	-0.687543	0.013791	-0.722557	-0.070758
44113	-9.738743	0.817708	0.214407	-0.687565	0.013001	-0.722828	-0.067858
44114	-9.764755	0.977463	0.042765	-0.687447	0.012046	-0.723252	-0.064634
44115	-9.742268	0.935384	-0.133455	-0.687212	0.011284	-0.723768	-0.061415
44116	-9.692140	0.961623	-0.108884	-0.686765	0.010752	-0.724457	-0.058322
44117	-9.599640	0.805184	-0.040653	-0.686120	0.010482	-0.725291	-0.055529
44118	-9.654643	0.756906	-0.065061	-0.685316	0.010292	-0.726250	-0.052887
44119	-9.789155	0.586071	-0.263762	-0.684489	0.010425	-0.727201	-0.050442
44120	-9.657907	0.731104	-0.351856	-0.683554	0.010753	-0.728221	-0.048298
44121	-9.466760	0.588472	-0.490154	-0.682693	0.011460	-0.729145	-0.046322
44122	-9.622120	0.410676	-0.867562	-0.681700	0.011749	-0.730220	-0.043884
44123	-9.654342	0.784961	-1.549518	-0.680911	0.011583	-0.731125	-0.041010
44124	-10.201008	0.546195	-2.980403	-0.680692	0.013234	-0.731353	-0.040065
44125	-10.676382	-1.336759	-1.095892	-0.680950	0.014027	-0.731215	-0.037881
44126	-9.288647	2.193258	0.965409	-0.681209	0.011292	-0.731312	-0.031785
44127	-9.589340	0.307484	-0.795196	-0.681148	0.009396	-0.731600	-0.026671
44128	-9.899929	-0.565413	-1.930698	-0.681288	0.006363	-0.731709	-0.020186
44129	-10.071546	0.074085	-1.656671	-0.681781	0.003890	-0.731397	-0.014758
44130	-9.933895	1.113195	-0.924351	-0.682437	0.003915	-0.730835	-0.011987
44131	-9.602983	0.244052	-1.058890	-0.683191	0.005485	-0.730138	-0.010890
44132	-9.540543	0.034837	-0.621977	-0.683992	0.006611	-0.729400	-0.009338
44133	-9.505966	0.013045	-0.210684	-0.684736	0.007028	-0.728723	-0.007057
44134	-9.667728	-0.169531	-0.275761	-0.685388	0.007259	-0.728127	-0.004704
44135	-9.626176	-0.777199	-0.611818	-0.685968	0.007022	-0.727596	-0.001888
44136	-9.639383	-0.709327	-0.730507	-0.686650	0.006109	-0.726961	0.001393
44137	-9.574916	-0.405343	-0.558099	-0.687275	0.005294	-0.726365	0.004258
44138	-9.679145	-0.451334	-0.418522	-0.687769	0.004951	-0.725886	0.006306
44139	-9.656518	-0.547124	-0.269084	-0.688251	0.004882	-0.725414	0.007829
44140	-9.931726	-0.731130	-0.167699	-0.688574	0.004653	-0.725092	0.009229
44141	-9.671968	-0.425127	0.096484	-0.688813	0.004217	-0.724850	0.010582
44142	-9.656752	-0.676874	0.115358	-0.688786	0.003431	-0.724855	0.012098
44143	-9.658747	-0.679253	0.174821	-0.688549	0.002093	-0.725057	0.013725
44144	-9.814723	-1.180527	0.289086	-0.688092	0.000755	-0.725468	0.014988
44145	-9.731023	-1.019565	0.391997	-0.687433	-0.001087	-0.726062	0.016387
44146	-9.610935	-0.738612	0.284096	-0.686527	-0.003052	-0.726887	0.017503
44147	-9.493371	-0.542440	0.177309	-0.685274	-0.005039	-0.728038	0.018272
44148	-9.434092	-0.411036	0.206961	-0.683702	-0.006842	-0.729491	0.018660
44149	-9.596971	-0.276962	0.236166	-0.681761	-0.008485	-0.731284	0.018807
44150	-9.695248	-0.079761	0.049247	-0.679518	-0.010385	-0.733342	0.018892
44151	-9.816562	-0.495246	-0.391118	-0.677107	-0.012305	-0.735538	0.018915
44152	-9.694284	-0.454491	-0.700035	-0.674553	-0.014552	-0.737832	0.019227
44153	-9.396742	0.167846	-0.793566	-0.671792	-0.016256	-0.740322	0.018798
44154	-9.764111	-0.160767	-1.061714	-0.669009	-0.017316	-0.742844	0.017623
44155	-10.018264	-0.457630	-1.612772	-0.666446	-0.018721	-0.745130	0.016749
44156	-10.023726	-0.292753	-1.943328	-0.664064	-0.020632	-0.747218	0.016084
44157	-9.846511	-0.375775	-1.877253	-0.661997	-0.022625	-0.749012	0.015138
44158	-9.485790	-0.364270	-1.622807	-0.660053	-0.024848	-0.750673	0.014230
44159	-9.415796	0.072051	-1.272890	-0.658177	-0.026527	-0.752290	0.012645
44160	-9.524124	0.149709	-1.261304	-0.656249	-0.027993	-0.753949	0.010687
44161	-9.641696	0.334141	-1.098623	-0.654287	-0.029377	-0.755625	0.008745
44162	-9.619650	0.400232	-1.023362	-0.652103	-0.031136	-0.757457	0.007199
44163	-9.706906	0.526359	-1.117914	-0.649787	-0.033116	-0.759370	0.006052
44164	-9.606036	0.532889	-1.328314	-0.647374	-0.035093	-0.761347	0.005034
44165	-9.529008	0.384983	-1.633639	-0.644904	-0.036995	-0.763357	0.003987
44166	-9.601430	0.472157	-1.771705	-0.642479	-0.038989	-0.765305	0.002954
44167	-9.718532	0.467633	-1.895699	-0.640060	-0.040523	-0.767254	0.001578
44168	-9.707042	0.487748	-1.822676	-0.637799	-0.041786	-0.769068	-0.000057
44169	-9.571529	0.665102	-1.579146	-0.635470	-0.043156	-0.770917	-0.001592
44170	-9.310423	0.745936	-1.473482	-0.632930	-0.044761	-0.772909	-0.002708
44171	-9.387738	0.552128	-1.679958	-0.630235	-0.046802	-0.774985	-0.003299
44172	-9.715626	0.317050	-2.472183	-0.627562	-0.049568	-0.776982	-0.002898
44173	-9.632945	0.741802	-2.903265	-0.625176	-0.052354	-0.778722	-0.002351
44174	-9.421815	0.837685	-3.248756	-0.623150	-0.054848	-0.780174	-0.002208
44175	-9.411526	0.663659	-3.287830	-0.621499	-0.057141	-0.781325	-0.002227
44176	-9.438178	0.458048	-3.241566	-0.620186	-0.059682	-0.782180	-0.001734
44177	-9.648966	0.979283	-3.296121	-0.619197	-0.062541	-0.782740	-0.000818
44178	-9.630674	1.206375	-3.164101	-0.618611	-0.065045	-0.783001	-0.000125
44179	-9.476453	1.201166	-2.866127	-0.618247	-0.067114	-0.783113	0.000337
44180	-9.322271	0.976783	-2.740401	-0.618040	-0.069524	-0.783065	0.001271
44181	-9.365824	1.105819	-2.665561	-0.617908	-0.072106	-0.782933	0.002507
44182	-9.360307	1.223956	-2.528648	-0.617956	-0.074369	-0.782681	0.003364
44183	-9.561418	1.163876	-2.423629	-0.618085	-0.075946	-0.782425	0.003676
44184	-9.673233	1.247501	-2.309719	-0.618234	-0.076945	-0.782211	0.003424
44185	-9.552320	1.202389	-2.211212	-0.618589	-0.077541	-0.781874	0.002670
44186	-9.453397	1.332943	-2.288105	-0.618961	-0.077862	-0.781550	0.001930
44187	-9.285399	1.416256	-2.417996	-0.619321	-0.077809	-0.781273	0.000908
44188	-9.291445	1.274821	-2.450274	-0.619795	-0.077358	-0.780941	-0.000458
44189	-9.379960	1.017082	-2.522243	-0.620352	-0.076817	-0.780551	-0.001705
44190	-9.419584	1.257288	-2.721700	-0.621013	-0.076527	-0.780051	-0.002542
44191	-9.453985	1.428880	-2.779048	-0.621826	-0.075945	-0.779457	-0.003515
44192	-9.567402	1.108839	-2.869279	-0.622797	-0.075229	-0.778745	-0.004589
44193	-9.588819	1.006285	-2.752442	-0.624017	-0.074622	-0.777822	-0.005176
44194	-9.553532	1.282772	-2.489026	-0.625366	-0.074065	-0.776788	-0.005619
44195	-9.504292	1.125337	-2.269383	-0.626861	-0.073409	-0.775642	-0.005999
44196	-9.573421	1.096820	-2.104401	-0.628386	-0.072836	-0.774460	-0.006193
44197	-9.564575	1.051167	-1.801301	-0.629880	-0.072216	-0.773302	-0.006363
44198	-9.561634	1.097933	-1.526882	-0.631321	-0.071245	-0.772212	-0.006758
44199	-9.565675	1.000354	-1.486934	-0.632573	-0.070594	-0.771246	-0.006932
44200	-9.525997	1.023566	-1.495442	-0.633628	-0.069789	-0.770451	-0.007147
44201	-9.524983	0.976905	-1.573335	-0.634526	-0.069081	-0.769773	-0.007354
44202	-9.463042	1.041752	-1.573546	-0.635331	-0.068198	-0.769184	-0.007742
44203	-9.447227	0.876280	-1.557356	-0.635972	-0.067264	-0.768730	-0.008310
44204	-9.505678	0.832449	-1.524927	-0.636569	-0.066435	-0.768303	-0.008784
44205	-9.580436	0.844246	-1.630418	-0.636974	-0.065820	-0.768018	-0.008946
44206	-9.559991	0.990357	-1.777470	-0.637344	-0.065394	-0.767747	-0.009027
44207	-9.536811	0.924131	-1.857740	-0.637655	-0.064891	-0.767529	-0.009166
44208	-9.567445	0.838486	-1.842671	-0.638036	-0.064415	-0.767251	-0.009316
44209	-9.566207	0.882901	-1.811373	-0.638421	-0.064072	-0.766959	-0.009344
44210	-9.553687	1.000192	-1.792159	-0.638795	-0.063714	-0.766677	-0.009361
44211	-9.557671	1.055037	-1.846522	-0.639251	-0.063343	-0.766326	-0.009502
44212	-9.615775	0.999196	-1.962221	-0.639676	-0.062896	-0.766006	-0.009662
44213	-9.632568	1.034634	-1.933177	-0.640244	-0.062291	-0.765576	-0.010012
44214	-9.601222	0.869048	-1.884606	-0.640800	-0.061690	-0.765155	-0.010410
44215	-9.578742	0.938369	-1.843711	-0.641387	-0.061194	-0.764700	-0.010531
44216	-9.519805	0.950291	-1.773950	-0.642003	-0.060657	-0.764224	-0.010681
44217	-9.567959	0.917556	-1.754573	-0.642625	-0.060211	-0.763734	-0.010885
44218	-9.581966	1.000640	-1.697840	-0.643279	-0.059681	-0.763220	-0.011231
44219	-9.618313	0.867168	-1.730980	-0.643927	-0.059069	-0.762715	-0.011620
44220	-9.616066	0.941596	-1.712473	-0.644634	-0.058505	-0.762157	-0.011867
44221	-9.609025	0.977310	-1.763617	-0.645368	-0.057998	-0.761571	-0.012047
44222	-9.599791	0.971614	-1.739195	-0.646123	-0.057444	-0.760969	-0.012301
44223	-9.624830	0.875924	-1.627769	-0.646924	-0.056783	-0.760332	-0.012676
44224	-9.616854	0.903555	-1.577501	-0.647761	-0.056222	-0.759657	-0.012917
44225	-9.619980	0.990475	-1.608581	-0.648557	-0.055698	-0.759011	-0.013162
44226	-9.595408	0.992438	-1.610600	-0.649376	-0.055184	-0.758346	-0.013331
44227	-9.634070	0.969848	-1.600034	-0.650234	-0.054716	-0.757640	-0.013531
44228	-9.614339	0.936971	-1.467339	-0.651114	-0.054098	-0.756923	-0.013854
44229	-9.605980	0.885222	-1.431448	-0.651984	-0.053481	-0.756212	-0.014161
44230	-9.582614	0.847472	-1.345476	-0.652794	-0.052903	-0.755548	-0.014452
44231	-9.605159	0.822260	-1.297420	-0.653551	-0.052487	-0.754920	-0.014559
44232	-9.630863	0.957249	-1.395837	-0.654282	-0.052182	-0.754308	-0.014548
44233	-9.656722	1.019475	-1.431834	-0.655044	-0.051706	-0.753675	-0.014751
44234	-9.633528	0.852084	-1.434909	-0.655767	-0.051089	-0.753082	-0.015072
44235	-9.629417	0.825185	-1.298003	-0.656503	-0.050562	-0.752471	-0.015325
44236	-9.580781	0.783830	-1.158713	-0.657198	-0.050120	-0.751890	-0.015531
44237	-9.655157	0.745521	-1.116033	-0.657801	-0.049955	-0.751373	-0.015521
44238	-9.665115	0.941722	-1.175918	-0.658320	-0.049778	-0.750931	-0.015485
44239	-9.619421	0.872557	-1.244137	-0.658826	-0.049391	-0.750508	-0.015704
44240	-9.604909	0.790467	-1.210961	-0.659317	-0.049037	-0.750096	-0.015882
44241	-9.620912	0.780323	-1.172190	-0.659769	-0.048788	-0.749714	-0.015941
44242	-9.675139	0.905453	-1.143129	-0.660114	-0.048754	-0.749415	-0.015817
44243	-9.674269	0.821503	-1.197595	-0.660464	-0.048700	-0.749111	-0.015759
44244	-9.621409	0.855238	-1.097241	-0.660795	-0.048616	-0.748825	-0.015715
44245	-9.563849	0.762617	-1.019888	-0.661067	-0.048449	-0.748595	-0.015777
44246	-9.651654	0.757039	-1.046113	-0.661210	-0.048748	-0.748457	-0.015404
44247	-9.657208	0.922874	-1.108834	-0.661318	-0.048922	-0.748354	-0.015178
44248	-9.667846	0.811132	-1.200263	-0.661415	-0.049047	-0.748262	-0.015109
44249	-9.662041	0.838273	-1.233357	-0.661491	-0.049142	-0.748190	-0.015064
44250	-9.648907	0.976085	-1.205891	-0.661584	-0.049025	-0.748112	-0.015214
44251	-9.626641	0.844471	-1.234190	-0.661655	-0.048887	-0.748054	-0.015436
44252	-9.630037	0.775245	-1.157554	-0.661728	-0.048868	-0.747989	-0.015486
44253	-9.666497	0.743982	-1.132679	-0.661721	-0.049076	-0.747986	-0.015327
44254	-9.688650	0.885739	-1.215748	-0.661716	-0.049430	-0.747971	-0.015118
44255	-9.674743	0.929014	-1.219269	-0.661752	-0.049612	-0.747927	-0.015077
44256	-9.622427	0.837020	-1.214157	-0.661770	-0.049775	-0.747901	-0.015068
44257	-9.645014	0.848116	-1.193270	-0.661799	-0.050060	-0.747860	-0.014904
44258	-9.688314	0.926486	-1.193140	-0.661794	-0.050348	-0.747847	-0.014752
44259	-9.639403	0.928665	-1.192220	-0.661789	-0.050519	-0.747840	-0.014790
44260	-9.652750	0.890045	-1.190093	-0.661807	-0.050549	-0.747818	-0.014953
44261	-9.604839	0.864000	-1.168234	-0.661766	-0.050633	-0.747845	-0.015139
44262	-9.678135	0.921328	-1.191084	-0.661727	-0.050738	-0.747871	-0.015255
44263	-9.651867	0.933975	-1.169168	-0.661724	-0.050786	-0.747865	-0.015501
