// Start Time: Unknown
// Update Rate: 60.0Hz
// Filter Profile: human (46.1)
// Option Flags: AHS Disabled ICC Disabled 
// Firmware Version: 4.3.5
PacketCounter	Acc_X	Acc_Y	Acc_Z	Quat_q0	Quat_q1	Quat_q2	Quat_q3
39183	-9.655685	1.266273	-0.835812	0.667358	0.001808	0.739600	0.087303
39184	-9.642768	1.195458	-0.898677	0.667276	0.001695	0.739653	0.087481
39185	-9.623027	1.300779	-0.953381	0.667194	0.001623	0.739713	0.087609
39186	-9.669472	1.251023	-0.993160	0.667097	0.001530	0.739778	0.087798
39187	-9.659870	1.221427	-0.980765	0.667042	0.001505	0.739810	0.087940
39188	-9.648449	1.248385	-0.921013	0.666977	0.001469	0.739847	0.088130
39189	-9.635245	1.276065	-0.875993	0.666912	0.001546	0.739895	0.088212
39190	-9.632969	1.292872	-0.877237	0.666854	0.001629	0.739940	0.088271
39191	-9.630954	1.316544	-0.996676	0.666778	0.001789	0.740009	0.088262
39192	-9.664839	1.355218	-1.045772	0.666750	0.001847	0.740026	0.088326
39193	-9.638903	1.275957	-0.973977	0.666695	0.001832	0.740060	0.088461
39194	-9.656493	1.292077	-0.932826	0.666661	0.001837	0.740083	0.088519
39195	-9.630981	1.364597	-0.943150	0.666603	0.001862	0.740132	0.088556
39196	-9.623347	1.347457	-0.900628	0.666567	0.001875	0.740160	0.088592
39197	-9.635721	1.322959	-0.949603	0.666527	0.001924	0.740201	0.088547
39198	-9.655259	1.295656	-0.940594	0.666483	0.001984	0.740245	0.088509
39199	-9.647845	1.298780	-1.000429	0.666450	0.002021	0.740275	0.088504
39200	-9.667508	1.361921	-1.015968	0.666459	0.002023	0.740264	0.088523
39201	-9.631278	1.340574	-0.968427	0.666473	0.001924	0.740237	0.088649
39202	-9.650998	1.313555	-0.957297	0.666487	0.001856	0.740213	0.088755
39203	-9.629280	1.252199	-0.957421	0.666518	0.001843	0.740184	0.088760
39204	-9.652679	1.313523	-0.943098	0.666541	0.001914	0.740172	0.088687
39205	-9.645422	1.295232	-0.898827	0.666576	0.001933	0.740145	0.088651
39206	-9.674288	1.271316	-0.932929	0.666612	0.001966	0.740116	0.088617
39207	-9.639981	1.297502	-0.942484	0.666630	0.002027	0.740104	0.088577
39208	-9.616349	1.292597	-0.896144	0.666629	0.002078	0.740105	0.088573
39209	-9.619747	1.305876	-0.852788	0.666608	0.002083	0.740124	0.088573
39210	-9.630309	1.274970	-0.798224	0.666542	0.002122	0.740184	0.088568
39211	-9.624530	1.291662	-0.829324	0.666434	0.002150	0.740281	0.088574
39212	-9.609627	1.353001	-0.887798	0.666302	0.002146	0.740397	0.088590
39213	-9.628951	1.298382	-0.911678	0.666153	0.002114	0.740523	0.088669
39214	-9.603063	1.342747	-0.955712	0.665983	0.002111	0.740674	0.088679
39215	-9.627759	1.300246	-0.921556	0.665796	0.002069	0.740830	0.088786
39216	-9.661311	1.233781	-0.963871	0.665599	0.002114	0.741008	0.088771
39217	-9.651456	1.279793	-0.995953	0.665421	0.002194	0.741167	0.088775
39218	-9.639934	1.250426	-1.001025	0.665258	0.002220	0.741309	0.088818
39219	-9.639338	1.307803	-0.944720	0.665068	0.002258	0.741468	0.088903
39220	-9.656385	1.386941	-0.963749	0.664881	0.002259	0.741624	0.089005
39221	-9.630278	1.328429	-0.997766	0.664693	0.002242	0.741778	0.089130
39222	-9.596871	1.327837	-1.028353	0.664517	0.002265	0.741925	0.089209
39223	-9.632349	1.303211	-1.009675	0.664345	0.002239	0.742067	0.089320
39224	-9.633405	1.290472	-1.015628	0.664166	0.002297	0.742222	0.089354
39225	-9.634133	1.381779	-1.031924	0.663987	0.002272	0.742372	0.089446
39226	-9.656552	1.403006	-1.068294	0.663839	0.002206	0.742489	0.089575
39227	-9.659401	1.347801	-1.104569	0.663718	0.002161	0.742583	0.089692
39228	-9.617661	1.356516	-1.072431	0.663621	0.002118	0.742660	0.089770
39229	-9.655509	1.330468	-1.037000	0.663543	0.002047	0.742718	0.089873
39230	-9.628847	1.250485	-0.980436	0.663468	0.002056	0.742783	0.089888
39231	-9.619305	1.323533	-0.978756	0.663406	0.002183	0.742852	0.089769
39232	-9.608761	1.431333	-1.064535	0.663304	0.002231	0.742946	0.089743
39233	-9.651167	1.396571	-1.119065	0.663223	0.002141	0.743002	0.089883
39234	-9.678040	1.284142	-1.143890	0.663212	0.002030	0.742996	0.090013
39235	-9.690106	1.259925	-1.191308	0.663227	0.001983	0.742970	0.090114
39236	-9.690066	1.260951	-1.190549	0.663311	0.002038	0.742894	0.090129
39237	-9.643745	1.340453	-1.119466	0.663450	0.002085	0.742769	0.090134
39238	-9.610188	1.290789	-1.084622	0.663583	0.002130	0.742644	0.090186
39239	-9.634514	1.290740	-1.010565	0.663759	0.002253	0.742489	0.090161
39240	-9.694624	1.354427	-0.938239	0.663925	0.002364	0.742345	0.090125
39241	-9.617130	1.375340	-0.938735	0.664058	0.002424	0.742223	0.090141
39242	-9.579017	1.417033	-0.959089	0.664164	0.002420	0.742124	0.090176
39243	-9.598646	1.494114	-0.956281	0.664251	0.002318	0.742029	0.090329
39244	-9.659122	1.266621	-0.957448	0.664308	0.002033	0.741932	0.090703
39245	-9.654304	1.262805	-0.881441	0.664368	0.001920	0.741859	0.090872
39246	-9.683501	1.135897	-0.904789	0.664435	0.002034	0.741804	0.090828
39247	-9.636492	1.402488	-0.989512	0.664484	0.002170	0.741767	0.090762
39248	-9.671693	1.342716	-0.892991	0.664527	0.002211	0.741730	0.090751
39249	-9.710815	1.038575	-0.911580	0.664580	0.002474	0.741711	0.090511
39250	-9.662156	1.373503	-0.935532	0.664653	0.003133	0.741728	0.089809
39251	-9.663489	1.475986	-0.932893	0.664686	0.003595	0.741755	0.089323
39252	-9.588289	1.404337	-0.898298	0.664670	0.003892	0.741809	0.088982
39253	-9.556210	1.352737	-0.854976	0.664582	0.004140	0.741919	0.088707
39254	-9.517078	1.255678	-0.799229	0.664409	0.004297	0.742091	0.088561
39255	-9.557052	1.352519	-0.852054	0.664149	0.004440	0.742343	0.088390
39256	-9.573234	1.346593	-0.966492	0.663837	0.004409	0.742614	0.088460
39257	-9.515927	1.256376	-1.045171	0.663501	0.004388	0.742899	0.088589
39258	-9.523331	1.289959	-1.068971	0.663167	0.004395	0.743189	0.088655
39259	-9.584329	1.332155	-1.129356	0.662842	0.004439	0.743475	0.088684
39260	-9.663456	1.347011	-1.192896	0.662568	0.004624	0.743734	0.088553
39261	-9.717659	1.480057	-1.321208	0.662380	0.004804	0.743919	0.088399
39262	-9.691573	1.405649	-1.369240	0.662312	0.004903	0.743988	0.088325
39263	-9.705778	1.407990	-1.372069	0.662366	0.004879	0.743936	0.088355
39264	-9.633956	1.406409	-1.241791	0.662512	0.004902	0.743812	0.088304
39265	-9.651192	1.434926	-1.195065	0.662706	0.004893	0.743649	0.088221
39266	-9.631267	1.426997	-1.128598	0.662958	0.004915	0.743445	0.088045
39267	-9.637798	1.366925	-1.140768	0.663242	0.004952	0.743216	0.087835
39268	-9.594153	1.400283	-1.097590	0.663557	0.004982	0.742966	0.087571
39269	-9.583046	1.394046	-1.074466	0.663882	0.004917	0.742699	0.087378
39270	-9.764686	1.355322	-1.092514	0.664254	0.004865	0.742393	0.087148
39271	-9.764357	1.351076	-1.098439	0.664669	0.004887	0.742063	0.086793
39272	-9.723425	1.449172	-1.197799	0.665137	0.004884	0.741688	0.086418
39273	-9.594070	1.412511	-1.199609	0.665693	0.004817	0.741223	0.086131
39274	-9.566400	1.340954	-1.140471	0.666279	0.004580	0.740723	0.085906
39275	-9.812753	1.346573	-1.068552	0.666939	0.004532	0.740181	0.085462
39276	-9.748871	1.577307	-0.977271	0.667624	0.004342	0.739609	0.085075
39277	-9.643796	1.405263	-0.923388	0.668313	0.003914	0.739010	0.084889
39278	-9.569071	1.298129	-0.915633	0.668998	0.003546	0.738426	0.084596
39279	-9.510857	1.413967	-0.902786	0.669654	0.003085	0.737860	0.084362
39280	-9.708061	1.349887	-0.809095	0.670282	0.002381	0.737291	0.084370
39281	-9.746713	1.298597	-0.784133	0.670921	0.001645	0.736722	0.084283
39282	-9.669611	1.315297	-0.655222	0.671510	0.000943	0.736208	0.084091
39283	-9.603391	1.305923	-0.589586	0.672047	0.000277	0.735754	0.083774
39284	-9.580457	1.314348	-0.515734	0.672506	-0.000355	0.735391	0.083281
39285	-9.425702	1.306251	-0.445225	0.672848	-0.001006	0.735143	0.082701
39286	-9.552418	1.125222	-0.432272	0.673046	-0.001523	0.735054	0.081871
39287	-9.578741	1.257517	-0.458554	0.673151	-0.001819	0.735090	0.080669
39288	-9.528259	1.276886	-0.498343	0.673163	-0.002270	0.735204	0.079506
39289	-9.567317	1.094266	-0.469807	0.673072	-0.002757	0.735422	0.078230
39290	-9.584084	1.023291	-0.393474	0.672895	-0.002838	0.735772	0.076445
39291	-9.620038	1.146718	-0.360495	0.672617	-0.002742	0.736238	0.074377
39292	-9.740331	1.145630	-0.360830	0.672140	-0.002756	0.736881	0.072295
39293	-9.578355	1.221064	-0.434269	0.671511	-0.002798	0.737668	0.070077
39294	-9.529630	1.310611	-0.672147	0.670759	-0.003041	0.738561	0.067835
39295	-9.722429	1.185708	-1.035030	0.669993	-0.003329	0.739474	0.065390
39296	-9.720247	1.051747	-1.402215	0.669392	-0.003429	0.740267	0.062512
39297	-9.770811	0.985163	-1.638235	0.668968	-0.003180	0.740934	0.059055
39298	-9.846494	0.923554	-1.665708	0.668808	-0.002739	0.741384	0.055119
39299	-9.855960	1.041521	-1.529687	0.668896	-0.002339	0.741595	0.051085
39300	-9.900707	1.219446	-1.334721	0.669187	-0.002135	0.741600	0.047047
39301	-9.639840	1.143684	-1.125223	0.669575	-0.002350	0.741479	0.043268
39302	-9.610929	0.819380	-0.940051	0.669933	-0.002699	0.741370	0.039404
39303	-9.568177	0.624560	-0.901039	0.670276	-0.003075	0.741261	0.035394
39304	-9.709383	0.467453	-0.781370	0.670624	-0.003583	0.741124	0.031395
39305	-9.553092	0.486525	-0.731492	0.670905	-0.004251	0.741023	0.027467
39306	-9.525360	0.366028	-0.637027	0.671045	-0.005174	0.741018	0.023756
39307	-9.621712	0.225075	-0.839180	0.671184	-0.005832	0.741006	0.019704
39308	-9.773124	-0.052583	-1.424067	0.671503	-0.005824	0.740831	0.014801
39309	-10.024762	-0.314024	-1.423837	0.671957	-0.005599	0.740504	0.009871
39310	-9.811434	-0.980194	-1.215979	0.672605	-0.004452	0.739976	0.004152
39311	-9.705270	-0.507808	-0.736849	0.673397	-0.002367	0.739274	-0.002405
39312	-9.550255	-0.427642	-0.778599	0.674055	-0.000316	0.738631	-0.008649
39313	-9.958832	-0.007497	-0.628086	0.674568	0.001439	0.738074	-0.014227
39314	-9.608786	-0.210940	-0.424605	0.674998	0.002594	0.737579	-0.018648
39315	-9.555819	0.345106	0.359071	0.675018	0.001654	0.737515	-0.020476
39316	-9.544596	-0.585565	0.517907	0.674540	-0.001261	0.737974	-0.019709
39317	-9.605656	-0.261189	0.528310	0.673488	-0.004438	0.738964	-0.018086
39318	-9.518277	-0.727155	0.156662	0.671998	-0.007906	0.740339	-0.015955
39319	-9.595001	-0.617545	-0.592357	0.670195	-0.010331	0.741965	-0.014820
39320	-9.837568	-0.139744	-0.833054	0.668175	-0.013204	0.743775	-0.012923
39321	-9.860768	-0.688658	-1.687661	0.666072	-0.016721	0.745632	-0.010048
39322	-10.176564	-0.330791	-2.053106	0.663949	-0.020577	0.747466	-0.006530
39323	-10.009137	-0.711026	-1.859390	0.662109	-0.024210	0.749010	-0.002977
39324	-9.448698	-1.518880	-1.522175	0.660790	-0.026141	0.750114	-0.001319
39325	-9.325123	-0.775232	-1.370182	0.659624	-0.026693	0.751121	-0.001178
39326	-9.699627	-0.107276	-1.157811	0.658380	-0.027800	0.752172	-0.000309
39327	-9.764587	-0.400578	-1.150509	0.657017	-0.029509	0.753297	0.001372
39328	-9.597724	-0.505103	-1.068889	0.655531	-0.031007	0.754526	0.002938
39329	-9.638959	-0.608750	-1.249583	0.653910	-0.032324	0.755869	0.004369
39330	-9.627975	-0.792134	-1.199741	0.652266	-0.033342	0.757236	0.005523
39331	-9.224875	-1.024939	-1.330838	0.650594	-0.033434	0.758668	0.005722
39332	-9.410487	-0.382945	-1.358412	0.648777	-0.033550	0.760215	0.005984
39333	-9.450669	-0.511642	-1.368534	0.646823	-0.033786	0.761865	0.006401
39334	-9.516264	-0.389081	-1.226345	0.644709	-0.033437	0.763671	0.006258
39335	-9.413712	-0.312211	-0.740941	0.642309	-0.032947	0.765714	0.006077
39336	-9.462264	-0.428501	-0.323508	0.639323	-0.033165	0.768191	0.006954
39337	-9.567097	-0.901209	-0.320174	0.635681	-0.033905	0.771157	0.008822
39338	-9.758610	-0.627850	-0.720644	0.631592	-0.034535	0.774453	0.011004
39339	-9.797262	-0.693329	-1.188018	0.627099	-0.035390	0.778013	0.013760
39340	-9.679193	-0.848916	-1.521227	0.622368	-0.035731	0.781741	0.016227
39341	-9.558029	-0.971906	-1.343591	0.617345	-0.035700	0.785666	0.018426
39342	-9.368610	-0.859844	-1.178433	0.611925	-0.035215	0.789871	0.020295
39343	-9.474999	-0.370585	-0.827787	0.605807	-0.034747	0.794531	0.022623
39344	-9.747556	-0.447662	-0.613634	0.598897	-0.034203	0.799691	0.025436
39345	-9.930532	-0.095672	-0.220045	0.590984	-0.033421	0.805495	0.028268
39346	-10.127149	-0.136498	0.259852	0.581767	-0.032365	0.812108	0.031317
39347	-10.203060	0.615446	0.831410	0.570983	-0.030720	0.819687	0.033876
39348	-10.220824	1.142895	1.443141	0.558116	-0.030223	0.828339	0.038057
39349	-11.258694	0.729999	1.813715	0.542866	-0.030873	0.838110	0.043755
39350	-12.212381	1.114394	1.567214	0.525390	-0.031743	0.848827	0.049511
39351	-12.872084	2.189970	0.937453	0.505781	-0.033306	0.860218	0.055685
39352	-13.437906	3.170165	-0.608836	0.484302	-0.036141	0.871900	0.062743
39353	-13.857849	2.582662	-2.321625	0.461524	-0.040948	0.883325	0.071101
39354	-14.092005	0.758491	-3.913635	0.438060	-0.046830	0.894279	0.078585
39355	-14.478384	0.133215	-4.356624	0.415349	-0.052784	0.904303	0.083279
39356	-13.251123	0.444140	-3.993207	0.394728	-0.058068	0.912934	0.085840
39357	-11.547981	1.174008	-5.632505	0.376691	-0.062135	0.920187	0.086593
39358	-9.975612	1.740260	-6.118544	0.361541	-0.065753	0.925913	0.087460
39359	-7.931955	2.179439	-8.559584	0.349055	-0.069076	0.930257	0.089509
39360	-8.503068	1.779002	-4.588970	0.338923	-0.075201	0.932691	0.097798
39361	-9.045051	0.754495	-3.212922	0.334307	-0.081548	0.932879	0.106417
39362	-6.811610	-0.168773	-4.808500	0.334939	-0.085607	0.931905	0.109724
39363	-6.357492	1.188581	-4.895502	0.339861	-0.088888	0.929654	0.111068
39364	-6.377656	2.292849	-4.120572	0.348502	-0.092825	0.925485	0.115788
39365	-6.088782	1.522839	-4.496106	0.360340	-0.096610	0.919577	0.123288
39366	-5.911767	0.866052	-5.088339	0.375699	-0.099163	0.912224	0.129865
39367	-5.968289	1.299731	-4.996901	0.394249	-0.100704	0.903403	0.135238
39368	-6.229524	0.991174	-5.422280	0.415407	-0.101244	0.893112	0.139781
39369	-6.622835	0.901237	-6.077197	0.439059	-0.100376	0.881405	0.142396
39370	-7.266286	1.520999	-6.350363	0.464383	-0.098628	0.868235	0.144187
39371	-7.592195	1.698584	-6.355810	0.490521	-0.096762	0.853502	0.146839
39372	-7.606694	0.765659	-6.290112	0.516754	-0.094712	0.837643	0.149497
39373	-7.991867	0.029060	-6.668685	0.543273	-0.090861	0.821163	0.149301
39374	-8.429264	0.613111	-6.356579	0.569673	-0.084912	0.804230	0.146549
39375	-8.521526	1.226948	-6.145820	0.595462	-0.077823	0.786808	0.142486
39376	-8.726682	1.424677	-5.563159	0.620257	-0.070967	0.768751	0.138803
39377	-9.118941	1.298226	-5.117905	0.643936	-0.064591	0.750148	0.135840
39378	-9.796227	1.213624	-4.410995	0.666496	-0.058601	0.731051	0.133840
39379	-9.975073	1.264650	-3.777649	0.687913	-0.052893	0.711660	0.132354
39380	-9.983853	1.228541	-3.257832	0.707987	-0.047378	0.692350	0.130999
39381	-10.261115	1.251252	-2.699709	0.726674	-0.042080	0.673367	0.129429
39382	-10.450379	1.476987	-2.531654	0.744123	-0.037127	0.654743	0.127330
39383	-9.869632	1.365059	-1.508625	0.760059	-0.032747	0.636951	0.124626
39384	-9.089210	1.075307	-1.134285	0.774018	-0.028261	0.620877	0.120871
39385	-8.747395	0.870444	-0.803348	0.785886	-0.023520	0.606880	0.116302
39386	-7.865004	0.514485	-0.758610	0.795467	-0.017964	0.595553	0.110570
39387	-7.101917	0.664489	-0.955882	0.802454	-0.011039	0.587524	0.103739
39388	-6.330266	0.853760	-1.012877	0.806444	-0.003818	0.583336	0.096709
39389	-5.880709	1.274457	-1.413043	0.807407	0.001965	0.583101	0.089909
39390	-5.829147	1.587500	-1.863641	0.805533	0.004086	0.586433	0.084826
39391	-5.758217	1.276037	-2.824392	0.801284	0.003239	0.592756	0.081081
39392	-8.857349	2.040432	3.504140	0.795550	-0.001867	0.600620	0.079699
39393	-15.014392	2.002919	9.224028	0.792798	-0.005359	0.604172	0.080115
39394	-9.095074	-1.835487	3.271897	0.790050	0.003111	0.608887	0.071189
39395	-11.554279	1.972065	5.821523	0.783903	0.013499	0.617946	0.058794
39396	-13.577759	3.131128	3.214041	0.775276	0.022811	0.629449	0.047125
39397	-11.850316	4.995769	1.091324	0.764275	0.029265	0.643112	0.037869
39398	-10.180913	3.091797	-1.088031	0.752438	0.031615	0.657158	0.031310
39399	-7.965788	2.682815	-1.556669	0.741426	0.030993	0.669819	0.025856
39400	-7.735497	2.241932	-0.815988	0.730877	0.024461	0.681617	0.024867
39401	-9.158613	-1.518341	-3.117638	0.720674	0.016166	0.692630	0.025122
39402	-9.736037	-0.427353	-3.316131	0.710385	0.009934	0.703377	0.022681
39403	-10.831878	1.272843	-1.620588	0.699780	0.003855	0.714025	0.021487
39404	-9.770993	-2.092262	-2.466519	0.689739	-0.001783	0.723743	0.021277
39405	-9.344144	-2.294220	-3.836534	0.680755	-0.002457	0.732329	0.016146
39406	-10.172158	0.458590	-4.924786	0.672982	-0.000618	0.739606	0.008748
39407	-10.694775	2.531416	-4.770691	0.666158	-0.001904	0.745790	0.005130
39408	-10.267139	1.249900	-4.393349	0.660173	-0.006633	0.751065	0.005319
39409	-10.146620	-0.575348	-4.211822	0.655195	-0.011699	0.755346	0.005873
39410	-10.227232	-1.229060	-3.560935	0.651093	-0.015267	0.758828	0.005109
39411	-10.208558	-1.472860	-3.598046	0.647925	-0.016663	0.761517	0.002606
39412	-9.921173	-0.847565	-3.528075	0.645514	-0.017444	0.763549	-0.000179
39413	-10.161073	0.832138	-3.145326	0.643643	-0.018827	0.765091	-0.001989
39414	-10.145449	1.149956	-3.198242	0.642313	-0.022512	0.766111	-0.000803
39415	-9.908466	-0.405605	-3.133784	0.641351	-0.027264	0.766760	0.002105
39416	-10.070045	-1.829098	-2.831562	0.640847	-0.030781	0.767041	0.003814
39417	-9.870902	-1.017140	-2.231859	0.640789	-0.032619	0.767014	0.003993
39418	-9.810119	-0.204260	-2.243890	0.640990	-0.035579	0.766699	0.006222
39419	-9.654631	-0.504720	-2.350330	0.641357	-0.039385	0.766172	0.009473
39420	-9.928112	-1.375436	-2.522263	0.642172	-0.042269	0.765303	0.011849
39421	-9.752106	-1.021513	-1.530565	0.643197	-0.043292	0.764378	0.012241
39422	-9.503614	-0.813923	-1.180659	0.644170	-0.044448	0.763478	0.013063
39423	-9.237132	-1.583529	-0.939502	0.644899	-0.045891	0.762751	0.014531
39424	-9.307493	-2.024735	-1.084424	0.645549	-0.046116	0.762183	0.014720
39425	-9.474761	-0.819041	-0.722403	0.645915	-0.045895	0.761888	0.014609
39426	-9.466951	-0.982676	-1.375905	0.646131	-0.045883	0.761697	0.015050
39427	-9.440427	-0.814501	-1.320084	0.646119	-0.045541	0.761725	0.015188
39428	-9.493318	-0.477515	-1.056651	0.646021	-0.044916	0.761852	0.014873
39429	-9.911320	-0.136825	-1.127540	0.645711	-0.044541	0.762136	0.014893
39430	-10.154561	0.106471	-0.871684	0.645139	-0.044452	0.762618	0.015277
39431	-9.614648	0.115470	-0.389966	0.644132	-0.044711	0.763435	0.016163
39432	-9.199933	-0.433444	-0.300494	0.642585	-0.044717	0.764726	0.016689
39433	-9.353331	-0.296657	-0.480773	0.640499	-0.044208	0.766503	0.016701
39434	-9.511641	-0.534863	-0.985109	0.637947	-0.044388	0.768599	0.017586
39435	-9.279870	-0.854642	-1.714456	0.635134	-0.044463	0.770899	0.018521
39436	-9.469450	-0.750351	-2.148070	0.632141	-0.044496	0.773328	0.019538
39437	-9.225530	-0.746507	-1.683943	0.629054	-0.045535	0.775722	0.021738
39438	-8.063026	-2.485214	-1.419206	0.625763	-0.047421	0.778177	0.024735
39439	-6.475186	-3.919398	-1.491457	0.622291	-0.046568	0.781022	0.024293
39440	-6.531176	-2.236983	-2.466063	0.618580	-0.041694	0.784397	0.018485
39441	-9.881388	3.537599	-3.074368	0.614291	-0.038238	0.788018	0.014535
39442	-12.176145	3.672552	-3.582182	0.610204	-0.039540	0.791072	0.017137
39443	-10.471271	0.996376	-2.521951	0.606557	-0.039234	0.793875	0.017690
39444	-9.379925	-0.373100	-0.529989	0.602737	-0.036615	0.796960	0.014934
39445	-8.689090	-2.380691	0.839834	0.597862	-0.033359	0.800824	0.011354
39446	-8.329200	-3.213752	1.894268	0.591187	-0.029929	0.805938	0.008101
39447	-8.402108	-1.800661	2.367260	0.582480	-0.026491	0.812394	0.005600
39448	-8.392203	-1.262824	1.446026	0.571480	-0.023967	0.820247	0.005534
39449	-8.476667	-1.762569	-0.335642	0.558382	-0.021116	0.829295	0.005820
39450	-9.242771	-0.680369	-2.203232	0.543667	-0.018780	0.839060	0.007216
39451	-10.373855	1.152706	-1.830233	0.527349	-0.018142	0.849385	0.010896
39452	-11.734899	2.142187	-0.589120	0.509198	-0.020011	0.860226	0.018108
39453	-12.602167	2.018524	-1.900629	0.489489	-0.023308	0.871301	0.026285
39454	-12.573193	2.285650	-3.627961	0.468197	-0.027361	0.882515	0.034801
39455	-12.430144	2.796602	-3.043214	0.445296	-0.032206	0.893697	0.044493
39456	-14.097662	1.710163	-3.312275	0.420965	-0.038654	0.904587	0.054929
39457	-15.813462	1.433745	-4.548698	0.395804	-0.045918	0.914899	0.064736
39458	-16.974821	0.430678	-4.926218	0.370276	-0.054317	0.924250	0.075547
39459	-16.330751	-2.347670	-0.995969	0.343720	-0.062515	0.933012	0.086234
39460	-15.685126	-1.974620	-3.842247	0.318038	-0.067012	0.941419	0.089951
39461	-14.577117	0.986600	-4.787716	0.295507	-0.070053	0.948403	0.091107
39462	-11.453374	1.334198	-12.309360	0.276199	-0.072402	0.954111	0.090243
39463	-11.268610	4.458705	-7.758407	0.257913	-0.076564	0.958652	0.092763
39464	-10.668802	2.880269	-6.677805	0.245139	-0.082758	0.960641	0.101126
39465	-6.001822	0.776069	-8.865774	0.237228	-0.088072	0.961909	0.103425
39466	-6.222029	2.875839	-6.676076	0.233578	-0.093657	0.962141	0.104661
39467	-5.634928	2.217655	-6.244069	0.234368	-0.099175	0.961187	0.106560
39468	-4.436267	2.249786	-6.551570	0.239448	-0.103374	0.959550	0.106034
39469	-4.295377	2.913902	-6.042788	0.248679	-0.106770	0.956857	0.105755
39470	-4.128107	2.794367	-5.697434	0.261785	-0.109694	0.952892	0.106925
39471	-3.993891	2.356885	-5.537996	0.278565	-0.112152	0.947641	0.108624
39472	-4.274316	2.194913	-5.578974	0.298761	-0.114074	0.940991	0.110746
39473	-4.408993	1.986199	-5.737045	0.322068	-0.115396	0.932783	0.113458
39474	-4.496417	1.743410	-6.163753	0.348179	-0.115884	0.922970	0.116052
39475	-4.866192	1.954513	-6.276026	0.376864	-0.115600	0.911324	0.118737
39476	-5.022736	1.722477	-6.368793	0.407468	-0.115023	0.897721	0.121801
39477	-5.514875	1.400124	-6.639626	0.439713	-0.113854	0.882223	0.123987
39478	-6.214005	1.203458	-7.051290	0.473139	-0.111911	0.864759	0.125727
39479	-6.632154	0.399069	-7.178988	0.507226	-0.108721	0.845533	0.126392
39480	-7.083922	-0.210887	-7.775110	0.541934	-0.102611	0.824868	0.123984
39481	-7.145020	-0.179759	-7.702319	0.576609	-0.093078	0.802918	0.119082
39482	-7.941049	-0.329184	-7.927219	0.610931	-0.080902	0.779489	0.112317
39483	-9.125877	0.481634	-7.306068	0.644321	-0.067257	0.754439	0.105586
39484	-10.066167	1.123830	-6.406759	0.676083	-0.054469	0.727807	0.101205
39485	-10.436417	1.014976	-5.268120	0.705505	-0.043553	0.700362	0.099289
39486	-11.014290	0.797631	-4.680264	0.732236	-0.034184	0.672966	0.098889
39487	-9.446155	0.621465	-4.101291	0.755645	-0.026816	0.646923	0.098852
39488	-8.438360	-0.216731	-4.792845	0.775470	-0.019904	0.623489	0.097528
39489	-7.774313	-0.077315	-4.342025	0.791721	-0.011937	0.603507	0.093889
39490	-6.143012	-0.112086	-3.028393	0.803765	-0.003904	0.588239	0.089002
39491	-5.134893	-1.257130	-2.373327	0.811069	0.004377	0.578971	0.083307
39492	-5.305991	-2.286019	-3.091522	0.813834	0.014919	0.575958	0.075660
39493	-5.547530	-1.112510	-4.775168	0.812779	0.028287	0.578201	0.065366
39494	-7.784610	0.665135	-2.189512	0.809330	0.038775	0.583422	0.055681
39495	-16.312906	4.384016	5.785006	0.807094	0.045955	0.586618	0.048646
39496	-14.205510	-0.300241	2.464709	0.806984	0.054674	0.586593	0.041184
39497	-12.075240	1.962785	2.799288	0.804361	0.070173	0.589402	0.026152
39498	-11.932640	5.091545	0.869595	0.800881	0.084273	0.592741	0.012092
39499	-11.456184	9.546335	2.023706	0.796366	0.094870	0.597328	0.000728
39500	-11.112721	9.655396	2.110310	0.791758	0.094225	0.603519	-0.002474
39501	-10.216323	5.198076	-0.129719	0.787646	0.085559	0.610158	0.000734
39502	-11.048214	1.190386	0.012151	0.782894	0.072704	0.617848	0.007426
39503	-12.238613	-3.719110	0.567062	0.776605	0.058337	0.627126	0.013948
39504	-8.791471	-2.336467	1.955601	0.770235	0.047702	0.635762	0.016422
39505	-8.132514	-2.041730	2.077399	0.764327	0.032854	0.643537	0.024181
39506	-9.695713	-9.708739	-2.114690	0.758410	0.023967	0.650704	0.028707
39507	-9.780096	-5.846650	-2.325976	0.752175	0.033807	0.657866	0.017409
39508	-10.441791	1.718109	-0.193906	0.746017	0.045894	0.664318	0.005736
39509	-10.600865	1.978346	-0.740152	0.740574	0.052718	0.669904	0.000223
39510	-10.179377	-0.118469	-1.024371	0.735494	0.059370	0.674908	-0.004813
39511	-9.874809	0.187394	-1.023384	0.730980	0.066128	0.679113	-0.010019
39512	-9.657454	0.062175	-1.521884	0.726911	0.073580	0.682598	-0.015693
39513	-9.963315	0.859473	-1.502065	0.723337	0.081316	0.685363	-0.021209
39514	-9.850802	1.577662	-1.203837	0.720204	0.088774	0.687543	-0.026655
39515	-9.716990	2.077195	-0.858823	0.717538	0.094886	0.689324	-0.031106
39516	-9.567963	2.159154	-1.100617	0.715149	0.100572	0.690777	-0.035693
39517	-9.585579	3.044571	-0.856471	0.713012	0.104856	0.692142	-0.039475
39518	-9.626079	2.995007	-0.533290	0.711228	0.106436	0.693633	-0.041222
39519	-9.901346	1.772764	-0.028619	0.709748	0.105572	0.695282	-0.041171
39520	-10.309991	0.068307	0.264936	0.708510	0.104207	0.696775	-0.040726
39521	-9.668545	-0.444701	0.499127	0.707087	0.104427	0.698138	-0.041541
39522	-9.731409	0.461510	-0.267461	0.705757	0.105002	0.699349	-0.042329
39523	-9.717053	0.671446	-0.561846	0.704444	0.105457	0.700572	-0.042860
39524	-9.864476	1.073880	-0.550929	0.703138	0.106013	0.701757	-0.043532
39525	-9.914949	0.821904	-0.501723	0.701882	0.106861	0.702830	-0.044402
39526	-9.895200	1.086158	-0.018688	0.700562	0.108394	0.703804	-0.046080
39527	-9.714455	1.893698	0.324274	0.699338	0.109503	0.704747	-0.047623
39528	-9.497588	1.635437	0.040505	0.698356	0.108548	0.705879	-0.047446
39529	-9.805702	0.652876	-0.139767	0.697509	0.106770	0.707045	-0.046570
39530	-9.791604	-0.125899	-0.262152	0.696651	0.105595	0.708082	-0.046325
39531	-9.831108	0.202793	-0.434737	0.695759	0.105653	0.708893	-0.047196
39532	-9.695274	1.163007	-0.644159	0.694867	0.105950	0.709646	-0.048353
39533	-9.803845	1.588189	-0.814809	0.694300	0.105415	0.710255	-0.048718
39534	-9.822006	1.605280	-0.775210	0.694001	0.104073	0.710762	-0.048474
39535	-9.705596	1.155639	-0.557594	0.693669	0.102480	0.711345	-0.048062
39536	-9.746347	0.938168	-0.587562	0.693370	0.100376	0.711995	-0.047186
39537	-9.960314	0.625584	-1.076054	0.693100	0.097784	0.712722	-0.045577
39538	-9.865203	0.360134	-1.331337	0.692771	0.095321	0.713468	-0.044109
39539	-10.033689	0.782481	-0.972510	0.692359	0.092933	0.714272	-0.042627
39540	-10.098470	0.332237	-1.011447	0.691984	0.090600	0.715028	-0.041046
39541	-9.984744	0.477151	-1.042636	0.691597	0.088918	0.715658	-0.040250
39542	-9.898174	0.768520	-0.851795	0.691327	0.087084	0.716201	-0.039252
39543	-9.850404	0.671813	-0.454806	0.691240	0.084839	0.716623	-0.037965
39544	-9.692212	0.592076	-0.624062	0.691407	0.082425	0.716810	-0.036688
39545	-9.823270	0.798064	-0.366490	0.691626	0.079974	0.716944	-0.035343
39546	-9.828809	0.661354	-0.377330	0.691964	0.077298	0.716995	-0.033592
39547	-9.697958	0.268178	-0.227535	0.692420	0.074588	0.716932	-0.031629
39548	-9.640375	-0.056530	-0.203578	0.693117	0.072179	0.716578	-0.029907
39549	-9.529327	-0.381010	0.415446	0.694182	0.070153	0.715804	-0.028541
39550	-9.191899	-0.555841	0.019561	0.695521	0.068256	0.714739	-0.027222
39551	-9.921115	-0.130778	0.027155	0.696633	0.067022	0.713806	-0.026286
39552	-9.594252	0.159669	0.569758	0.697580	0.066222	0.712984	-0.025509
39553	-9.673154	0.179705	-0.110738	0.697987	0.066422	0.712567	-0.025523
39554	-9.998095	0.506721	-0.083104	0.698196	0.066877	0.712317	-0.025586
39555	-9.557925	0.319467	-0.387073	0.698294	0.067340	0.712166	-0.025900
39556	-9.801931	1.082959	-0.389535	0.698312	0.067353	0.712149	-0.025833
39557	-9.860136	1.131984	-0.163551	0.698303	0.066350	0.712289	-0.024797
39558	-9.691864	0.678203	-0.138619	0.698318	0.065019	0.712439	-0.023545
39559	-9.811062	0.578689	-0.382689	0.698312	0.063685	0.712605	-0.022346
39560	-9.880797	0.488383	-0.492838	0.698205	0.062608	0.712837	-0.021284
39561	-9.798850	0.350634	-0.496585	0.698082	0.061530	0.713084	-0.020175
39562	-9.880123	0.319042	-0.216914	0.698037	0.060322	0.713268	-0.018827
39563	-9.619179	0.201592	-0.046420	0.698084	0.059369	0.713330	-0.017747
39564	-9.572127	0.335629	0.398133	0.698403	0.058567	0.713105	-0.016875
39565	-9.326182	-0.067991	0.402545	0.698821	0.057625	0.712790	-0.016087
39566	-9.891796	0.687774	0.196808	0.698945	0.057492	0.712681	-0.016033
39567	-9.657637	1.008636	0.427907	0.699071	0.056704	0.712637	-0.015236
39568	-9.473650	0.726684	0.337719	0.698945	0.055546	0.712870	-0.014393
39569	-9.755654	0.326717	-0.099680	0.698534	0.054344	0.713382	-0.013527
39570	-9.853177	0.217417	-0.253063	0.697934	0.053958	0.714003	-0.013313
39571	-9.592344	0.386405	-0.683217	0.697250	0.053426	0.714716	-0.013016
39572	-9.902353	0.295388	-0.724866	0.696613	0.052696	0.715402	-0.012367
39573	-9.766500	0.117145	-0.690355	0.696016	0.052226	0.716026	-0.011899
39574	-9.724257	0.396820	-0.510438	0.695450	0.051969	0.716597	-0.011688
39575	-9.857328	0.586565	-0.403314	0.694866	0.051853	0.717175	-0.011522
39576	-9.792736	0.444041	-0.556387	0.694275	0.051623	0.717769	-0.011188
39577	-9.814050	0.182266	-0.460249	0.693658	0.051397	0.718387	-0.010785
39578	-9.721292	0.145684	-0.702647	0.693011	0.051660	0.718993	-0.010772
39579	-9.881687	0.632866	-0.630936	0.692359	0.052097	0.719588	-0.010833
39580	-9.746416	0.339497	-0.500244	0.691856	0.052205	0.720068	-0.010586
39581	-9.686662	0.194757	-0.590723	0.691303	0.052921	0.720541	-0.010986
39582	-9.830779	0.788698	-0.787283	0.690679	0.053959	0.721051	-0.011639
39583	-9.847988	0.569561	-0.723330	0.690263	0.054247	0.721432	-0.011419
39584	-9.787767	0.049604	-0.554981	0.689951	0.054404	0.721722	-0.011214
39585	-9.877071	0.136358	-0.359113	0.689827	0.055007	0.721791	-0.011434
39586	-9.579100	-0.077290	-0.205331	0.690054	0.055897	0.721497	-0.011970
39587	-9.567293	-0.046463	-0.305093	0.690320	0.057083	0.721131	-0.012997
39588	-9.877366	0.496539	-0.311922	0.690461	0.058613	0.720852	-0.014170
39589	-9.771030	0.477349	-0.502035	0.690662	0.060222	0.720502	-0.015365
39590	-9.706774	0.408485	-0.894347	0.690946	0.061926	0.720052	-0.016866
39591	-10.025708	1.004925	-0.932067	0.691187	0.063705	0.719628	-0.018349
39592	-9.813407	0.943820	-1.027619	0.691684	0.065043	0.719003	-0.019406
39593	-9.756791	1.306187	-0.644066	0.692229	0.066076	0.718354	-0.020516
39594	-9.886158	0.871491	-0.601526	0.692898	0.066582	0.717645	-0.021099
39595	-9.907454	0.367107	-0.486582	0.693678	0.067249	0.716803	-0.021932
39596	-9.821575	-0.159361	-0.588748	0.694878	0.068175	0.715511	-0.023249
39597	-9.648409	-0.878977	-0.616146	0.696562	0.069086	0.713728	-0.024925
39598	-9.691674	-0.485514	-0.722230	0.698186	0.071194	0.711814	-0.028073
39599	-10.028810	1.408135	-0.270810	0.699506	0.073818	0.710130	-0.030955
39600	-9.908320	1.525735	-0.208257	0.700916	0.074670	0.708603	-0.031977
39601	-9.702476	0.436535	0.137664	0.702136	0.076152	0.707139	-0.034077
39602	-9.603551	0.286663	-0.105603	0.703096	0.079606	0.705577	-0.038466
39603	-9.496194	0.962466	0.113053	0.703836	0.082253	0.704328	-0.042089
39604	-9.879353	0.431979	0.003632	0.704560	0.083611	0.703322	-0.044078
39605	-9.946553	-0.009949	-0.168516	0.705247	0.085152	0.702329	-0.045939
39606	-9.710493	1.218829	-0.300785	0.705800	0.087749	0.701236	-0.049134
39607	-9.676544	3.071957	0.240152	0.706383	0.088219	0.700478	-0.050713
39608	-9.624638	1.766678	-0.140944	0.707159	0.086654	0.699902	-0.050535
39609	-9.762313	0.066522	-0.500531	0.707908	0.085431	0.699283	-0.050707
39610	-10.019384	-0.429152	-0.392729	0.708736	0.084769	0.698484	-0.051253
39611	-9.757806	-0.398500	0.084431	0.709721	0.084186	0.697514	-0.051794
39612	-9.917796	-0.583793	-0.056518	0.710748	0.084578	0.696317	-0.053171
39613	-9.699020	0.878608	0.139933	0.711760	0.085921	0.694927	-0.055599
39614	-9.843905	0.359202	0.063964	0.712886	0.087479	0.693369	-0.058139
39615	-9.858969	0.440331	-0.332983	0.714067	0.089989	0.691509	-0.061852
39616	-9.667538	1.326852	0.063460	0.715414	0.091786	0.689589	-0.064996
39617	-9.576912	0.902371	0.074556	0.717094	0.092045	0.687624	-0.066910
39618	-9.535493	0.458766	0.600235	0.718768	0.091628	0.685794	-0.068289
39619	-9.795139	0.834283	1.644820	0.720284	0.090574	0.684293	-0.068784
39620	-9.604819	-1.437292	2.130584	0.721484	0.089282	0.683208	-0.068675
39621	-9.079009	-1.162135	2.117495	0.721838	0.090864	0.682366	-0.071201
39622	-9.310146	-0.398704	2.291190	0.721524	0.094020	0.681902	-0.074651
39623	-9.269029	-0.476878	2.427444	0.720506	0.097798	0.682009	-0.078547
39624	-9.316000	-0.393527	2.023608	0.718789	0.102754	0.682528	-0.083302
39625	-9.381176	-0.523720	1.443566	0.716477	0.108200	0.683522	-0.088041
39626	-9.715235	-0.337766	0.798133	0.713818	0.113780	0.684798	-0.092579
39627	-9.820726	0.093273	0.261551	0.711051	0.119205	0.686174	-0.096752
39628	-9.640518	0.483434	0.260647	0.708352	0.123626	0.687743	-0.099817
39629	-9.901823	-0.123346	0.170582	0.705702	0.127670	0.689347	-0.102403
39630	-9.942204	-0.626398	-0.292612	0.702993	0.132859	0.690590	-0.105990
39631	-9.866911	0.020623	-0.739213	0.700236	0.139042	0.691465	-0.110510
39632	-10.006566	0.623255	-0.582103	0.697636	0.144813	0.692293	-0.114292
39633	-10.020287	1.053186	-0.397010	0.695404	0.149145	0.693189	-0.116866
39634	-9.895817	0.527921	-0.481002	0.693546	0.152382	0.694111	-0.118253
39635	-9.852859	-0.070333	-0.714397	0.691733	0.156233	0.694737	-0.120157
39636	-9.896471	0.147531	-0.410957	0.689796	0.161085	0.695074	-0.122902
39637	-9.648985	0.822560	-0.322451	0.688026	0.165427	0.695413	-0.125118
39638	-9.606633	1.264866	-0.112767	0.686745	0.167991	0.695972	-0.125631
39639	-9.838094	1.583822	-0.597371	0.685633	0.169685	0.696727	-0.125247
39640	-9.938697	1.367945	-0.693196	0.684796	0.170057	0.697776	-0.123469
39641	-9.817214	0.493257	-0.941048	0.684160	0.170016	0.698744	-0.121556
39642	-9.780083	-0.398302	-0.590444	0.683566	0.170331	0.699534	-0.119907
39643	-9.748041	-0.876537	-0.715128	0.682632	0.172693	0.699789	-0.120359
39644	-9.937540	0.063584	-0.463296	0.681563	0.176132	0.699751	-0.121646
39645	-9.954728	0.088848	-1.080094	0.680703	0.179502	0.699502	-0.122956
39646	-9.929321	1.416592	-1.599885	0.680043	0.183192	0.698836	-0.124940
39647	-9.984634	1.950352	-1.008958	0.680036	0.185184	0.698261	-0.125256
39648	-9.683866	0.923937	-0.843666	0.680258	0.186534	0.697695	-0.125202
39649	-9.774709	0.882954	-0.357690	0.680337	0.188366	0.697028	-0.125749
39650	-9.700454	1.060223	-0.083328	0.680652	0.189458	0.696429	-0.125719
39651	-9.596027	0.941127	-0.479631	0.681201	0.189866	0.695867	-0.125241
39652	-9.727887	1.390358	-0.499386	0.681952	0.189786	0.695298	-0.124428
39653	-9.595163	1.693200	-0.267050	0.682888	0.188804	0.694916	-0.122917
39654	-9.619645	0.763831	-0.129993	0.683836	0.187544	0.694618	-0.121252
39655	-9.681124	0.291901	-0.271974	0.684510	0.187282	0.694136	-0.120613
39656	-9.997733	0.645660	-0.430271	0.685087	0.187273	0.693649	-0.120151
39657	-9.891770	0.729189	-0.569322	0.685799	0.186849	0.693209	-0.119282
39658	-9.760428	0.913246	-0.576118	0.686550	0.186567	0.692643	-0.118688
39659	-9.685491	1.138457	-0.388840	0.687350	0.186356	0.691979	-0.118264
39660	-9.643056	0.849545	-0.040688	0.688164	0.186031	0.691321	-0.117886
39661	-9.703335	0.534814	-0.101931	0.688797	0.186187	0.690628	-0.118009
39662	-9.892207	0.945859	0.069940	0.689300	0.186374	0.690070	-0.118041
39663	-9.654791	1.054938	0.168454	0.689897	0.185875	0.689725	-0.117352
39664	-9.574454	0.591407	0.036134	0.690403	0.185642	0.689372	-0.116820
39665	-9.663394	0.836118	0.097338	0.690751	0.185804	0.689001	-0.116697
39666	-9.722850	0.733577	-0.204365	0.691015	0.186202	0.688604	-0.116839
39667	-9.805944	0.906171	-0.089470	0.691284	0.186603	0.688201	-0.116986
39668	-9.735857	0.561817	-0.190444	0.691590	0.186951	0.687779	-0.117102
39669	-9.730430	1.089700	-0.113907	0.691916	0.187402	0.687326	-0.117117
39670	-9.736417	0.728109	-0.205366	0.692312	0.187550	0.686942	-0.116791
39671	-9.789908	0.779755	-0.221676	0.692608	0.188078	0.686476	-0.116926
39672	-9.710006	0.512528	-0.179713	0.692770	0.189024	0.685952	-0.117514
39673	-9.779253	0.509690	-0.018446	0.692731	0.190818	0.685229	-0.119049
39674	-9.623914	0.726427	0.127383	0.692638	0.193011	0.684384	-0.120902
39675	-9.619455	0.611481	0.153787	0.692526	0.195416	0.683472	-0.122823
39676	-9.666457	0.709965	-0.142175	0.692448	0.197690	0.682599	-0.124474
39677	-9.823644	0.908183	-0.194952	0.692426	0.199745	0.681754	-0.125933
39678	-9.744870	1.079026	-0.043325	0.692453	0.201612	0.680945	-0.127186
39679	-9.645465	1.101062	0.059733	0.692506	0.203434	0.680112	-0.128444
39680	-9.703780	1.128341	-0.147759	0.692604	0.205167	0.679254	-0.129691
39681	-9.753512	1.189971	-0.204723	0.692787	0.206793	0.678335	-0.130934
39682	-9.732633	1.300223	-0.135742	0.693072	0.208114	0.677450	-0.131914
39683	-9.753944	1.153501	0.039834	0.693469	0.209148	0.676614	-0.132477
39684	-9.738506	0.820111	0.057193	0.693932	0.209865	0.675862	-0.132760
39685	-9.823109	0.976648	-0.019053	0.694333	0.210744	0.675105	-0.133122
39686	-9.814974	1.428315	-0.242908	0.694829	0.211446	0.674316	-0.133421
39687	-9.772531	1.464199	-0.122312	0.695600	0.211377	0.673641	-0.132925
39688	-9.653192	0.870299	-0.024853	0.696404	0.211238	0.672968	-0.132344
39689	-9.743745	0.874991	0.048726	0.696991	0.211835	0.672127	-0.132568
39690	-9.745913	0.799803	0.289630	0.697509	0.212492	0.671331	-0.132822
39691	-9.645659	0.726331	0.217065	0.697854	0.213765	0.670381	-0.133768
39692	-9.592124	1.487602	0.331671	0.698198	0.215025	0.669443	-0.134649
39693	-9.709481	1.601644	0.264633	0.698710	0.215541	0.668720	-0.134755
39694	-9.699658	1.537591	0.273236	0.699359	0.215459	0.668161	-0.134297
39695	-9.661527	1.147775	0.242432	0.700026	0.215128	0.667682	-0.133737
39696	-9.612843	1.100692	0.426900	0.700608	0.215002	0.667206	-0.133262
39697	-9.703343	0.899469	0.363906	0.701037	0.215173	0.666731	-0.133104
39698	-9.733908	0.991776	0.253262	0.701377	0.215622	0.666201	-0.133244
39699	-9.679522	1.028306	0.070935	0.701714	0.216272	0.665558	-0.133628
39700	-9.731052	1.237935	0.060588	0.702069	0.216948	0.664895	-0.133964
39701	-9.724962	1.291201	0.061270	0.702511	0.217491	0.664206	-0.134188
39702	-9.692519	1.200617	0.171610	0.703141	0.217710	0.663489	-0.134078
39703	-9.627635	1.121077	0.224996	0.703885	0.217819	0.662707	-0.133865
39704	-9.653545	1.157907	0.280083	0.704676	0.217826	0.661940	-0.133490
39705	-9.803468	1.113820	0.237087	0.705524	0.217719	0.661192	-0.132884
39706	-9.865351	0.923659	0.145185	0.706375	0.217849	0.660299	-0.132594
39707	-9.772695	0.941934	0.055297	0.707105	0.218701	0.659160	-0.132966
39708	-9.797840	0.993375	0.159096	0.707758	0.219955	0.657897	-0.133678
39709	-9.670817	1.357967	0.369297	0.708368	0.221489	0.656525	-0.134659
39710	-9.489091	1.153381	0.626404	0.709175	0.222643	0.655158	-0.135163
39711	-9.648784	0.904405	0.640785	0.710011	0.223779	0.653792	-0.135514
39712	-9.604645	0.885253	0.532376	0.710932	0.224921	0.652354	-0.135725
39713	-9.531579	0.863782	0.319914	0.711820	0.226349	0.650756	-0.136361
39714	-9.635444	1.703625	0.259765	0.712623	0.228101	0.649070	-0.137281
39715	-9.836818	1.852393	0.151608	0.713816	0.228982	0.647427	-0.137379
39716	-9.941512	1.232384	0.370114	0.715002	0.229818	0.645833	-0.137313
39717	-9.732764	0.890304	0.449657	0.715941	0.231679	0.643952	-0.138131
39718	-9.692280	1.163702	0.824768	0.716726	0.233847	0.642098	-0.139032
39719	-9.752051	1.381597	0.697799	0.717491	0.236140	0.640209	-0.139918
39720	-9.636629	1.657084	0.813512	0.718368	0.238058	0.638406	-0.140404
39721	-9.526634	1.803112	0.714752	0.719409	0.239515	0.636700	-0.140342
39722	-9.655235	1.720452	0.659352	0.720644	0.240371	0.635120	-0.139704
39723	-9.613364	1.705670	0.557224	0.721998	0.241001	0.633490	-0.139025
39724	-9.453352	1.676720	0.540344	0.723464	0.241583	0.631707	-0.138508
39725	-9.540039	1.595737	0.487309	0.725007	0.242278	0.629724	-0.138252
39726	-9.622919	1.580547	0.303759	0.726668	0.243042	0.627518	-0.138221
39727	-9.669324	1.681293	0.576996	0.728396	0.244023	0.625084	-0.138430
39728	-9.659698	2.449208	0.657871	0.730335	0.244975	0.622387	-0.138682
39729	-9.607108	1.931079	0.924264	0.732606	0.245019	0.619803	-0.138197
39730	-9.576412	1.641309	1.181319	0.734789	0.245293	0.617157	-0.137963
39731	-9.452435	1.589345	1.327624	0.736881	0.245664	0.614581	-0.137647
39732	-9.465582	1.443441	1.238399	0.738976	0.245838	0.612140	-0.136979
39733	-9.614080	1.455075	1.193467	0.741105	0.245879	0.609746	-0.136075
39734	-9.515944	1.590833	1.338307	0.743278	0.245726	0.607400	-0.134984
39735	-9.538922	1.784331	1.489688	0.745235	0.246794	0.604595	-0.134839
39736	-9.543372	2.365740	1.827280	0.747291	0.247597	0.601855	-0.134245
39737	-9.390352	2.067421	2.043744	0.749351	0.247857	0.599458	-0.133008
39738	-9.239322	2.032983	2.325187	0.751286	0.247943	0.597327	-0.131505
39739	-9.151086	1.857862	2.419498	0.753019	0.247947	0.595525	-0.129746
39740	-9.281028	1.836009	2.330785	0.754531	0.248027	0.593965	-0.127952
39741	-9.294632	1.827265	2.325320	0.755918	0.248127	0.592558	-0.126081
39742	-9.203483	1.630217	2.036914	0.757081	0.249020	0.590947	-0.124897
39743	-9.212375	1.675487	2.351714	0.757977	0.250509	0.589305	-0.124239
39744	-9.040441	1.549162	2.136229	0.758483	0.253615	0.587156	-0.125022
39745	-9.405748	1.122502	2.948333	0.758820	0.256545	0.585252	-0.125927
39746	-9.681362	0.179259	2.178706	0.758447	0.260837	0.583316	-0.128315
39747	-10.438107	1.569891	2.335564	0.757204	0.266029	0.581885	-0.131454
39748	-9.893355	2.452926	2.516239	0.755798	0.270369	0.581192	-0.133738
39749	-9.572612	1.287729	2.357684	0.754279	0.274376	0.580890	-0.135457
39750	-10.006730	0.549801	2.193553	0.751918	0.279580	0.580809	-0.138259
39751	-10.271891	0.996369	2.207969	0.748705	0.286158	0.580773	-0.142329
39752	-10.171069	0.572842	2.243567	0.745144	0.292854	0.580878	-0.146893
39753	-10.105715	0.019599	1.979990	0.740711	0.301092	0.580775	-0.152941
39754	-10.039515	-0.784747	1.734258	0.735282	0.311051	0.580383	-0.160507
39755	-10.297998	-0.738725	1.396419	0.727894	0.324430	0.579436	-0.170790
39756	-10.156660	0.187036	1.391816	0.718920	0.340406	0.577773	-0.182910
39757	-9.640242	0.516956	1.337705	0.708712	0.357895	0.575502	-0.196052
39758	-9.595044	0.400146	0.972450	0.697290	0.376495	0.572727	-0.209813
39759	-9.418319	0.233249	0.223737	0.684338	0.396512	0.569340	-0.224304
39760	-9.195344	-0.268939	-1.064540	0.669255	0.417585	0.565967	-0.239588
39761	-9.732910	-0.757358	-0.890244	0.653311	0.436606	0.563847	-0.254239
39762	-9.354456	-0.286707	-1.177478	0.636534	0.454939	0.561768	-0.268833
39763	-9.505696	0.190244	-1.092526	0.620296	0.472063	0.559469	-0.281750
39764	-9.666600	0.299665	-1.389677	0.604148	0.487949	0.557100	-0.294195
39765	-9.901234	1.722938	-1.378216	0.588549	0.502129	0.554628	-0.306373
39766	-9.556918	2.514160	-1.206858	0.574849	0.513619	0.552409	-0.317156
39767	-9.149807	2.765126	-1.013024	0.563337	0.522647	0.550457	-0.326325
39768	-9.069885	3.316959	-0.864749	0.553882	0.529454	0.548936	-0.334010
39769	-9.269562	2.578252	-0.990159	0.546902	0.533666	0.548164	-0.340023
