// Start Time: Unknown
// Update Rate: 60.0Hz
// Filter Profile: human (46.1)
// Option Flags: AHS Disabled ICC Disabled 
// Firmware Version: 4.3.5
PacketCounter	Acc_X	Acc_Y	Acc_Z	Quat_q0	Quat_q1	Quat_q2	Quat_q3
40913	-9.770589	1.258214	-0.642540	0.673646	0.061241	0.735845	0.031343
40914	-9.631264	1.125074	-0.748865	0.672700	0.060614	0.736707	0.032609
40915	-9.642398	1.372071	-0.847710	0.671716	0.060106	0.737593	0.033785
40916	-9.657345	1.521232	-0.861816	0.670689	0.059423	0.738525	0.035007
40917	-9.645699	1.463576	-0.924019	0.669652	0.058941	0.739462	0.035897
40918	-9.609957	1.453695	-1.063377	0.668594	0.058615	0.740412	0.036567
40919	-9.578271	1.229966	-1.254937	0.667588	0.058510	0.741304	0.037018
40920	-9.560447	1.175465	-1.421209	0.666657	0.058712	0.742124	0.037058
40921	-9.577692	1.227865	-1.438536	0.665840	0.058950	0.742841	0.036999
40922	-9.609131	1.304654	-1.353577	0.665145	0.059363	0.743444	0.036723
40923	-9.658683	1.438337	-1.350529	0.664545	0.059910	0.743962	0.036218
40924	-9.687714	1.542748	-1.249252	0.664048	0.060444	0.744392	0.035614
40925	-9.731760	1.557378	-1.168799	0.663598	0.060958	0.744782	0.034949
40926	-9.662777	1.540986	-1.153994	0.663179	0.061315	0.745150	0.034415
40927	-9.599665	1.420933	-1.141999	0.662752	0.061362	0.745534	0.034245
40928	-9.669797	1.261083	-1.267309	0.662362	0.061224	0.745890	0.034300
40929	-9.598791	1.321523	-1.257511	0.661999	0.061004	0.746223	0.034464
40930	-9.582840	1.373303	-1.135527	0.661651	0.060514	0.746550	0.034919
40931	-9.574809	1.272986	-1.057161	0.661291	0.060156	0.746883	0.035236
40932	-9.562138	1.297812	-1.098241	0.660882	0.059944	0.747254	0.035391
40933	-9.606632	1.210442	-1.198177	0.660439	0.059921	0.747650	0.035337
40934	-9.612585	1.229929	-1.154043	0.660013	0.059942	0.748030	0.035219
40935	-9.632085	1.095236	-1.200398	0.659539	0.060278	0.748440	0.034816
40936	-9.603375	1.384380	-1.272366	0.659068	0.060600	0.748847	0.034432
40937	-9.595148	1.320246	-1.306934	0.658618	0.060748	0.749237	0.034295
40938	-9.591079	1.210462	-1.366217	0.658186	0.060964	0.749608	0.034078
40939	-9.616710	1.349833	-1.400013	0.657779	0.061267	0.749955	0.033765
40940	-9.608205	1.403941	-1.461328	0.657425	0.061425	0.750261	0.033583
40941	-9.614474	1.434948	-1.475731	0.657133	0.061404	0.750518	0.033589
40942	-9.622264	1.316453	-1.485372	0.656922	0.061342	0.750704	0.033669
40943	-9.616150	1.302399	-1.458230	0.656762	0.061357	0.750848	0.033575
40944	-9.602734	1.358634	-1.467051	0.656647	0.061378	0.750949	0.033516
40945	-9.607136	1.285659	-1.447336	0.656590	0.061353	0.751002	0.033497
40946	-9.613793	1.240898	-1.459937	0.656576	0.061339	0.751015	0.033485
40947	-9.607542	1.259052	-1.401628	0.656573	0.061368	0.751017	0.033451
40948	-9.591276	1.336111	-1.332919	0.656599	0.061383	0.750994	0.033446
40949	-9.608540	1.427234	-1.376854	0.656654	0.061267	0.750950	0.033549
40950	-9.625124	1.340508	-1.383469	0.656727	0.060994	0.750897	0.033812
40951	-9.603734	1.408963	-1.415416	0.656832	0.060786	0.750813	0.034014
40952	-9.574794	1.451187	-1.366494	0.656998	0.060408	0.750684	0.034315
40953	-9.597441	1.259921	-1.374410	0.657166	0.059995	0.750553	0.034700
40954	-9.628392	1.283370	-1.348872	0.657355	0.059714	0.750401	0.034883
40955	-9.673141	1.217644	-1.345195	0.657571	0.059416	0.750224	0.035118
40956	-9.600683	1.319827	-1.367423	0.657816	0.059106	0.750022	0.035381
40957	-9.606042	1.355432	-1.306139	0.658078	0.058678	0.749806	0.035781
40958	-9.588376	1.307375	-1.290574	0.658347	0.058309	0.749584	0.036109
40959	-9.595610	1.268558	-1.221141	0.658590	0.057921	0.749382	0.036483
40960	-9.610121	1.379622	-1.185335	0.658802	0.057529	0.749208	0.036838
40961	-9.648782	1.283927	-0.952583	0.658943	0.056906	0.749100	0.037485
40962	-9.594043	1.004405	-0.909930	0.658985	0.056658	0.749069	0.037737
40963	-9.562570	1.352733	-1.002323	0.658905	0.056787	0.749136	0.037610
40964	-9.552962	1.391250	-1.083231	0.658760	0.056644	0.749265	0.037797
40965	-9.557956	1.191109	-1.187724	0.658568	0.056572	0.749436	0.037855
40966	-9.577745	1.375719	-1.202253	0.658354	0.056514	0.749626	0.037908
40967	-9.517864	1.480621	-1.238522	0.658117	0.056371	0.749841	0.037988
40968	-9.538412	1.422591	-1.273152	0.657874	0.056111	0.750067	0.038130
40969	-9.585969	1.190913	-1.280567	0.657598	0.056115	0.750318	0.037932
40970	-9.552757	1.136017	-1.277002	0.657326	0.056524	0.750557	0.037303
40971	-9.731938	1.041091	-1.460177	0.657108	0.057105	0.750739	0.036589
40972	-9.643206	1.385449	-1.607607	0.656946	0.057537	0.750873	0.036082
40973	-9.699203	1.165438	-1.492993	0.656903	0.057561	0.750902	0.036205
40974	-9.657628	1.229798	-1.552457	0.656956	0.057756	0.750842	0.036183
40975	-9.702264	1.244073	-1.545689	0.657070	0.057745	0.750726	0.036533
40976	-9.653992	1.259134	-1.473319	0.657255	0.057703	0.750545	0.037008
40977	-9.681023	1.104783	-1.289625	0.657516	0.057495	0.750291	0.037816
40978	-9.603190	0.966097	-1.221821	0.657751	0.057428	0.750050	0.038609
40979	-9.595011	0.853192	-1.021852	0.657913	0.057738	0.749852	0.039211
40980	-9.572352	1.387944	-1.025710	0.657987	0.058242	0.749724	0.039681
40981	-9.699756	1.330666	-1.206258	0.658031	0.058678	0.749614	0.040386
40982	-9.635802	1.256865	-1.228106	0.658052	0.058886	0.749522	0.041433
40983	-9.606330	1.093364	-1.396964	0.658088	0.059336	0.749403	0.042370
40984	-9.541673	1.270787	-1.310004	0.658108	0.059700	0.749287	0.043571
40985	-9.512034	1.253386	-1.119259	0.658103	0.059867	0.749190	0.045068
40986	-9.424153	1.342145	-0.944908	0.657987	0.060337	0.749179	0.046301
40987	-9.416288	1.519952	-0.873383	0.657732	0.061012	0.749281	0.047368
40988	-9.545095	1.528923	-0.919742	0.657348	0.061872	0.749491	0.048249
40989	-9.531242	1.504404	-0.953665	0.656825	0.062605	0.749819	0.049316
40990	-9.520487	1.249449	-1.086995	0.656226	0.063657	0.750199	0.050155
40991	-9.548165	1.498875	-1.057556	0.655503	0.064795	0.750673	0.051059
40992	-9.479534	1.840290	-0.871206	0.654683	0.065657	0.751228	0.052313
40993	-9.686531	1.910486	-0.308756	0.653605	0.065719	0.752008	0.054456
40994	-9.543325	1.214767	0.155152	0.652165	0.065668	0.753088	0.056808
40995	-9.450873	0.543351	0.216687	0.650082	0.066737	0.754685	0.058223
40996	-9.445147	0.816195	0.074888	0.647332	0.068914	0.756825	0.058550
40997	-9.386544	1.398810	-0.014146	0.644022	0.070897	0.759418	0.059109
40998	-9.439116	1.541170	-0.126929	0.640138	0.072195	0.762464	0.060493
40999	-9.377049	1.644537	-0.072064	0.635594	0.073333	0.766021	0.062089
41000	-9.450022	1.752399	-0.112071	0.630362	0.074504	0.770101	0.063542
41001	-10.146152	2.295416	-0.374110	0.624391	0.075540	0.774738	0.064882
41002	-10.298473	2.750102	0.122347	0.617806	0.074561	0.779774	0.068625
41003	-10.476452	1.925898	0.128351	0.610518	0.072422	0.785199	0.074059
41004	-11.125394	1.658618	-0.131319	0.602146	0.071936	0.791376	0.077262
41005	-11.922268	3.022705	0.173520	0.592787	0.071516	0.798112	0.080661
41006	-12.471830	3.322868	0.410646	0.582593	0.070142	0.805304	0.084562
41007	-13.341013	3.653226	0.664042	0.571484	0.067608	0.812998	0.088716
41008	-13.272338	3.216471	0.929058	0.559469	0.062904	0.821049	0.094420
41009	-12.891667	2.605068	-0.686562	0.546899	0.056752	0.829229	0.100298
41010	-11.561873	1.430835	-2.263450	0.535084	0.049241	0.836644	0.106243
41011	-9.635212	-0.613657	-4.470206	0.523894	0.042174	0.843520	0.110591
41012	-9.168478	-0.893109	-5.335268	0.513690	0.037769	0.849949	0.110830
41013	-7.943998	1.321697	-5.473737	0.504928	0.037380	0.855811	0.106008
41014	-6.426768	5.692846	-3.995717	0.498674	0.038446	0.860121	0.100192
41015	-5.712311	6.438840	-1.213867	0.496258	0.037291	0.861567	0.100201
41016	-6.253240	3.584798	-0.438353	0.498757	0.036659	0.860101	0.100614
41017	-6.588287	1.899467	-1.337103	0.505236	0.041130	0.856610	0.096249
41018	-7.307461	2.764584	-0.812917	0.515088	0.050127	0.851033	0.088967
41019	-7.073482	3.751283	-1.488958	0.528013	0.062912	0.843135	0.079799
41020	-6.785852	5.026515	-2.154575	0.543418	0.078239	0.832869	0.070031
41021	-7.359589	5.540908	-2.611554	0.560834	0.094134	0.820268	0.061360
41022	-8.194548	4.960224	-2.790182	0.579776	0.109653	0.805540	0.054228
41023	-9.030586	3.615189	-3.096449	0.599602	0.125743	0.788972	0.046788
41024	-9.675539	2.823526	-3.193024	0.619517	0.143483	0.770828	0.037884
41025	-9.647316	2.705689	-3.433557	0.639006	0.162965	0.751238	0.027481
41026	-9.678498	3.401372	-3.285334	0.657724	0.182692	0.730567	0.017190
41027	-10.122282	3.978225	-2.711507	0.675623	0.200304	0.709464	0.008503
41028	-10.981795	3.870715	-2.689219	0.692805	0.214442	0.688501	0.001452
41029	-11.011204	3.151389	-2.127758	0.709451	0.224159	0.668142	-0.004186
41030	-9.500305	1.200422	-1.569469	0.724070	0.231567	0.649605	-0.010585
41031	-8.336388	1.329158	-2.065517	0.735364	0.239642	0.633595	-0.019221
41032	-7.062742	1.475851	-2.422002	0.743506	0.246807	0.620920	-0.027288
41033	-6.208812	0.393954	-2.651346	0.748411	0.252092	0.612535	-0.033650
41034	-6.019213	-0.130223	-2.459743	0.750066	0.256063	0.608577	-0.038289
41035	-5.670014	0.127948	-3.711928	0.747992	0.257471	0.610398	-0.040393
41036	-8.680604	1.896772	1.500873	0.743107	0.251389	0.618916	-0.039223
41037	-16.635898	7.109740	10.548826	0.744915	0.234627	0.623784	-0.030748
41038	-11.767252	-2.935611	3.411300	0.744812	0.217651	0.630331	-0.023795
41039	-14.273341	-5.670939	2.119902	0.738365	0.209579	0.640570	-0.023748
41040	-10.159464	1.879033	-4.312261	0.726370	0.218553	0.650391	-0.040155
41041	-7.438796	10.924404	-2.678814	0.715050	0.226619	0.658936	-0.056129
41042	-8.863192	5.713642	-1.845341	0.707943	0.220489	0.668447	-0.058148
41043	-11.743678	-3.870382	-4.695842	0.701033	0.214243	0.677375	-0.061770
41044	-9.737614	-0.290261	-3.985398	0.694411	0.211453	0.684449	-0.067907
41045	-10.467068	0.673401	-2.975455	0.689057	0.207349	0.690811	-0.070615
41046	-10.743558	1.025104	-3.354176	0.684558	0.203410	0.696118	-0.073650
41047	-10.065016	3.040079	-2.004054	0.680570	0.198753	0.701108	-0.075954
41048	-10.034414	1.458444	-2.059803	0.677504	0.193074	0.705576	-0.076636
41049	-9.786261	-1.099568	-1.769930	0.674622	0.189343	0.709166	-0.078219
41050	-9.882923	-0.453754	-0.590602	0.671312	0.188701	0.712000	-0.082394
41051	-9.720499	0.290404	2.090075	0.668120	0.187277	0.715159	-0.084202
41052	-10.362559	-3.406069	-0.025239	0.664035	0.190250	0.717694	-0.088190
41053	-10.364874	-0.959317	-1.539641	0.657844	0.201437	0.718994	-0.098548
41054	-9.575776	2.901586	-1.026626	0.651359	0.214061	0.719786	-0.108713
41055	-8.176405	3.048926	-2.822850	0.645050	0.227213	0.720153	-0.116892
41056	-8.684181	2.350254	-2.899658	0.638051	0.244072	0.719627	-0.124327
41057	-9.706353	2.248368	-3.279038	0.628977	0.269149	0.716410	-0.136758
41058	-8.833437	5.554111	-3.076524	0.617886	0.298799	0.710925	-0.153366
41059	-8.479039	8.481938	-2.854833	0.606903	0.325204	0.705133	-0.169406
41060	-9.107488	6.563096	-3.710649	0.598937	0.343956	0.700822	-0.178375
41061	-9.876136	4.309559	-5.314637	0.592206	0.360102	0.696649	-0.185201
41062	-8.827662	3.657297	-6.038256	0.585414	0.376883	0.691173	-0.193727
41063	-7.906859	2.909287	-5.065556	0.580096	0.391288	0.685414	-0.201468
41064	-7.720885	5.481649	-3.760601	0.577033	0.404048	0.677748	-0.210798
41065	-4.530739	19.114692	-5.892101	0.580193	0.410905	0.668952	-0.216878
41066	-3.474361	28.985960	-2.331418	0.604937	0.390165	0.668636	-0.186409
41067	-12.140253	12.823454	-5.705465	0.644781	0.349248	0.666644	-0.133675
41068	-10.640852	-4.814854	-5.145592	0.677082	0.319122	0.655511	-0.100133
41069	-12.491922	-7.424532	-2.198510	0.692495	0.320870	0.638077	-0.101741
41070	-9.552114	3.533856	-0.830815	0.701936	0.328479	0.622523	-0.108867
41071	-4.230879	10.378554	1.233199	0.718431	0.306257	0.617917	-0.090781
41072	-4.880816	0.972844	-2.478151	0.737976	0.258682	0.620929	-0.054050
41073	-9.999904	-1.703212	3.340646	0.754355	0.196489	0.626234	-0.013110
41074	-13.301532	-6.179384	5.501169	0.765638	0.132252	0.628941	0.027232
41075	-11.874013	-15.748313	0.824216	0.768537	0.082986	0.631954	0.055665
41076	-10.400673	-15.410792	-1.539722	0.765763	0.056912	0.637241	0.065517
41077	-9.644017	-8.262475	-2.151869	0.760842	0.051706	0.643877	0.062200
41078	-9.675230	-3.711986	-3.648386	0.755916	0.054999	0.649876	0.056807
41079	-12.305268	-4.202079	-4.731930	0.750855	0.060536	0.655634	0.051931
41080	-12.947079	-1.618489	-5.005967	0.746637	0.068345	0.660235	0.044184
41081	-12.288376	3.370379	-5.463670	0.743450	0.073605	0.663710	0.036788
41082	-11.038125	8.114920	-3.965635	0.741919	0.072096	0.665705	0.034556
41083	-10.245603	8.893227	-3.073725	0.742130	0.062844	0.666173	0.038831
41084	-10.257545	5.971659	-1.646931	0.743207	0.047400	0.665596	0.048771
41085	-9.717394	3.546796	0.064568	0.744428	0.031548	0.664420	0.058122
41086	-9.565707	2.347681	0.646260	0.745885	0.016122	0.662550	0.066503
41087	-8.696004	1.207327	1.595942	0.747911	-0.002430	0.659134	0.078524
41088	-7.663181	-0.491134	1.751194	0.750335	-0.025358	0.653771	0.094536
41089	-8.401422	-4.850261	2.285689	0.749925	-0.056204	0.648678	0.116918
41090	-11.535233	-7.975518	0.575850	0.748288	-0.076310	0.645758	0.131294
41091	-10.224469	-3.003054	2.854116	0.746435	-0.085318	0.645356	0.138101
41092	-8.937734	-2.443844	4.153026	0.744754	-0.089169	0.646201	0.140762
41093	-9.492933	-1.574880	-0.169121	0.744525	-0.086213	0.647415	0.138216
41094	-9.315550	2.148745	-0.203122	0.744159	-0.087015	0.647891	0.137450
41095	-8.697981	1.859583	1.398682	0.742770	-0.095035	0.647228	0.142676
41096	-10.065138	-1.501684	3.395302	0.740749	-0.102328	0.647329	0.147597
41097	-10.002086	-3.755959	4.444733	0.738753	-0.104805	0.648956	0.148711
41098	-9.259508	-3.974263	5.909136	0.736444	-0.103336	0.652336	0.146386
41099	-9.071411	-7.113367	4.206566	0.733806	-0.098686	0.656906	0.142352
41100	-8.244146	-5.404036	1.929921	0.730951	-0.087296	0.663439	0.133932
41101	-8.967007	-5.232835	1.617323	0.727117	-0.071584	0.671315	0.124550
41102	-9.872196	-3.655440	0.963732	0.723255	-0.048648	0.680129	0.109363
41103	-10.411750	-0.613259	-1.348361	0.718983	-0.023413	0.688460	0.092401
41104	-9.934401	0.919360	-1.917736	0.714184	0.000991	0.695707	0.077018
41105	-9.926759	0.590223	-3.774896	0.709243	0.026848	0.701794	0.061143
41106	-10.018428	1.436476	-3.783774	0.704038	0.054106	0.706682	0.044754
41107	-10.867084	1.676163	-3.974137	0.698420	0.083230	0.710269	0.028269
41108	-9.410544	2.968101	-3.518992	0.691859	0.115083	0.712720	0.010785
41109	-6.827712	5.618846	-3.933953	0.684331	0.148828	0.713787	-0.007013
41110	-4.888402	8.090328	-3.393754	0.674837	0.183604	0.714350	-0.024261
41111	-4.472145	9.011819	-4.391946	0.664170	0.217061	0.714338	-0.038524
41112	-3.471770	7.228901	-4.508221	0.652670	0.249595	0.713588	-0.050167
41113	-3.687340	5.722717	-2.900837	0.640284	0.284083	0.710875	-0.063168
41114	-7.173963	4.479610	-2.062984	0.626921	0.316934	0.707504	-0.077210
41115	-12.547752	5.550931	-0.477552	0.614634	0.341903	0.705284	-0.088890
41116	-15.489537	3.641397	2.339501	0.607412	0.352323	0.706217	-0.090422
41117	-16.195989	-0.404964	1.731771	0.604934	0.349986	0.710243	-0.084372
41118	-12.989141	-0.840535	-1.582590	0.604224	0.341846	0.715582	-0.077439
41119	-7.455427	2.895378	-5.235525	0.604680	0.332551	0.720447	-0.068760
41120	-6.004374	2.487031	-5.885264	0.606110	0.325206	0.723546	-0.057904
41121	-7.743658	-1.279320	-6.442126	0.605827	0.325007	0.724281	-0.052549
41122	-8.942707	1.239001	-7.393742	0.602018	0.334744	0.722476	-0.059564
41123	-10.230655	8.039607	-5.382446	0.599867	0.342271	0.720014	-0.067760
41124	-10.523991	9.956779	-6.422547	0.602764	0.342148	0.717534	-0.068962
41125	-11.635136	7.745078	-6.409382	0.609015	0.336638	0.715198	-0.065327
41126	-11.091887	3.746887	-7.500954	0.615791	0.331835	0.711599	-0.065678
41127	-10.018072	5.690606	-6.223747	0.623710	0.326450	0.707004	-0.067534
41128	-9.297660	5.450729	-4.922416	0.635312	0.315325	0.702058	-0.063745
41129	-9.652155	2.894791	-1.918479	0.649343	0.298681	0.697232	-0.054872
41130	-10.567790	0.307684	-0.459878	0.663331	0.280074	0.692427	-0.045776
41131	-9.569412	-0.271553	-0.577112	0.675860	0.262623	0.687543	-0.039091
41132	-7.337799	0.101803	-1.054408	0.685193	0.248592	0.683666	-0.036237
41133	-5.057415	3.781157	1.060241	0.691050	0.233415	0.683314	-0.032391
41134	-4.491185	4.165962	-2.160498	0.693381	0.210927	0.688706	-0.020426
41135	-5.907768	3.033474	-3.255029	0.691991	0.180406	0.699001	0.000208
41136	-6.533228	-0.749070	-3.568895	0.686131	0.147697	0.712043	0.020134
41137	-8.286745	-0.025220	-0.008556	0.675645	0.116911	0.726976	0.036632
41138	-9.963127	-0.148249	1.910365	0.663866	0.089482	0.740599	0.052813
41139	-8.958207	-2.343556	2.877388	0.652777	0.069282	0.751689	0.063605
41140	-10.955961	1.172298	8.210527	0.645375	0.056836	0.758649	0.068644
41141	-14.840152	3.305806	13.712904	0.646262	0.049619	0.757984	0.073102
41142	-8.580651	-8.418672	-6.221239	0.647204	0.050594	0.757498	0.069019
41143	-12.188383	3.690073	-2.748885	0.644215	0.058646	0.760759	0.052847
41144	-9.613248	7.253062	-1.718258	0.643022	0.059325	0.762283	0.043919
41145	-9.179021	4.011655	-1.412962	0.642093	0.051162	0.763480	0.046879
41146	-9.902895	-2.743729	-2.944240	0.641209	0.043047	0.764523	0.050019
41147	-10.180192	-3.705551	-3.596054	0.640273	0.042028	0.765619	0.045957
41148	-10.090821	-0.867019	-2.456186	0.639201	0.044395	0.766696	0.040343
41149	-10.085378	-1.956237	-2.454264	0.638314	0.046300	0.767448	0.037895
41150	-9.961900	-2.036853	-2.704932	0.637513	0.050518	0.768027	0.034054
41151	-9.288904	0.849853	-2.358257	0.636883	0.056663	0.768343	0.028601
41152	-9.396854	3.022282	-0.264720	0.635570	0.062128	0.769169	0.023873
41153	-8.992024	4.215345	0.704952	0.633269	0.065970	0.770874	0.019270
41154	-8.869532	4.458825	0.991980	0.629722	0.066466	0.773775	0.017474
41155	-8.992080	4.135129	0.783954	0.624863	0.064436	0.777867	0.017816
41156	-8.639080	4.573687	0.295800	0.618935	0.059319	0.782905	0.021443
41157	-8.385525	4.888036	0.089066	0.612240	0.049315	0.788520	0.031093
41158	-7.577250	4.925440	-0.846765	0.604239	0.035760	0.794758	0.044450
41159	-7.261547	7.264312	-1.600325	0.594873	0.018464	0.801262	0.061354
41160	-7.623492	6.190029	-2.444059	0.583856	-0.004112	0.807540	0.083509
41161	-7.479304	2.327109	-2.139338	0.570804	-0.028368	0.813759	0.105710
41162	-6.868286	1.257423	-2.399693	0.556185	-0.049003	0.820554	0.122260
41163	-6.090851	2.361961	-2.240179	0.540204	-0.067094	0.827703	0.136328
41164	-5.656932	2.686736	-1.526495	0.522561	-0.084395	0.834593	0.152520
41165	-9.416268	-0.068109	-1.629796	0.503671	-0.099136	0.841344	0.169199
41166	-14.458517	-11.212902	-5.762466	0.485425	-0.110265	0.848360	0.180249
41167	-8.626225	-2.040054	-5.691370	0.471330	-0.110357	0.859303	0.165130
41168	-6.612554	0.599761	-6.446738	0.456039	-0.111718	0.868266	0.160193
41169	-6.991659	-2.556970	-7.239044	0.440936	-0.112097	0.876714	0.156147
41170	-9.053776	-1.950589	-6.369496	0.426022	-0.111038	0.884649	0.153529
41171	-9.833784	-1.824851	-6.258544	0.412673	-0.109053	0.891530	0.151602
41172	-7.256792	0.115498	-6.614116	0.400230	-0.107714	0.897419	0.151173
41173	-5.743398	1.514875	-8.205618	0.388010	-0.106776	0.903011	0.150395
41174	-5.192499	2.605846	-8.562982	0.376061	-0.107630	0.907441	0.153447
41175	-5.643962	0.617521	-8.343800	0.365221	-0.108906	0.910915	0.158072
41176	-6.486772	1.991880	-6.196073	0.354962	-0.107926	0.914624	0.160677
41177	-4.311559	4.340058	-6.155347	0.345326	-0.104295	0.918514	0.161880
41178	-5.129719	4.549531	-7.166911	0.334191	-0.102559	0.920990	0.171974
41179	-5.683616	2.035997	-8.267083	0.322743	-0.102282	0.922722	0.184281
41180	-5.676211	1.865191	-8.284769	0.312371	-0.101984	0.924816	0.191675
41181	-4.932595	4.589360	-7.947179	0.301689	-0.102707	0.926893	0.198254
41182	-4.422972	0.850829	-9.279719	0.291936	-0.102935	0.928748	0.203974
41183	-5.857284	1.213465	-11.352309	0.283512	-0.100852	0.931288	0.205313
41184	-6.320085	2.357638	-12.708346	0.276538	-0.096857	0.933761	0.205512
41185	-4.882719	3.609082	-12.563769	0.272162	-0.091357	0.936204	0.202740
41186	-4.809987	5.312751	-12.522763	0.269859	-0.085232	0.938613	0.197276
41187	-5.857360	6.548152	-12.774098	0.269318	-0.078680	0.940950	0.189448
41188	-6.552079	8.718312	-12.102351	0.269564	-0.071729	0.943031	0.181338
41189	-6.678408	5.631229	-11.137357	0.270843	-0.064974	0.944525	0.174057
41190	-6.194785	4.913013	-9.208468	0.272777	-0.059231	0.945739	0.166317
41191	-5.115543	5.335565	-8.456197	0.275046	-0.054076	0.946470	0.160063
41192	-4.953920	3.383801	-7.280995	0.276862	-0.049489	0.946593	0.157669
41193	-4.276255	1.697805	-7.933823	0.279525	-0.044721	0.946679	0.153833
41194	-3.066935	1.070950	-7.387218	0.282682	-0.040525	0.946487	0.150367
41195	-3.292698	0.161560	-7.511309	0.286034	-0.036088	0.946232	0.146719
41196	-3.868672	-1.021011	-9.015468	0.290070	-0.028925	0.946243	0.140166
41197	-4.791715	0.707006	-9.252820	0.294222	-0.018623	0.946481	0.131376
41198	-4.712907	1.685931	-8.829786	0.299013	-0.007142	0.946143	0.123906
41199	-3.685421	0.678737	-9.106929	0.304518	0.004842	0.945172	0.117874
41200	-4.660481	0.826212	-10.181109	0.311097	0.017369	0.943616	0.111833
41201	-5.658387	2.439049	-10.758971	0.319910	0.029290	0.941010	0.106303
41202	-4.430802	3.451936	-10.224614	0.331124	0.038550	0.937224	0.102377
41203	-4.050519	3.565577	-7.908859	0.344234	0.044889	0.932533	0.099350
41204	-6.068012	3.636245	-9.079918	0.359037	0.050096	0.927238	0.093876
41205	-10.036259	5.942604	-7.742934	0.374289	0.053039	0.921375	0.090342
41206	-13.427445	7.157280	-6.049966	0.389079	0.054595	0.915086	0.090855
41207	-16.898341	5.312538	-4.824115	0.402010	0.056268	0.909316	0.091468
41208	-20.182391	4.760300	-3.085142	0.412670	0.059362	0.904463	0.090148
41209	-20.245450	4.603280	-1.181947	0.420902	0.063365	0.900454	0.089492
41210	-15.707036	2.780282	1.508943	0.426772	0.068648	0.897080	0.091661
41211	-11.775538	-0.227219	0.623126	0.430203	0.077940	0.894794	0.090519
41212	-8.777271	0.161127	1.920267	0.432449	0.088808	0.892863	0.088861
41213	-7.214004	-0.356093	0.733042	0.434471	0.099985	0.890939	0.086408
41214	-5.563972	-0.187496	-0.412073	0.436196	0.109155	0.889189	0.084621
41215	-4.805328	-0.106405	-2.966235	0.437935	0.117745	0.887635	0.080328
41216	-0.974950	0.440032	-7.192992	0.438846	0.123967	0.886605	0.077309
41217	1.816395	3.731181	-3.819791	0.437359	0.127714	0.886799	0.077423
41218	-2.517193	2.420072	0.200075	0.438261	0.130060	0.885230	0.085900
41219	-5.836436	1.591134	-2.225519	0.444403	0.139142	0.880907	0.084544
41220	-4.271409	5.311574	-2.141227	0.455269	0.153610	0.873670	0.076383
41221	-4.026955	8.336588	1.144924	0.471910	0.168039	0.862583	0.070818
41222	-3.449331	7.478286	-0.169399	0.493648	0.183932	0.847408	0.066190
41223	-3.246442	7.225003	-3.106809	0.519335	0.202360	0.828223	0.058213
41224	-4.090753	9.529822	-2.570845	0.548397	0.218846	0.805363	0.052516
41225	-7.056373	6.741343	-2.215896	0.581325	0.231149	0.778572	0.049571
41226	-11.381266	4.010432	-6.407232	0.613971	0.245171	0.749248	0.039482
41227	-16.371305	7.923934	-1.844176	0.643413	0.260849	0.719224	0.026349
41228	-13.021555	7.516865	-0.847833	0.669821	0.271698	0.690892	0.013728
41229	-10.802362	4.240188	0.114650	0.693381	0.276229	0.665518	0.002649
41230	-11.798548	1.091009	0.034658	0.713787	0.280637	0.641595	-0.010311
41231	-10.963142	0.842644	0.134450	0.732974	0.281566	0.618925	-0.020033
41232	-9.661214	-0.053886	-2.071882	0.751764	0.277878	0.597518	-0.024624
41233	-6.484510	0.080434	-0.202864	0.770586	0.262618	0.580407	-0.018889
41234	-6.352316	-0.055824	1.583151	0.788530	0.235524	0.568085	-0.005425
41235	-4.801957	-3.242605	-3.077015	0.802056	0.202282	0.561817	0.012187
41236	-2.890936	-4.565571	-0.497885	0.805755	0.170655	0.566181	0.032784
41237	-15.942665	-18.621977	11.746095	0.799739	0.166971	0.575369	0.038578
41238	-23.147052	-7.038179	-5.965048	0.781436	0.214688	0.585889	0.000827
41239	-15.397002	19.559463	-6.834133	0.759061	0.261950	0.594718	-0.038987
41240	-7.951649	19.642281	-6.439032	0.747584	0.274232	0.602719	-0.051422
41241	-5.002182	12.978072	-5.392514	0.747299	0.256701	0.611478	-0.041762
41242	-10.747136	6.403039	-1.122837	0.750835	0.227833	0.619528	-0.022870
41243	-15.128021	-5.346499	-3.069214	0.752438	0.202868	0.626568	-0.009706
41244	-9.594990	-1.448219	-0.895153	0.751968	0.189960	0.631188	-0.007784
41245	-9.648817	1.253022	-1.143145	0.751491	0.177157	0.635489	-0.005518
41246	-9.809555	5.778498	-2.343407	0.751904	0.162108	0.639030	-0.001604
41247	-9.909904	2.456373	-3.757969	0.753776	0.141577	0.641646	0.008216
41248	-9.617880	1.142794	-0.810451	0.755323	0.122491	0.643598	0.016255
41249	-9.481902	-0.377470	2.584896	0.756766	0.099879	0.645435	0.027252
41250	-7.976252	-5.480337	2.122230	0.757970	0.075295	0.646607	0.041378
41251	-5.850828	-8.194610	0.190143	0.757733	0.058708	0.647915	0.050987
41252	-10.547704	-5.541989	2.219595	0.756488	0.054507	0.649298	0.056278
41253	-10.828851	-4.175775	-1.692461	0.754860	0.067983	0.650494	0.049225
41254	-9.105027	6.984761	2.434059	0.752977	0.079277	0.651910	0.041882
41255	-10.529533	0.594166	2.402227	0.751839	0.081510	0.652791	0.044239
41256	-11.084598	-4.987966	3.240221	0.750271	0.087211	0.653889	0.043773
41257	-10.074563	-0.698885	2.939558	0.747766	0.097949	0.655630	0.037426
41258	-8.824131	2.222674	1.681982	0.744749	0.107666	0.657903	0.030353
41259	-9.041146	2.488284	0.750944	0.741689	0.115680	0.660220	0.024993
41260	-8.609939	1.862486	0.168647	0.737771	0.128211	0.662551	0.016799
41261	-8.017120	3.267865	0.097581	0.733002	0.142848	0.665018	0.007376
41262	-8.446929	2.547888	1.085226	0.727552	0.158703	0.667442	-0.001760
41263	-8.565604	0.018792	-0.288854	0.721337	0.177345	0.669380	-0.012288
41264	-8.392455	2.062027	-1.521943	0.713797	0.199645	0.670776	-0.026390
41265	-8.656664	4.265314	-3.135333	0.706496	0.220193	0.671430	-0.039506
41266	-8.411323	5.601197	-1.452171	0.699786	0.237582	0.671840	-0.049852
41267	-10.190150	3.683710	-0.795594	0.693823	0.252344	0.672057	-0.057195
41268	-10.112561	3.159617	0.311016	0.686910	0.268898	0.671974	-0.065574
41269	-10.312623	2.383655	-1.223601	0.679302	0.286985	0.671371	-0.073823
41270	-10.577941	2.181963	-1.148836	0.670555	0.307687	0.669941	-0.082848
41271	-9.432327	3.924397	-1.115038	0.659289	0.332891	0.667450	-0.095034
41272	-8.803343	6.654337	-1.170494	0.647098	0.358148	0.664536	-0.106708
41273	-7.208233	6.169871	-1.483181	0.634700	0.382173	0.661763	-0.114759
41274	-5.136189	4.995769	-2.755324	0.620267	0.408326	0.658690	-0.121103
41275	-3.374057	3.903900	-2.496917	0.602479	0.438512	0.654568	-0.127544
41276	-3.887818	4.626343	-2.856044	0.582647	0.471240	0.648449	-0.134049
41277	-5.880745	4.261734	-2.842940	0.562366	0.503576	0.640714	-0.140146
41278	-7.496234	3.858368	-2.326891	0.542173	0.533838	0.632379	-0.145473
41279	-7.912154	3.331692	-1.880313	0.523261	0.560860	0.624026	-0.149082
41280	-7.146815	0.951035	-2.651153	0.505223	0.586037	0.615315	-0.150656
41281	-6.721874	-1.022704	-3.442765	0.485206	0.613062	0.604617	-0.152213
41282	-6.531008	-0.531919	-4.340988	0.459098	0.644634	0.590551	-0.157875
41283	-6.691271	2.918888	-6.023421	0.427729	0.677572	0.574500	-0.167016
41284	-9.093680	4.540574	-7.839099	0.395664	0.706683	0.559578	-0.175845
41285	-11.489877	7.932893	-8.995089	0.366937	0.729792	0.546984	-0.183222
41286	-10.886281	10.209381	-9.029359	0.346913	0.744547	0.538873	-0.186858
41287	-9.959188	7.613195	-8.330045	0.339073	0.749882	0.537506	-0.183832
41288	-10.064455	2.402358	-8.767370	0.338268	0.749899	0.539873	-0.178222
41289	-8.813620	-0.202960	-9.524682	0.339486	0.748279	0.542902	-0.173451
41290	-7.703328	-0.513648	-9.701212	0.341078	0.746356	0.545628	-0.170029
41291	-8.146997	0.599432	-9.914726	0.342043	0.744932	0.547394	-0.168652
41292	-7.898124	2.133233	-9.339872	0.343817	0.743673	0.548087	-0.168347
41293	-6.645022	2.444682	-8.762760	0.345823	0.743115	0.547246	-0.169434
41294	-4.958776	3.516343	-8.872374	0.345786	0.744163	0.544615	-0.173345
41295	-4.573886	5.022112	-8.682942	0.344550	0.746048	0.541033	-0.178833
41296	-4.932157	5.790229	-8.067848	0.343826	0.747366	0.537696	-0.184689
41297	-5.362204	6.364392	-6.464897	0.345570	0.746792	0.535863	-0.189038
41298	-6.057030	5.552800	-5.393559	0.350022	0.743923	0.536124	-0.191399
41299	-7.060813	4.740674	-4.501912	0.356554	0.738717	0.538722	-0.192209
41300	-8.033534	4.552652	-4.296366	0.364671	0.731106	0.543840	-0.191671
41301	-8.491632	4.183182	-4.315781	0.375580	0.720401	0.551698	-0.188658
41302	-8.833142	3.373497	-5.256024	0.389525	0.706707	0.561548	-0.183028
41303	-8.694321	3.048016	-7.420870	0.403765	0.691478	0.571974	-0.177985
41304	-7.898304	6.060199	-9.353941	0.417973	0.674391	0.582976	-0.175026
41305	-7.436439	9.724028	-9.624603	0.436548	0.651861	0.595967	-0.171252
41306	-7.481533	10.083557	-8.679181	0.463358	0.619821	0.612241	-0.162117
41307	-8.350713	7.196921	-6.856532	0.494279	0.579911	0.630171	-0.149256
41308	-10.053446	5.121218	-5.592017	0.525898	0.534676	0.647548	-0.135037
41309	-9.729116	5.800804	-4.720033	0.556726	0.485372	0.663416	-0.119791
41310	-8.001826	5.059031	-5.298099	0.587005	0.431945	0.676995	-0.102600
41311	-5.416662	5.150369	-5.108959	0.614797	0.375581	0.688275	-0.085097
41312	-3.633889	4.597560	-5.790065	0.640278	0.317364	0.696311	-0.066894
41313	-2.594399	3.821076	-5.958192	0.662562	0.259130	0.701090	-0.048341
41314	-2.775967	2.954130	-5.640755	0.681114	0.202389	0.703066	-0.028647
41315	-3.371927	-0.021169	-4.738178	0.694676	0.152921	0.702800	-0.010623
41316	-3.141484	1.080885	-3.561606	0.702959	0.116812	0.701567	0.002677
41317	-2.613979	2.583337	-2.515750	0.707397	0.088343	0.701072	0.016847
41318	-5.213824	-2.518853	-2.096786	0.708955	0.065021	0.701536	0.031651
41319	-9.155537	-4.429696	-1.385840	0.709402	0.048205	0.701978	0.040642
41320	-10.318945	-3.287743	0.822710	0.709936	0.029577	0.702044	0.047435
41321	-8.713665	-1.947302	1.259316	0.710274	0.008396	0.701742	0.054761
41322	-8.649507	-3.988645	-0.147614	0.709563	-0.009964	0.701730	0.063213
41323	-8.355278	-4.214371	0.521216	0.707986	-0.019898	0.702584	0.068822
41324	-11.227066	-5.769111	4.298064	0.705559	-0.026048	0.704342	0.073554
41325	-18.111520	-4.667518	3.859482	0.703590	-0.025246	0.706415	0.072813
41326	-15.555038	-1.543602	3.392382	0.701645	-0.020789	0.708644	0.071315
41327	-10.469707	-2.084266	0.304021	0.699588	-0.011740	0.711294	0.067079
41328	-8.061214	-0.476452	-1.500480	0.697306	-0.001730	0.714070	0.062167
41329	-7.341584	-0.492354	-2.457715	0.694903	0.006483	0.716621	0.059351
41330	-7.659222	-1.246466	-2.852201	0.692652	0.015538	0.718902	0.056317
41331	-8.324471	-1.236769	-2.940471	0.690561	0.026647	0.720966	0.051228
41332	-9.439672	0.970366	-2.881070	0.688893	0.038955	0.722419	0.044938
41333	-9.863879	1.879653	-2.491215	0.687819	0.049403	0.723040	0.040963
41334	-11.605290	1.834751	-1.883572	0.687152	0.060436	0.723044	0.037095
41335	-10.701488	0.634699	-2.973245	0.687000	0.073397	0.722232	0.032019
41336	-8.135503	2.432190	-3.750848	0.687225	0.087896	0.720707	0.024017
41337	-7.262562	5.414121	-2.769239	0.687936	0.100316	0.718590	0.017600
41338	-10.379360	3.789441	-1.362672	0.689094	0.110624	0.716028	0.014685
41339	-14.266260	0.512093	0.064243	0.690778	0.121106	0.712777	0.010398
41340	-11.111035	1.742879	-1.419911	0.692439	0.134309	0.708864	0.001027
41341	-7.771036	3.856998	0.092411	0.694348	0.144504	0.704969	-0.004207
41342	-8.906333	0.258456	0.327661	0.696079	0.154119	0.701188	-0.007515
41343	-9.239475	-0.372187	0.106650	0.696431	0.167783	0.697567	-0.015228
41344	-9.193010	2.281142	-0.576787	0.695935	0.183245	0.693879	-0.025040
41345	-9.043071	4.384056	0.070797	0.695588	0.196052	0.690409	-0.032493
41346	-9.152539	3.353109	1.534955	0.695220	0.206451	0.687487	-0.037543
41347	-9.112319	2.829975	-0.150050	0.693917	0.218838	0.684525	-0.044885
41348	-9.090538	5.500087	0.613572	0.692155	0.230440	0.681992	-0.052021
41349	-9.198210	6.131928	-0.639053	0.691468	0.237829	0.679823	-0.056122
41350	-9.637750	6.499799	0.277313	0.692311	0.238887	0.678655	-0.055373
41351	-9.807258	2.853841	-0.054352	0.694504	0.235683	0.677920	-0.050416
41352	-9.338479	0.440664	-0.075858	0.696276	0.233396	0.677242	-0.045492
41353	-9.602628	1.272567	-0.719936	0.697957	0.231733	0.676391	-0.040638
41354	-9.928737	1.640427	-1.022916	0.700668	0.228237	0.675192	-0.032997
41355	-10.363719	0.844527	-3.097028	0.704320	0.224870	0.672872	-0.024685
41356	-10.458133	2.515319	-4.020070	0.708898	0.222215	0.669183	-0.016672
41357	-10.379924	5.686179	-4.189033	0.714948	0.218108	0.664250	-0.007121
41358	-11.047222	5.467651	-3.655621	0.723736	0.208824	0.657676	0.007807
41359	-11.230282	1.361339	-3.789719	0.733274	0.200029	0.649459	0.022382
41360	-11.298604	2.392769	-1.953834	0.742688	0.194760	0.639849	0.032805
41361	-9.472246	6.918724	-0.379008	0.751672	0.192513	0.629437	0.041690
41362	-7.432297	8.184062	0.288672	0.757876	0.189702	0.622176	0.050334
41363	-5.841444	9.316554	1.546878	0.760303	0.181991	0.620597	0.060654
41364	-7.299122	1.114513	-1.447528	0.757759	0.162819	0.627104	0.077666
41365	-8.336989	0.642281	-5.016892	0.747288	0.146753	0.641961	0.088939
41366	-8.813114	5.973680	-6.783180	0.731868	0.125403	0.661692	0.103956
41367	-7.748213	4.053371	-6.786292	0.711469	0.094690	0.684672	0.126771
41368	-8.008730	-0.548113	-7.449919	0.685978	0.063543	0.709168	0.149926
41369	-8.276377	-2.045873	-6.467042	0.657107	0.039338	0.733829	0.167801
41370	-7.809533	-2.189569	-5.589176	0.626273	0.023933	0.758275	0.179522
41371	-7.645882	-0.929780	-4.457215	0.594853	0.015807	0.781925	0.185723
41372	-7.685444	1.240901	-3.594389	0.564066	0.013154	0.804260	0.186606
41373	-8.243129	4.451523	-2.837923	0.534695	0.011567	0.824307	0.185703
41374	-7.991923	5.658469	-2.996836	0.507102	0.006652	0.841112	0.187973
41375	-6.885906	5.496099	-2.532078	0.480781	-0.002057	0.855080	0.194123
41376	-7.334030	3.970684	-2.643297	0.455814	-0.011209	0.866887	0.201534
41377	-8.194154	4.101405	-2.125063	0.431959	-0.019262	0.877580	0.207110
41378	-8.945004	4.926601	-2.278796	0.409810	-0.026227	0.887123	0.210668
41379	-8.960457	6.050466	-1.363028	0.389290	-0.033520	0.895008	0.215152
41380	-9.017169	5.351316	-1.456631	0.371747	-0.041999	0.900329	0.222369
41381	-8.172214	3.013333	-0.320051	0.357233	-0.050967	0.903433	0.231508
41382	-8.234265	1.087485	0.394304	0.346655	-0.058432	0.905445	0.237877
41383	-7.523271	1.529424	-0.058260	0.340186	-0.063197	0.907460	0.238319
41384	-7.009530	1.817265	-0.871307	0.336473	-0.066396	0.909010	0.236808
41385	-7.738396	-4.006347	-8.467339	0.333332	-0.067013	0.911667	0.230786
41386	-8.057031	1.257114	-7.817416	0.328812	-0.067349	0.916596	0.217253
41387	-8.717593	6.690378	-6.273080	0.322692	-0.072962	0.919619	0.211771
41388	-7.389340	6.521688	-5.763887	0.314520	-0.082433	0.920130	0.218271
41389	-10.268319	1.809234	-6.128125	0.305133	-0.091667	0.919869	0.228761
41390	-14.599087	-1.958004	-6.200332	0.296692	-0.097768	0.920924	0.233055
41391	-18.594404	-4.008877	-8.444070	0.290696	-0.100553	0.924457	0.225309
41392	-21.121045	0.772884	-9.234921	0.287208	-0.102009	0.928985	0.209982
41393	-16.216593	5.916002	-8.268438	0.284359	-0.103992	0.932054	0.199002
41394	-7.539700	7.397437	-7.917666	0.281303	-0.105665	0.933863	0.193918
41395	-0.958950	6.370392	-7.414322	0.276776	-0.107215	0.935196	0.193152
41396	0.762921	1.977917	-6.636156	0.271849	-0.107592	0.936849	0.191928
41397	1.438562	-0.999535	-7.648295	0.267730	-0.106883	0.939428	0.185398
41398	-1.325171	0.000237	-8.538624	0.263748	-0.106198	0.942521	0.175536
41399	-5.651075	1.909504	-9.330220	0.259319	-0.106841	0.944894	0.168860
41400	-9.680212	2.297675	-9.260013	0.254594	-0.109272	0.946002	0.168288
41401	-8.694679	2.331966	-9.543268	0.250458	-0.112707	0.946113	0.171574
41402	-5.460284	1.555063	-8.618146	0.246668	-0.115609	0.945974	0.175849
41403	-2.499940	1.479257	-7.870768	0.243316	-0.117197	0.946267	0.177882
41404	-1.450670	1.782174	-7.743272	0.240226	-0.117456	0.947077	0.177595
41405	-2.912970	3.718813	-7.971783	0.236932	-0.117169	0.948021	0.177174
41406	-5.378084	3.166960	-9.257434	0.233792	-0.116557	0.948614	0.178571
41407	-7.506290	2.139521	-10.191119	0.231255	-0.115028	0.949033	0.180626
41408	-7.418502	1.856418	-9.673822	0.229358	-0.112638	0.949480	0.182193
41409	-5.109827	0.775991	-9.278894	0.228105	-0.109691	0.950093	0.182372
41410	-2.982540	2.518622	-8.894757	0.227507	-0.106467	0.950904	0.180794
41411	-1.864769	2.978056	-8.731499	0.226830	-0.103462	0.951340	0.181095
41412	-2.575074	2.678215	-9.283152	0.226568	-0.100317	0.951756	0.181006
41413	-4.228342	3.865290	-10.008826	0.227164	-0.097045	0.952106	0.180203
41414	-5.665468	3.846473	-10.150183	0.228766	-0.094017	0.951915	0.180790
41415	-4.947044	2.956785	-10.136491	0.231545	-0.091584	0.951473	0.180825
41416	-3.529543	3.155142	-9.854791	0.235505	-0.089528	0.951001	0.179219
41417	-2.064356	3.704383	-9.358757	0.240210	-0.087982	0.950258	0.177675
41418	-1.988234	3.314418	-9.143310	0.245386	-0.086935	0.949177	0.176894
41419	-2.710470	2.478942	-9.651023	0.251602	-0.086190	0.947814	0.175833
41420	-3.954771	2.195867	-9.536739	0.258579	-0.086069	0.946094	0.175031
41421	-5.931250	1.063663	-10.059954	0.266867	-0.086082	0.943949	0.174163
41422	-6.441559	1.491709	-9.977818	0.276450	-0.086487	0.941410	0.172749
41423	-6.319802	1.164924	-9.564501	0.287231	-0.087312	0.938228	0.172055
41424	-5.419602	1.359820	-9.452946	0.299045	-0.088411	0.934386	0.172273
41425	-4.295127	0.386545	-9.570831	0.311708	-0.089223	0.929794	0.174242
41426	-4.473114	-0.967521	-9.407152	0.325450	-0.089484	0.924617	0.176515
41427	-4.187139	-1.718526	-10.075573	0.341111	-0.089216	0.918955	0.176651
41428	-3.929369	-0.495360	-8.926839	0.358405	-0.089252	0.912542	0.175633
41429	-5.531598	1.730540	-8.583374	0.377239	-0.089718	0.905034	0.174803
41430	-8.622848	4.693056	-6.541301	0.396163	-0.092179	0.895480	0.180760
41431	-9.340891	3.068174	-7.657726	0.415352	-0.093443	0.884890	0.189001
41432	-8.932322	2.998906	-5.650526	0.433910	-0.092204	0.874397	0.196597
41433	-8.119321	1.066424	-5.030370	0.452631	-0.086719	0.864820	0.199228
41434	-7.208798	2.761914	-3.986813	0.471400	-0.075768	0.856718	0.195128
41435	-8.400078	5.808204	-1.970467	0.488530	-0.064536	0.848632	0.192350
41436	-10.819241	4.854365	0.700581	0.503123	-0.057758	0.839578	0.196573
41437	-11.144045	2.319024	1.199170	0.515514	-0.052471	0.831086	0.201960
41438	-9.617359	1.255367	2.062620	0.525495	-0.046142	0.824368	0.205288
41439	-7.652467	1.192513	1.889924	0.533193	-0.038320	0.819725	0.205640
41440	-7.055879	1.422923	1.749782	0.538445	-0.029355	0.816995	0.204289
41441	-7.831594	0.848906	1.707227	0.541132	-0.020259	0.815803	0.203055
41442	-8.580001	0.972118	0.566699	0.541899	-0.011185	0.815756	0.201896
41443	-9.223123	2.156276	1.151083	0.540817	-0.003469	0.816697	0.201271
41444	-10.062309	4.236582	1.939179	0.538457	0.000786	0.818137	0.201781
41445	-10.665027	4.514351	1.546339	0.535743	0.000729	0.819187	0.204722
41446	-10.727719	4.273683	-0.053132	0.532450	-0.003929	0.819951	0.210148
41447	-9.794871	2.700662	-2.201071	0.528348	-0.013024	0.820454	0.218024
41448	-9.700339	3.253563	-3.326579	0.523738	-0.024797	0.821356	0.224628
41449	-8.367913	2.029550	-4.566295	0.518284	-0.039855	0.822079	0.232335
41450	-9.096342	-4.813446	-3.990053	0.511264	-0.055965	0.822938	0.241350
41451	-11.160982	-9.409530	-4.098842	0.508045	-0.062302	0.827021	0.232476
41452	-11.357162	-2.193195	-2.369012	0.509870	-0.062323	0.833029	0.205456
41453	-8.474293	5.512778	-0.958709	0.513551	-0.069164	0.835494	0.182844
41454	-8.281992	5.738447	-1.958565	0.517406	-0.087954	0.833168	0.174317
41455	-8.747995	3.830217	-2.641839	0.521329	-0.117233	0.826659	0.176374
41456	-8.905598	2.026746	-3.144366	0.525329	-0.154078	0.816195	0.184704
41457	-8.620053	-0.105867	-3.572881	0.530196	-0.192753	0.803194	0.191361
41458	-7.818570	0.429550	-3.916077	0.536819	-0.228104	0.789382	0.191492
41459	-7.697205	3.188037	-3.510583	0.543699	-0.261095	0.774977	0.188762
41460	-8.039352	4.394074	-3.186280	0.548495	-0.295041	0.759318	0.188523
41461	-7.887222	3.823944	-3.917220	0.550203	-0.330838	0.742294	0.191888
41462	-8.279704	1.090145	-3.501829	0.548085	-0.367591	0.724443	0.199153
41463	-8.902265	5.065622	-2.602373	0.547268	-0.397722	0.707535	0.204230
41464	-7.168914	9.576319	-1.588557	0.544818	-0.423711	0.690791	0.215522
41465	-6.404967	13.323495	-1.639641	0.539358	-0.445032	0.675206	0.234813
41466	-6.335827	-0.692488	-11.937720	0.527505	-0.459704	0.667276	0.255252
41467	-14.300075	1.756915	-2.955360	0.522880	-0.456671	0.672270	0.257102
41468	-9.676956	-10.285648	-6.660758	0.532952	-0.435273	0.684120	0.241825
41469	-10.321669	-0.206327	-4.237613	0.551685	-0.407615	0.696087	0.212032
41470	-9.071982	6.774468	0.329249	0.558455	-0.402531	0.696153	0.203634
41471	-6.900166	-0.420819	-4.860402	0.554297	-0.416140	0.688227	0.214301
41472	-9.939985	-3.879879	-3.232273	0.546094	-0.432847	0.679132	0.230659
41473	-22.844748	0.350199	-1.605417	0.540537	-0.440061	0.675824	0.239641
41474	-11.262270	-7.109982	-9.095961	0.539573	-0.438819	0.674964	0.246419
41475	-6.603555	-0.585860	-5.002020	0.543156	-0.433963	0.675572	0.245479
41476	-9.014833	3.144039	-2.940804	0.542599	-0.434001	0.673573	0.252048
41477	-10.125808	-0.209293	-4.024355	0.536364	-0.440822	0.668002	0.267886
41478	-9.811300	-5.015614	-5.060439	0.532734	-0.444472	0.663186	0.280754
41479	-10.588248	-2.939711	-2.843322	0.534009	-0.442643	0.660109	0.288371
41480	-10.343524	-3.094114	-3.116122	0.534769	-0.441744	0.655670	0.298298
41481	-12.105158	-5.136676	-3.929505	0.534532	-0.441618	0.650189	0.310650
41482	-13.934827	-4.769565	-3.721816	0.536573	-0.440020	0.644588	0.320902
41483	-13.403687	-0.176795	-5.199557	0.539545	-0.439247	0.637128	0.331694
41484	-12.215455	2.847258	-6.985803	0.543239	-0.441518	0.625999	0.343626
41485	-10.243035	4.092056	-5.072332	0.542496	-0.454118	0.606753	0.362389
41486	-11.832867	1.926000	-1.993663	0.537077	-0.473049	0.581562	0.386728
41487	-6.563108	-2.333530	-1.302817	0.532074	-0.491798	0.551201	0.413776
41488	-1.439682	-6.231616	-2.501006	0.529306	-0.508055	0.520131	0.437240
41489	-3.852466	-0.156874	2.195900	0.516386	-0.530376	0.481722	0.469032
41490	-1.237089	-3.533216	2.204210	0.497131	-0.552643	0.441263	0.502725
41491	-4.497241	-6.760875	5.741259	0.479265	-0.566967	0.411373	0.528797
41492	-7.778210	-5.925798	8.579241	0.474607	-0.566551	0.405038	0.538250
41493	-10.003317	-1.088192	10.787925	0.479196	-0.558308	0.414002	0.535972
41494	-11.089540	0.068481	9.772890	0.478660	-0.555421	0.421167	0.533864
41495	-9.167808	-3.959448	6.441748	0.475249	-0.555504	0.427945	0.531429
41496	-7.591782	-4.897292	2.898465	0.472049	-0.556292	0.436221	0.526707
41497	-8.985148	-5.902516	0.160646	0.468956	-0.557722	0.444226	0.521239
41498	-9.979040	-9.200895	-3.186783	0.468069	-0.557311	0.454061	0.513949
41499	-10.976340	-4.689394	-5.246664	0.473543	-0.551182	0.469745	0.501293
41500	-11.685445	4.211389	-4.723726	0.475682	-0.547630	0.479264	0.494100
41501	-7.089563	3.926639	-5.871988	0.472391	-0.550175	0.478564	0.495107
41502	-8.291364	10.964096	-5.705074	0.468617	-0.553985	0.474648	0.498205
41503	-9.579611	9.418464	-5.680028	0.466524	-0.555304	0.471927	0.501277
41504	-9.869458	2.362092	-2.605918	0.465233	-0.554788	0.470815	0.504085
41505	-10.334529	-3.708390	3.110998	0.465617	-0.553322	0.471733	0.504483
41506	-8.098943	-11.102848	3.656443	0.464208	-0.552676	0.473093	0.505216
41507	-7.316440	-6.466998	3.152392	0.466824	-0.549174	0.480519	0.499584
41508	-9.561285	0.440079	1.906428	0.470432	-0.545062	0.489876	0.491551
41509	-11.143005	3.572502	-2.053587	0.474270	-0.540749	0.499217	0.483157
41510	-12.651451	6.912636	-3.987296	0.476697	-0.537760	0.505909	0.477106
41511	-10.542641	2.094916	-6.151953	0.478027	-0.535799	0.508852	0.474847
41512	-9.677161	-0.274513	-4.333721	0.480825	-0.532206	0.511824	0.472863
41513	-8.800763	0.085668	-1.913955	0.484522	-0.527572	0.515149	0.470667
41514	-9.460756	3.369034	0.061222	0.488429	-0.522976	0.519023	0.467490
41515	-10.011288	4.902573	1.827900	0.490138	-0.520904	0.521227	0.465560
41516	-10.051543	3.356863	2.394616	0.490382	-0.521187	0.522325	0.463752
41517	-9.402492	1.801003	2.092667	0.490512	-0.522417	0.523929	0.460410
41518	-9.324900	0.503653	2.854258	0.489274	-0.525304	0.525494	0.456642
41519	-9.366725	-0.667928	2.128149	0.488670	-0.527948	0.528862	0.450309
41520	-9.689037	0.529462	-0.127043	0.487896	-0.531184	0.532534	0.442954
41521	-10.043574	-0.072592	-2.187966	0.486695	-0.534981	0.535841	0.435656
41522	-9.636584	-0.179376	-3.697891	0.486209	-0.538021	0.539499	0.427874
41523	-9.315736	-0.289316	-3.368800	0.486004	-0.540352	0.543325	0.420259
41524	-9.659258	-2.033110	-4.208641	0.487470	-0.540729	0.548364	0.411439
41525	-10.068795	-0.530158	-3.321845	0.490556	-0.539968	0.553347	0.401990
41526	-10.166560	-0.316243	-2.665422	0.492508	-0.540646	0.555739	0.395338
41527	-9.442696	-0.598139	-2.714221	0.492708	-0.542703	0.556180	0.391633
41528	-9.282078	-1.894499	-2.974412	0.492346	-0.544491	0.556667	0.388904
41529	-9.688993	-2.374238	-3.049549	0.493233	-0.545012	0.558226	0.384794
41530	-11.144797	-0.652107	-2.906550	0.496611	-0.543284	0.561310	0.378353
41531	-10.296640	2.623032	-0.058599	0.498624	-0.541689	0.564573	0.373101
41532	-10.512506	-1.737170	0.099794	0.498952	-0.538121	0.571635	0.367024
41533	-10.259987	-7.162560	-5.123888	0.507935	-0.520444	0.592571	0.346409
41534	-10.199326	-1.241627	-10.607744	0.529756	-0.483564	0.626011	0.305996
41535	-8.718575	10.939105	-6.489876	0.550522	-0.443018	0.656783	0.263242
41536	-8.638188	8.904236	-2.964925	0.558849	-0.410617	0.680575	0.236431
41537	-7.903929	0.219353	-1.386821	0.565881	-0.374461	0.704144	0.209139
41538	-8.465987	-3.216417	0.005575	0.575174	-0.331187	0.727484	0.173945
41539	-9.847160	-1.719707	0.612695	0.584653	-0.285052	0.747580	0.134355
41540	-9.154876	-2.211216	3.102359	0.589858	-0.248250	0.761231	0.104726
41541	-7.098324	-7.416548	3.062824	0.591003	-0.223140	0.770174	0.088069
41542	-5.838221	-11.243671	2.914359	0.590601	-0.206073	0.776368	0.077313
41543	-6.288790	-12.935006	-0.931480	0.590483	-0.191885	0.781197	0.065121
41544	-6.708879	-5.517854	-0.201059	0.589335	-0.186729	0.783708	0.060158
41545	-9.114506	-4.919863	-4.715831	0.586851	-0.190532	0.784191	0.065939
41546	-10.591183	0.005333	-5.936710	0.584489	-0.195299	0.783955	0.075138
41547	-10.232544	-0.684009	-6.457718	0.583968	-0.193339	0.784424	0.079249
41548	-12.041669	1.754843	-3.271227	0.584718	-0.185713	0.785926	0.077045
41549	-13.748329	0.967719	-3.064322	0.586250	-0.176910	0.787206	0.072939
41550	-12.823194	-0.372872	-2.498049	0.587484	-0.168617	0.788318	0.070606
41551	-9.777693	-1.389943	-2.816828	0.588494	-0.161487	0.789118	0.069925
41552	-8.050428	-1.126422	-1.812784	0.588669	-0.156460	0.789825	0.071879
41553	-7.214028	-1.135536	-1.455450	0.588063	-0.152922	0.790588	0.075936
41554	-7.823415	0.023229	-0.280555	0.586239	-0.150184	0.791966	0.080983
41555	-9.988786	-0.720090	-0.396198	0.583488	-0.148167	0.793729	0.087077
41556	-12.319773	0.507659	-1.005719	0.580109	-0.145983	0.795995	0.092491
41557	-11.225575	0.330159	-0.010715	0.575778	-0.145453	0.798231	0.100752
41558	-9.727956	-1.112671	0.631893	0.570134	-0.144539	0.801509	0.107884
41559	-10.268731	-0.422214	0.842063	0.563117	-0.143059	0.805895	0.113868
41560	-10.954425	0.580513	0.915228	0.554416	-0.142792	0.810848	0.121488
41561	-11.748956	-0.463918	-0.210515	0.544566	-0.142035	0.816657	0.127847
41562	-12.922762	0.350882	-0.424289	0.533744	-0.140557	0.823292	0.132484
41563	-12.759716	1.059957	-0.652954	0.522042	-0.139381	0.830292	0.136606
41564	-11.757821	1.215666	-0.832333	0.509392	-0.138281	0.837657	0.140458
41565	-11.097125	0.603383	-1.477597	0.495964	-0.136807	0.845412	0.143466
41566	-10.608009	0.354912	-2.323804	0.482264	-0.134346	0.853517	0.144500
41567	-10.615338	0.952058	-3.132351	0.468467	-0.131741	0.861546	0.144641
41568	-11.009313	1.450780	-3.624204	0.454677	-0.130740	0.868756	0.146423
41569	-10.181132	0.793483	-3.494168	0.441090	-0.130720	0.875197	0.149606
41570	-9.191053	0.460075	-3.613055	0.428328	-0.129833	0.881375	0.151187
41571	-8.260214	0.045604	-4.643981	0.416631	-0.127375	0.887467	0.150321
41572	-7.733217	0.263182	-5.785794	0.405999	-0.123489	0.893407	0.147443
41573	-7.120277	0.469290	-5.550030	0.396364	-0.118339	0.898809	0.145033
41574	-5.892215	-1.615665	-5.202759	0.388939	-0.110000	0.903445	0.142874
41575	-5.488497	-2.558846	-5.337802	0.385236	-0.097408	0.907722	0.134709
41576	-5.669265	-1.031775	-5.275644	0.386063	-0.080925	0.911194	0.118879
41577	-4.261035	0.771080	-6.880979	0.390370	-0.062746	0.912925	0.101205
41578	-4.894217	1.213594	-5.914426	0.397118	-0.045520	0.912471	0.087298
41579	-6.306228	2.337278	-4.146294	0.407552	-0.028541	0.909457	0.077300
41580	-6.349749	1.821973	-5.258114	0.421405	-0.011209	0.904080	0.070224
41581	-5.261507	0.383828	-9.382094	0.435820	0.006844	0.897877	0.061887
41582	-6.838384	2.008188	-8.190036	0.448503	0.024531	0.891797	0.054236
41583	-7.568330	-0.478663	-9.281996	0.460459	0.044061	0.885254	0.048590
41584	-5.385869	-1.651110	-9.989387	0.470979	0.069665	0.878766	0.033112
41585	-4.503954	-0.019399	-11.231282	0.478420	0.100532	0.872321	0.008016
41586	-5.465544	2.749389	-12.045957	0.482178	0.132626	0.865796	-0.017654
41587	-5.202142	3.741649	-11.888842	0.483513	0.162603	0.859334	-0.036338
41588	-3.928826	1.370511	-12.530530	0.481825	0.190968	0.853698	-0.050758
41589	-3.512364	-0.183892	-12.623609	0.476264	0.219834	0.848861	-0.065422
41590	-3.769700	-1.333279	-12.259025	0.466427	0.250734	0.844118	-0.083916
41591	-4.326247	0.319029	-9.979934	0.452856	0.283518	0.838377	-0.107995
41592	-5.263151	3.488346	-8.066065	0.440195	0.315422	0.830016	-0.133460
41593	-5.423608	4.822244	-7.205024	0.431954	0.341070	0.820976	-0.151938
41594	-6.430351	1.087552	-7.627271	0.428208	0.360654	0.812438	-0.162820
41595	-6.090898	-2.029623	-7.702100	0.425141	0.378990	0.803062	-0.175253
41596	-5.990217	-1.626153	-7.978506	0.420300	0.397318	0.792532	-0.193335
41597	-7.513363	0.412253	-6.827871	0.416346	0.412273	0.782325	-0.211318
41598	-7.832022	0.707698	-5.581266	0.415559	0.421500	0.773971	-0.224981
41599	-8.206526	-0.698381	-4.793959	0.418407	0.424338	0.768154	-0.234123
41600	-9.093266	-2.841333	-4.353597	0.423336	0.421450	0.764762	-0.241464
41601	-9.873336	-0.610463	-3.307745	0.430105	0.413758	0.763605	-0.246419
41602	-11.038709	0.736806	-1.926052	0.440360	0.401853	0.764517	-0.245175
41603	-10.383086	-1.942729	-2.893764	0.449717	0.391586	0.764582	-0.244601
41604	-9.508166	-0.361915	-3.024518	0.453722	0.387480	0.762181	-0.251149
41605	-9.632464	2.664698	-2.909140	0.455265	0.386111	0.758955	-0.260075
41606	-9.674357	1.108530	-3.575537	0.457023	0.383984	0.756311	-0.267731
41607	-10.447540	0.510860	-2.888108	0.458728	0.381333	0.754316	-0.274154
41608	-10.699513	-1.348337	-2.621028	0.461139	0.377862	0.752950	-0.278635
41609	-10.370773	-1.738902	-2.211811	0.462257	0.375917	0.751292	-0.283840
41610	-10.074040	-2.323873	-2.731289	0.462544	0.375163	0.749427	-0.289247
41611	-9.428382	-2.504574	-2.663995	0.462286	0.374847	0.747735	-0.294403
41612	-9.020293	-2.941051	-3.859328	0.462704	0.374294	0.746272	-0.298140
41613	-9.259862	-2.633775	-4.536855	0.463348	0.374072	0.744539	-0.301727
41614	-9.014354	-3.127641	-5.102881	0.464268	0.374762	0.741881	-0.305977
41615	-8.651954	-2.883485	-5.591334	0.464807	0.376920	0.737981	-0.311881
41616	-9.461097	-1.168578	-4.899838	0.465919	0.379068	0.733675	-0.317723
41617	-9.776561	-0.674518	-4.345210	0.468222	0.380339	0.729503	-0.322389
41618	-9.368438	-0.550127	-3.877652	0.470682	0.381559	0.725179	-0.327088
41619	-9.021605	-0.709765	-3.365634	0.473318	0.382493	0.720902	-0.331617
41620	-9.030509	-0.956891	-3.355760	0.475972	0.383383	0.716625	-0.336030
41621	-9.161858	-1.411982	-3.313484	0.479279	0.383572	0.712710	-0.339423
41622	-9.128439	-1.607906	-3.832765	0.482674	0.383808	0.708491	-0.343159
41623	-8.932645	-1.013404	-3.326911	0.486577	0.383773	0.704213	-0.346475
41624	-8.874467	-1.597697	-3.137792	0.490814	0.383706	0.699856	-0.349388
41625	-9.208354	-1.873342	-2.734826	0.494721	0.384112	0.695197	-0.352720
41626	-9.441863	-1.422430	-2.615118	0.498464	0.384827	0.690175	-0.356511
41627	-9.480270	-0.948497	-2.460626	0.502264	0.385644	0.685026	-0.360208
41628	-9.344545	-1.231096	-2.253266	0.506115	0.386598	0.679648	-0.363961
41629	-9.256783	-1.496522	-1.917575	0.509508	0.388054	0.674036	-0.368090
41630	-9.159920	-1.603880	-1.721910	0.512651	0.389932	0.668057	-0.372615
41631	-9.212882	-1.056113	-1.613840	0.515480	0.392103	0.661995	-0.377225
41632	-9.294911	-0.663409	-1.513685	0.518506	0.393941	0.656205	-0.381257
41633	-9.230835	-1.119356	-1.137022	0.521617	0.395679	0.650610	-0.384786
41634	-9.226965	-1.717992	-0.881038	0.524071	0.398256	0.644605	-0.388877
41635	-9.516496	-1.515300	-1.109994	0.525724	0.401904	0.637959	-0.393821
41636	-9.883068	-1.037987	-1.469462	0.527202	0.405787	0.631063	-0.398943
41637	-9.243307	-0.701737	-1.441040	0.528562	0.409669	0.624067	-0.404145
41638	-9.096768	-0.919963	-1.348085	0.529885	0.413787	0.616768	-0.409388
41639	-9.259957	-0.800907	-1.193544	0.530880	0.418172	0.609269	-0.414838
41640	-9.356464	-0.167088	-0.690474	0.532367	0.422080	0.602018	-0.419533
41641	-9.471818	-0.744584	-0.178384	0.534413	0.425307	0.595324	-0.423210
41642	-9.708287	-1.049723	0.152443	0.536138	0.429019	0.588540	-0.426754
41643	-9.376678	-0.722114	0.358452	0.538289	0.432357	0.582284	-0.429252
41644	-9.375997	-0.946138	0.196733	0.540960	0.435280	0.576541	-0.430690
41645	-9.600997	-0.662788	-0.206839	0.543746	0.438293	0.570844	-0.431713
41646	-9.726237	-0.676896	-0.472928	0.547080	0.440959	0.565385	-0.431971
41647	-9.581181	-1.007477	-0.459332	0.550790	0.443663	0.559676	-0.431922
41648	-9.433013	-1.092830	0.228425	0.554605	0.446660	0.553722	-0.431625
41649	-9.360879	-0.818308	1.007000	0.558455	0.450093	0.547638	-0.430856
41650	-9.371485	-0.347572	1.487159	0.562438	0.453628	0.541893	-0.429227
41651	-9.457748	-0.336968	1.341883	0.566589	0.457176	0.536443	-0.426844
41652	-9.494665	-0.293049	1.079582	0.570762	0.461049	0.531007	-0.423905
41653	-9.375207	0.422820	1.029990	0.575132	0.464879	0.525814	-0.420275
41654	-9.355098	1.042252	1.153725	0.580042	0.468176	0.521230	-0.415550
41655	-9.465512	0.796574	1.438132	0.585802	0.470683	0.517326	-0.409471
41656	-9.354911	0.441899	2.042890	0.592284	0.472842	0.513958	-0.401831
41657	-9.433329	0.640242	2.624858	0.598949	0.474695	0.511345	-0.393002
41658	-9.095638	2.410749	3.301302	0.605581	0.475807	0.510151	-0.382915
41659	-9.532442	2.679855	4.138958	0.612490	0.475538	0.511151	-0.370736
41660	-10.546797	1.546981	4.517185	0.618346	0.475353	0.513531	-0.357735
41661	-12.216207	-0.509561	4.180127	0.622177	0.476042	0.516357	-0.345913
41662	-12.367612	-1.353765	2.437134	0.622849	0.479118	0.518626	-0.336944
41663	-11.530243	-0.162900	1.192534	0.620311	0.484904	0.520217	-0.330843
41664	-10.765055	1.376043	-0.345048	0.615982	0.491225	0.522350	-0.326211
41665	-10.898022	-1.183472	-0.956441	0.610914	0.496117	0.526522	-0.321601
41666	-10.407789	-5.455322	-2.121358	0.603031	0.503150	0.530386	-0.319193
41667	-10.290376	-7.104350	-3.071712	0.589654	0.515409	0.531827	-0.322214
41668	-9.902758	-4.598274	-3.400267	0.570152	0.533684	0.529482	-0.331295
41669	-9.214730	-1.635918	-3.612471	0.548357	0.553949	0.524769	-0.342143
41670	-8.550593	-0.653452	-2.967346	0.527382	0.572874	0.519088	-0.352464
41671	-8.149876	-0.870373	-2.592291	0.507799	0.590268	0.512329	-0.362276
41672	-8.119495	-1.308597	-3.383801	0.488653	0.607017	0.504197	-0.372200
41673	-8.717069	-0.628094	-2.934218	0.469853	0.623101	0.494787	-0.382321
41674	-8.637429	-0.211841	-2.960199	0.451956	0.637945	0.484725	-0.392178
41675	-8.765793	-0.316065	-2.946921	0.435540	0.651208	0.474424	-0.401441
41676	-9.197882	-0.819278	-3.296457	0.419247	0.663737	0.463338	-0.411100
41677	-9.773495	-0.336550	-3.306329	0.402990	0.675397	0.451531	-0.421376
41678	-9.770308	-0.170361	-3.557106	0.387156	0.685890	0.439342	-0.432021
41679	-9.984218	-0.087782	-3.835025	0.371648	0.695289	0.426669	-0.443175
41680	-10.321560	-0.010649	-3.815679	0.356271	0.703750	0.413328	-0.454936
41681	-10.507878	0.301542	-3.884900	0.341006	0.711104	0.399609	-0.467288
41682	-10.592338	0.968400	-3.841824	0.325947	0.717419	0.385749	-0.479861
41683	-10.727880	1.352805	-3.722033	0.311440	0.722346	0.372213	-0.492623
41684	-11.033227	1.383679	-3.388744	0.297165	0.725839	0.358914	-0.505995
41685	-10.959178	1.509695	-3.278751	0.282647	0.727735	0.345739	-0.520555
41686	-10.947754	2.030044	-2.778306	0.268653	0.727732	0.333065	-0.536003
41687	-10.739278	2.624750	-2.587727	0.256304	0.725620	0.321304	-0.551858
41688	-10.441613	3.249830	-2.467898	0.246904	0.721070	0.311213	-0.567664
41689	-10.223095	3.595492	-2.273806	0.241258	0.713886	0.303411	-0.583184
41690	-10.134329	3.283140	-2.107560	0.239056	0.704247	0.297693	-0.598555
41691	-10.202521	2.616262	-2.042339	0.239018	0.692645	0.293044	-0.614197
41692	-10.159970	2.294728	-2.036575	0.239953	0.679718	0.288405	-0.630260
41693	-10.128450	2.555203	-2.120787	0.241829	0.665770	0.283484	-0.646456
41694	-10.136915	2.566991	-1.906981	0.245831	0.650578	0.279408	-0.662001
41695	-10.206288	1.831972	-1.753412	0.250856	0.634545	0.275314	-0.677219
41696	-9.877641	0.871324	-1.868123	0.255118	0.618395	0.269828	-0.692600
41697	-8.804360	0.103620	-1.943668	0.257724	0.602977	0.262720	-0.707796
41698	-8.479949	-0.084064	-1.691762	0.258736	0.588638	0.254746	-0.722264
41699	-8.377832	0.181099	-1.903277	0.259972	0.575377	0.247653	-0.734863
41700	-9.340705	0.851908	-2.423141	0.261489	0.563037	0.240157	-0.746282
41701	-9.058222	2.082978	-1.608083	0.264365	0.550693	0.233527	-0.756514
41702	-8.687388	2.082101	-1.474415	0.268875	0.538193	0.229430	-0.765125
41703	-8.253828	0.732765	-1.295243	0.273599	0.526422	0.227052	-0.772315
41704	-7.369972	0.304585	-1.170524	0.276148	0.517290	0.223868	-0.778484
41705	-6.746370	0.453716	-0.731625	0.277076	0.511331	0.221098	-0.782870
41706	-7.660867	-0.483635	0.036562	0.276893	0.508547	0.219421	-0.785216
41707	-7.302935	-2.146739	-0.707995	0.272600	0.510924	0.215038	-0.786387
41708	-9.876414	-0.989438	3.374700	0.266051	0.516115	0.209826	-0.786648
41709	-12.574663	-0.623237	4.224131	0.261299	0.519140	0.203989	-0.787785
41710	-10.596363	-0.052569	3.775973	0.251138	0.524230	0.194890	-0.790019
41711	-12.191212	4.905971	5.771238	0.244546	0.528145	0.190094	-0.790648
41712	-12.735868	0.149488	1.681998	0.239863	0.531468	0.189111	-0.790092
41713	-12.269880	1.266213	1.993500	0.233584	0.536204	0.186758	-0.789332
41714	-12.265780	-2.092369	1.522285	0.227028	0.541542	0.186034	-0.787770
41715	-10.020830	-1.061560	1.853482	0.217910	0.548046	0.181861	-0.786821
41716	-8.871459	1.631961	3.979326	0.211951	0.553466	0.181448	-0.784747
41717	-8.413966	-1.735769	3.499523	0.209850	0.557439	0.186256	-0.781367
41718	-8.640822	-2.492872	3.061013	0.207831	0.561341	0.190782	-0.778014
41719	-8.889734	-1.164707	2.943111	0.205993	0.565120	0.195046	-0.774702
41720	-9.339361	-0.270087	2.736622	0.205426	0.568383	0.200973	-0.770942
41721	-9.413910	-0.646866	2.604815	0.205364	0.571531	0.207298	-0.766946
41722	-9.432594	-1.079796	2.378798	0.203850	0.575315	0.211711	-0.763306
41723	-9.336936	-0.974349	2.097593	0.200548	0.579689	0.213826	-0.760276
41724	-9.369131	-1.072934	1.555362	0.196371	0.584155	0.214835	-0.757659
41725	-9.481924	-1.329833	1.163934	0.191949	0.588396	0.215397	-0.755347
41726	-9.506446	-1.310630	1.111083	0.187800	0.592261	0.215952	-0.753208
41727	-9.680641	-1.096970	1.283735	0.184584	0.595628	0.217167	-0.750995
41728	-9.500154	-1.161584	1.557372	0.182358	0.598528	0.219198	-0.748640
41729	-9.537287	-1.386011	1.673653	0.180669	0.601266	0.221505	-0.746173
41730	-9.522213	-1.356068	1.634433	0.179199	0.604017	0.223648	-0.743661
41731	-9.600412	-1.101924	1.803127	0.178540	0.606628	0.226435	-0.740846
41732	-9.587396	-1.293242	1.854620	0.178923	0.609071	0.230180	-0.737588
41733	-9.489755	-1.329415	1.767297	0.180017	0.611462	0.234504	-0.733973
41734	-9.385893	-1.394922	1.491670	0.181552	0.613813	0.239153	-0.730122
41735	-9.481284	-1.436195	1.042978	0.183224	0.616129	0.243773	-0.726215
41736	-9.551155	-1.283586	0.747092	0.184962	0.618345	0.248241	-0.722367
41737	-9.614225	-1.274212	0.610403	0.186924	0.620420	0.252700	-0.718528
41738	-9.585845	-1.309039	0.709244	0.188837	0.622381	0.256965	-0.714809
41739	-9.577279	-1.472906	0.876046	0.190380	0.624358	0.260760	-0.711292
41740	-9.496091	-1.255586	1.052382	0.191267	0.626489	0.263855	-0.708032
41741	-9.610324	-1.134151	1.039028	0.191750	0.628776	0.266577	-0.704847
41742	-9.586962	-1.164453	0.725322	0.192206	0.631015	0.269444	-0.701624
41743	-9.719318	-1.237386	0.350910	0.192691	0.633225	0.272342	-0.698374
