// Start Time: Unknown
// Update Rate: 60.0Hz
// Filter Profile: human (46.1)
// Option Flags: AHS Disabled ICC Disabled 
// Firmware Version: 4.3.5
PacketCounter	Acc_X	Acc_Y	Acc_Z	Quat_q0	Quat_q1	Quat_q2	Quat_q3
40913	0.013239	0.052331	9.817562	0.999784	0.003317	-0.000761	-0.020487
40914	0.002162	0.049182	9.848367	0.999784	0.003312	-0.000767	-0.020486
40915	0.021764	0.067147	9.829383	0.999784	0.003329	-0.000782	-0.020494
40916	0.030893	0.081785	9.841203	0.999784	0.003337	-0.000796	-0.020498
40917	0.010577	0.070342	9.798320	0.999784	0.003320	-0.000784	-0.020509
40918	0.009519	0.068454	9.818942	0.999784	0.003318	-0.000775	-0.020521
40919	0.009205	0.051944	9.838179	0.999784	0.003296	-0.000763	-0.020519
40920	0.008424	0.052009	9.838180	0.999783	0.003297	-0.000766	-0.020532
40921	0.019077	0.039450	9.826613	0.999783	0.003318	-0.000780	-0.020530
40922	0.017091	0.069062	9.829379	0.999784	0.003316	-0.000783	-0.020518
40923	0.005532	0.084446	9.820318	0.999784	0.003325	-0.000792	-0.020518
40924	0.025544	0.085844	9.820580	0.999784	0.003326	-0.000784	-0.020519
40925	0.014963	0.068015	9.849998	0.999783	0.003318	-0.000788	-0.020529
40926	0.015153	0.055521	9.827994	0.999784	0.003310	-0.000782	-0.020528
40927	0.025555	0.042428	9.816438	0.999783	0.003289	-0.000781	-0.020538
40928	0.002542	0.068436	9.839555	0.999783	0.003270	-0.000786	-0.020543
40929	0.002002	0.070316	9.818933	0.999783	0.003253	-0.000778	-0.020537
40930	0.002025	0.053970	9.838172	0.999783	0.003263	-0.000798	-0.020550
40931	0.021682	0.071956	9.819204	0.999783	0.003267	-0.000802	-0.020553
40932	0.010684	0.070827	9.829375	0.999783	0.003271	-0.000811	-0.020561
40933	0.021015	0.056137	9.838443	0.999783	0.003272	-0.000803	-0.020563
40934	0.020349	0.056280	9.838444	0.999783	0.003256	-0.000813	-0.020563
40935	0.019167	0.072859	9.819202	0.999783	0.003247	-0.000812	-0.020565
40936	0.008710	0.056855	9.827994	0.999783	0.003235	-0.000806	-0.020573
40937	0.018236	0.056634	9.838446	0.999783	0.003243	-0.000809	-0.020566
40938	0.028057	0.058585	9.828276	0.999783	0.003252	-0.000812	-0.020559
40939	0.017131	0.059408	9.817822	0.999783	0.003253	-0.000810	-0.020566
40940	0.005960	0.058195	9.827989	0.999783	0.003253	-0.000807	-0.020573
40941	-0.004454	0.042512	9.836777	0.999782	0.003264	-0.000804	-0.020583
40942	0.024651	0.076626	9.809027	0.999783	0.003272	-0.000808	-0.020577
40943	0.013460	0.073571	9.839814	0.999782	0.003278	-0.000815	-0.020587
40944	0.024001	0.060530	9.828275	0.999782	0.003247	-0.000809	-0.020587
40945	0.002179	0.057402	9.848606	0.999782	0.003241	-0.000788	-0.020596
40946	0.022329	0.060622	9.828278	0.999782	0.003241	-0.000803	-0.020599
40947	0.011380	0.059526	9.838439	0.999782	0.003254	-0.000807	-0.020605
40948	0.010893	0.061909	9.817815	0.999782	0.003255	-0.000804	-0.020612
40949	0.020412	0.061702	9.828275	0.999782	0.003250	-0.000803	-0.020606
40950	0.030047	0.061443	9.838737	0.999782	0.003246	-0.000812	-0.020611
40951	-0.001921	0.059054	9.848596	0.999782	0.003244	-0.000787	-0.020605
40952	0.018065	0.062330	9.828276	0.999782	0.003244	-0.000790	-0.020617
40953	0.026909	0.076827	9.840110	0.999782	0.003251	-0.000793	-0.020609
40954	0.006469	0.063602	9.817808	0.999782	0.003263	-0.000784	-0.020615
40955	0.005526	0.062076	9.838429	0.999782	0.003267	-0.000786	-0.020617
40956	0.025433	0.063257	9.838739	0.999782	0.003244	-0.000774	-0.020614
40957	0.015249	0.049365	9.826903	0.999782	0.003262	-0.000782	-0.020616
40958	0.035422	0.050956	9.827214	0.999782	0.003267	-0.000791	-0.020625
40959	0.013330	0.064941	9.828267	0.999782	0.003284	-0.000790	-0.020616
40960	0.023576	0.050084	9.837369	0.999782	0.003252	-0.000783	-0.020616
40961	0.022962	0.052002	9.816748	0.999782	0.003253	-0.000775	-0.020617
40962	0.011208	0.067457	9.807643	0.999782	0.003271	-0.000780	-0.020614
40963	-0.000716	0.081061	9.819157	0.999782	0.003282	-0.000777	-0.020625
40964	0.019855	0.066071	9.838733	0.999781	0.003288	-0.000780	-0.020629
40965	0.009409	0.050188	9.847519	0.999782	0.003274	-0.000767	-0.020629
40966	0.008568	0.050347	9.847519	0.999781	0.003275	-0.000764	-0.020636
40967	0.018403	0.052275	9.837369	0.999782	0.003287	-0.000774	-0.020625
40968	0.018085	0.054381	9.816745	0.999782	0.003263	-0.000779	-0.020616
40969	0.037032	0.068406	9.839060	0.999782	0.003291	-0.000771	-0.020605
40970	0.014813	0.082466	9.840090	0.999782	0.003295	-0.000775	-0.020608
40971	0.014140	0.082706	9.840089	0.999782	0.003285	-0.000772	-0.020610
40972	0.004030	0.068898	9.828248	0.999782	0.003299	-0.000775	-0.020616
40973	0.014722	0.056266	9.816740	0.999782	0.003298	-0.000783	-0.020611
40974	0.023081	0.068668	9.849204	0.999782	0.003291	-0.000760	-0.020615
40975	0.012922	0.054855	9.837363	0.999782	0.003305	-0.000782	-0.020618
40976	0.011793	0.071768	9.818097	0.999782	0.003305	-0.000773	-0.020618
40977	0.010042	0.086484	9.819455	0.999782	0.003292	-0.000754	-0.020612
40978	0.009950	0.072077	9.818096	0.999782	0.003293	-0.000754	-0.020620
40979	0.020305	0.057341	9.827221	0.999782	0.003290	-0.000758	-0.020620
40980	0.019635	0.057582	9.827221	0.999782	0.003291	-0.000755	-0.020628
40981	-0.002531	0.071367	9.828231	0.999781	0.003296	-0.000760	-0.020631
40982	0.017237	0.070953	9.849200	0.999782	0.003303	-0.000760	-0.020618
40983	0.016862	0.073297	9.828574	0.999781	0.003308	-0.000771	-0.020627
40984	0.036762	0.074613	9.828924	0.999782	0.003295	-0.000751	-0.020622
40985	0.015704	0.056964	9.847844	0.999782	0.003278	-0.000743	-0.020616
40986	0.004704	0.057570	9.837355	0.999782	0.003288	-0.000741	-0.020627
40987	0.014426	0.059618	9.827218	0.999785	0.003341	-0.000745	-0.020462
40988	0.002466	0.073121	9.838703	0.999785	0.003347	-0.000749	-0.020465
40989	0.012312	0.075021	9.828567	0.999785	0.003352	-0.000753	-0.020468
40990	0.011635	0.075357	9.828566	0.999784	0.003353	-0.000750	-0.020475
40991	0.001149	0.059331	9.837346	0.999785	0.003331	-0.000737	-0.020473
40992	0.011923	0.048234	9.805239	0.999785	0.003327	-0.000741	-0.020473
40993	0.010942	0.046543	9.825863	0.999785	0.003328	-0.000735	-0.020473
40994	0.009663	0.063177	9.806590	0.999785	0.003314	-0.000740	-0.020469
40995	0.018952	0.061032	9.837710	0.999785	0.003320	-0.000739	-0.020468
40996	0.028861	0.062976	9.827580	0.999785	0.003329	-0.000755	-0.020472
40997	0.026588	0.092573	9.830278	0.999784	0.003340	-0.000746	-0.020478
40998	0.006447	0.060511	9.847834	0.999784	0.003314	-0.000738	-0.020490
40999	-0.004109	0.064558	9.796087	0.999784	0.003292	-0.000726	-0.020488
41000	-0.004858	0.044356	9.856610	0.999785	0.003301	-0.000730	-0.020482
41001	0.036264	0.049146	9.836735	0.999784	0.003325	-0.000744	-0.020482
41002	0.024837	0.064595	9.827581	0.999784	0.003325	-0.000760	-0.020484
41003	0.014966	0.050649	9.815732	0.999784	0.003320	-0.000763	-0.020483
41004	0.002222	0.078425	9.828548	0.999784	0.003316	-0.000766	-0.020483
41005	0.002389	0.064008	9.827201	0.999784	0.003309	-0.000766	-0.020487
41006	0.043921	0.051922	9.826617	0.999785	0.003310	-0.000770	-0.020478
41007	0.011370	0.064252	9.837701	0.999784	0.003329	-0.000779	-0.020481
41008	0.020907	0.064013	9.848205	0.999784	0.003299	-0.000771	-0.020482
41009	-0.001725	0.096060	9.809259	0.999785	0.003328	-0.000764	-0.020472
41010	0.008577	0.081576	9.818417	0.999784	0.003320	-0.000768	-0.020482
41011	0.008186	0.063286	9.858323	0.999784	0.003312	-0.000765	-0.020485
41012	0.030156	0.037513	9.835400	0.999784	0.003324	-0.000768	-0.020481
41013	0.017605	0.067392	9.827578	0.999784	0.003326	-0.000767	-0.020488
41014	0.015300	0.096858	9.830261	0.999784	0.003332	-0.000775	-0.020499
41015	0.005101	0.082966	9.818407	0.999784	0.003330	-0.000749	-0.020492
41016	0.026162	0.053392	9.836745	0.999784	0.003339	-0.000741	-0.020509
41017	0.025612	0.055471	9.816121	0.999784	0.003321	-0.000733	-0.020502
41018	0.003759	0.052324	9.836349	0.999784	0.003305	-0.000719	-0.020514
41019	0.034318	0.055216	9.826638	0.999784	0.003313	-0.000740	-0.020502
41020	0.011791	0.085616	9.808288	0.999784	0.003332	-0.000744	-0.020500
41021	0.012463	0.054911	9.826233	0.999784	0.003322	-0.000736	-0.020508
41022	0.010310	0.067641	9.848198	0.999784	0.003316	-0.000712	-0.020512
41023	0.001403	0.040815	9.814379	0.999784	0.003297	-0.000734	-0.020513
41024	0.019935	0.071472	9.817463	0.999784	0.003327	-0.000735	-0.020515
41025	0.029790	0.073711	9.807351	0.999784	0.003342	-0.000739	-0.020522
41026	-0.002048	0.071235	9.817047	0.999784	0.003326	-0.000739	-0.020523
41027	0.028793	0.057451	9.826643	0.999784	0.003313	-0.000720	-0.020518
41028	0.008078	0.041870	9.824893	0.999784	0.003314	-0.000717	-0.020525
41029	0.015814	0.071059	9.838084	0.999784	0.003330	-0.000714	-0.020526
41030	0.025743	0.073019	9.827978	0.999783	0.003330	-0.000729	-0.020528
41031	0.035780	0.074952	9.817873	0.999783	0.003341	-0.000737	-0.020552
41032	0.015292	0.059415	9.816120	0.999783	0.003323	-0.000731	-0.020545
41033	0.013407	0.072118	9.838080	0.999783	0.003318	-0.000735	-0.020544
41034	0.022173	0.086510	9.849937	0.999783	0.003313	-0.000745	-0.020549
41035	0.002865	0.058348	9.826221	0.999783	0.003314	-0.000737	-0.020550
41036	0.013137	0.043533	9.835413	0.999783	0.003296	-0.000736	-0.020549
41037	0.001321	0.058464	9.826220	0.999783	0.003287	-0.000728	-0.020546
41038	0.010826	0.058445	9.836745	0.999783	0.003303	-0.000738	-0.020560
41039	0.019629	0.073070	9.848602	0.999783	0.003302	-0.000748	-0.020555
41040	0.020061	0.058610	9.847271	0.999783	0.003284	-0.000763	-0.020572
41041	0.008715	0.075678	9.817447	0.999783	0.003298	-0.000755	-0.020566
41042	0.008693	0.061440	9.816115	0.999783	0.003288	-0.000741	-0.020556
41043	0.018306	0.063221	9.806019	0.999783	0.003291	-0.000735	-0.020545
41044	0.006754	0.060136	9.836739	0.999783	0.003295	-0.000739	-0.020548
41045	0.015329	0.074588	9.848599	0.999783	0.003287	-0.000732	-0.020545
41046	0.014934	0.076600	9.827973	0.999783	0.003277	-0.000736	-0.020553
41047	0.024994	0.059972	9.857803	0.999784	0.003275	-0.000734	-0.020535
41048	0.013936	0.060456	9.847270	0.999784	0.003261	-0.000716	-0.020529
41049	0.014418	0.048166	9.825316	0.999784	0.003282	-0.000729	-0.020527
41050	0.012596	0.061145	9.847268	0.999784	0.003262	-0.000721	-0.020518
41051	-0.018256	0.045818	9.834958	0.999784	0.003262	-0.000706	-0.020511
41052	0.000804	0.062055	9.836729	0.999784	0.003278	-0.000715	-0.020512
41053	0.030649	0.079972	9.828412	0.999784	0.003289	-0.000732	-0.020506
41054	0.018698	0.093430	9.839822	0.999784	0.003292	-0.000730	-0.020501
41055	0.020081	0.066444	9.816547	0.999784	0.003282	-0.000727	-0.020502
41056	0.009678	0.050529	9.825310	0.999784	0.003283	-0.000721	-0.020503
41057	0.030174	0.035530	9.845067	0.999784	0.003276	-0.000725	-0.020500
41058	0.007394	0.065705	9.826630	0.999784	0.003289	-0.000721	-0.020499
41059	0.005544	0.078785	9.848576	0.999784	0.003286	-0.000730	-0.020492
41060	0.026891	0.067755	9.827085	0.999784	0.003299	-0.000732	-0.020498
41061	0.004639	0.081659	9.827943	0.999784	0.003314	-0.000730	-0.020499
41062	0.035813	0.068310	9.837626	0.999784	0.003303	-0.000746	-0.020495
41063	0.015948	0.054587	9.815218	0.999784	0.003300	-0.000755	-0.020488
41064	0.003526	0.065978	9.847244	0.999784	0.003299	-0.000747	-0.020487
41065	0.003152	0.068109	9.826616	0.999784	0.003294	-0.000751	-0.020486
41066	0.012753	0.068230	9.837160	0.999785	0.003315	-0.000762	-0.020478
41067	0.043383	0.071308	9.827546	0.999784	0.003291	-0.000767	-0.020491
41068	0.012431	0.053939	9.835842	0.999784	0.003282	-0.000765	-0.020493
41069	-0.020384	0.065911	9.846767	0.999784	0.003280	-0.000762	-0.020498
41070	0.021659	0.056124	9.825762	0.999784	0.003292	-0.000777	-0.020491
41071	0.030601	0.072623	9.817001	0.999784	0.003286	-0.000763	-0.020494
41072	0.019061	0.069325	9.847705	0.999784	0.003274	-0.000780	-0.020490
41073	0.019824	0.056975	9.825761	0.999784	0.003288	-0.000783	-0.020495
41074	0.019103	0.057251	9.825761	0.999785	0.003271	-0.000778	-0.020477
41075	0.026788	0.086273	9.838942	0.999785	0.003279	-0.000786	-0.020475
41076	0.028346	0.059414	9.815686	0.999785	0.003278	-0.000784	-0.020480
41077	-0.014036	0.055250	9.835353	0.999784	0.003271	-0.000787	-0.020489
41078	0.037043	0.059606	9.826242	0.999784	0.003280	-0.000773	-0.020487
41079	0.015286	0.056658	9.846387	0.999785	0.003259	-0.000784	-0.020474
41080	0.013939	0.071523	9.847697	0.999785	0.003279	-0.000800	-0.020471
41081	0.004085	0.057526	9.835829	0.999785	0.003254	-0.000792	-0.020485
41082	0.033701	0.075021	9.827557	0.999785	0.003261	-0.000802	-0.020482
41083	0.002155	0.074323	9.816511	0.999785	0.003248	-0.000790	-0.020482
41084	0.013354	0.045091	9.824447	0.999785	0.003251	-0.000794	-0.020483
41085	-0.008463	0.060463	9.804638	0.999785	0.003236	-0.000798	-0.020478
41086	0.000762	0.058533	9.835823	0.999785	0.003246	-0.000809	-0.020464
41087	0.000127	0.059233	9.835819	0.999785	0.003275	-0.000806	-0.020482
41088	0.009167	0.075710	9.827059	0.999785	0.003250	-0.000823	-0.020485
41089	-0.001045	0.059768	9.835816	0.999785	0.003262	-0.000814	-0.020477
41090	0.028447	0.077496	9.827554	0.999785	0.003253	-0.000813	-0.020479
41091	-0.001571	0.045655	9.834506	0.999785	0.003242	-0.000817	-0.020486
41092	0.017197	0.078152	9.816991	0.999785	0.003244	-0.000838	-0.020482
41093	0.007153	0.062418	9.825746	0.999785	0.003253	-0.000842	-0.020475
41094	0.007144	0.046210	9.845067	0.999785	0.003237	-0.000852	-0.020475
41095	0.016132	0.062593	9.836309	0.999785	0.003247	-0.000848	-0.020485
41096	0.025759	0.064553	9.826247	0.999785	0.003247	-0.000829	-0.020472
41097	0.015505	0.050253	9.814378	0.999785	0.003212	-0.000810	-0.020457
41098	0.002948	0.061324	9.846370	0.999785	0.003211	-0.000826	-0.020458
41099	0.004702	0.034401	9.823133	0.999785	0.003216	-0.000831	-0.020460
41100	0.001893	0.062007	9.846366	0.999785	0.003218	-0.000841	-0.020445
41101	0.031666	0.079816	9.838120	0.999785	0.003225	-0.000849	-0.020442
41102	0.010370	0.079014	9.837605	0.999785	0.003234	-0.000846	-0.020451
41103	0.031144	0.065839	9.836819	0.999786	0.003205	-0.000832	-0.020433
41104	0.009197	0.062695	9.856932	0.999786	0.003205	-0.000825	-0.020433
41105	0.020446	0.052090	9.824946	0.999786	0.003227	-0.000839	-0.020431
41106	0.010740	0.038373	9.813071	0.999786	0.003230	-0.000843	-0.020432
41107	0.007726	0.066060	9.836296	0.999785	0.003319	-0.000795	-0.020459
41108	0.017984	0.069905	9.805613	0.999784	0.003319	-0.000804	-0.020477
41109	0.015906	0.082904	9.827538	0.999785	0.003319	-0.000790	-0.020470
41110	-0.004003	0.050775	9.845046	0.999785	0.003304	-0.000800	-0.020471
41111	0.035785	0.068109	9.847394	0.999785	0.003309	-0.000797	-0.020468
41112	0.015685	0.054455	9.824942	0.999785	0.003310	-0.000791	-0.020469
41113	0.004935	0.055250	9.814362	0.999785	0.003331	-0.000806	-0.020466
41114	0.004916	0.039150	9.833693	0.999785	0.003311	-0.000804	-0.020463
41115	0.024033	0.055197	9.835519	0.999785	0.003319	-0.000813	-0.020461
41116	0.012339	0.070420	9.826232	0.999785	0.003320	-0.000811	-0.020468
41117	0.022210	0.072212	9.816185	0.999784	0.003313	-0.000816	-0.020478
41118	0.011890	0.056410	9.824937	0.999785	0.003326	-0.000807	-0.020471
41119	0.011216	0.056752	9.824935	0.999784	0.003317	-0.000817	-0.020486
41120	0.000117	0.055459	9.834980	0.999784	0.003326	-0.000819	-0.020478
41121	0.009639	0.055442	9.845562	0.999785	0.003315	-0.000824	-0.020463
41122	0.019103	0.073705	9.816180	0.999785	0.003324	-0.000833	-0.020462
41123	0.009014	0.057889	9.824931	0.999785	0.003319	-0.000842	-0.020466
41124	0.008347	0.058136	9.824930	0.999785	0.003319	-0.000835	-0.020466
41125	0.017745	0.058107	9.835515	0.999785	0.003313	-0.000839	-0.020464
41126	0.006845	0.058584	9.824929	0.999785	0.003309	-0.000824	-0.020467
41127	0.016242	0.058557	9.835515	0.999785	0.003308	-0.000835	-0.020462
41128	0.025167	0.074855	9.826765	0.999785	0.003297	-0.000828	-0.020470
41129	0.014962	0.059091	9.835514	0.999785	0.003318	-0.000842	-0.020467
41130	0.024464	0.059240	9.846102	0.999785	0.003308	-0.000835	-0.020463
41131	0.022843	0.073857	9.847391	0.999785	0.003294	-0.000845	-0.020464
41132	0.024662	0.046690	9.824188	0.999785	0.003288	-0.000850	-0.020462
41133	0.002314	0.060075	9.824922	0.999785	0.003279	-0.000842	-0.020459
41134	0.002035	0.062075	9.804293	0.999785	0.003274	-0.000846	-0.020457
41135	-0.000478	0.073343	9.846833	0.999785	0.003292	-0.000844	-0.020447
41136	0.021468	0.064360	9.804845	0.999785	0.003300	-0.000859	-0.020452
41137	0.029563	0.077130	9.837352	0.999785	0.003295	-0.000852	-0.020438
41138	0.019208	0.061127	9.846102	0.999785	0.003286	-0.000849	-0.020441
41139	0.008868	0.063449	9.814878	0.999785	0.003286	-0.000852	-0.020452
41140	0.029390	0.048716	9.834786	0.999785	0.003289	-0.000850	-0.020447
41141	0.017583	0.063778	9.825473	0.999785	0.003280	-0.000848	-0.020449
41142	0.006808	0.064317	9.814874	0.999785	0.003288	-0.000851	-0.020442
41143	0.016252	0.064344	9.825471	0.999785	0.003279	-0.000847	-0.020444
41144	0.004605	0.079577	9.816152	0.999785	0.003302	-0.000862	-0.020442
41145	0.025071	0.064885	9.836068	0.999785	0.003288	-0.000844	-0.020437
41146	-0.005506	0.049540	9.823614	0.999785	0.003302	-0.000852	-0.020448
41147	0.013610	0.065922	9.825465	0.999785	0.003307	-0.000856	-0.020451
41148	0.024541	0.053242	9.814158	0.999785	0.003302	-0.000860	-0.020450
41149	0.003267	0.052184	9.813581	0.999785	0.003307	-0.000865	-0.020452
41150	0.021992	0.066576	9.836064	0.999785	0.003305	-0.000881	-0.020452
41151	0.011443	0.067155	9.825459	0.999785	0.003310	-0.000889	-0.020461
41152	0.012650	0.038052	9.822905	0.999785	0.003277	-0.000871	-0.020447
41153	0.010376	0.050878	9.844812	0.999785	0.003291	-0.000874	-0.020452
41154	0.020788	0.036549	9.854140	0.999785	0.003295	-0.000871	-0.020449
41155	0.008673	0.068114	9.825455	0.999785	0.003297	-0.000893	-0.020445
41156	0.008238	0.068420	9.825454	0.999785	0.003295	-0.000897	-0.020432
41157	-0.002874	0.067052	9.835474	0.999785	0.003291	-0.000907	-0.020438
41158	0.008139	0.054189	9.824178	0.999785	0.003276	-0.000911	-0.020432
41159	0.016577	0.068757	9.836060	0.999785	0.003287	-0.000908	-0.020443
41160	0.016269	0.070672	9.815431	0.999785	0.003254	-0.000900	-0.020440
41161	0.025187	0.068651	9.846671	0.999786	0.003262	-0.000904	-0.020432
41162	0.005678	0.056740	9.803547	0.999785	0.003257	-0.000890	-0.020436
41163	0.014574	0.055008	9.834786	0.999785	0.003265	-0.000899	-0.020433
41164	0.013959	0.055425	9.834784	0.999786	0.003269	-0.000897	-0.020429
41165	0.013243	0.055575	9.834785	0.999786	0.003251	-0.000895	-0.020428
41166	0.010884	0.086730	9.816698	0.999786	0.003260	-0.000882	-0.020425
41167	0.022152	0.057488	9.824771	0.999786	0.003232	-0.000879	-0.020420
41168	0.012420	0.042994	9.812886	0.999786	0.003213	-0.000883	-0.020424
41169	0.020897	0.057575	9.824773	0.999786	0.003226	-0.000886	-0.020429
41170	0.020332	0.058126	9.824771	0.999786	0.003239	-0.000895	-0.020418
41171	0.019235	0.056712	9.845399	0.999786	0.003241	-0.000893	-0.020426
41172	0.007471	0.071749	9.836049	0.999786	0.003235	-0.000898	-0.020424
41173	0.018392	0.058983	9.824770	0.999786	0.003230	-0.000896	-0.020416
41174	0.018107	0.060926	9.804141	0.999786	0.003219	-0.000890	-0.020425
41175	0.026217	0.057162	9.856021	0.999786	0.003215	-0.000864	-0.020416
41176	0.015945	0.059762	9.824769	0.999786	0.003244	-0.000892	-0.020405
41177	0.014535	0.074918	9.826032	0.999786	0.003245	-0.000895	-0.020418
41178	0.013861	0.075263	9.826031	0.999786	0.003248	-0.000891	-0.020413
41179	0.023270	0.075389	9.836652	0.999786	0.003250	-0.000894	-0.020426
41180	0.014493	0.046704	9.823499	0.999786	0.003240	-0.000886	-0.020421
41181	0.002191	0.059709	9.834769	0.999786	0.003225	-0.000890	-0.020416
41182	0.013193	0.046725	9.823501	0.999786	0.003206	-0.000893	-0.020420
41183	0.022615	0.046662	9.834126	0.999786	0.003210	-0.000891	-0.020416
41184	0.020011	0.076332	9.836652	0.999786	0.003232	-0.000905	-0.020414
41185	0.019502	0.076923	9.836648	0.999786	0.003241	-0.000910	-0.020407
41186	0.018837	0.077242	9.836647	0.999786	0.003235	-0.000908	-0.020399
41187	0.018671	0.079315	9.816017	0.999786	0.003237	-0.000912	-0.020412
41188	0.007473	0.077891	9.826017	0.999786	0.003225	-0.000916	-0.020430
41189	0.030538	0.035833	9.822863	0.999786	0.003228	-0.000915	-0.020426
41190	-0.012642	0.047922	9.822862	0.999786	0.003228	-0.000903	-0.020420
41191	0.016451	0.064091	9.835382	0.999786	0.003240	-0.000923	-0.020420
41192	0.005816	0.064722	9.824749	0.999786	0.003241	-0.000914	-0.020420
41193	0.036442	0.068124	9.815384	0.999786	0.003250	-0.000929	-0.020424
41194	0.003453	0.061680	9.866005	0.999786	0.003233	-0.000911	-0.020429
41195	0.035811	0.053780	9.814131	0.999786	0.003221	-0.000902	-0.020436
41196	0.014035	0.050745	9.834122	0.999786	0.003222	-0.000917	-0.020425
41197	0.022635	0.065340	9.846014	0.999785	0.003214	-0.000925	-0.020440
41198	0.002343	0.067812	9.804112	0.999786	0.003217	-0.000916	-0.020429
41199	0.021825	0.067598	9.825384	0.999786	0.003202	-0.000927	-0.020429
41200	0.032166	0.052858	9.834767	0.999786	0.003189	-0.000908	-0.020423
41201	0.000714	0.052018	9.823483	0.999786	0.003212	-0.000923	-0.020422
41202	0.021340	0.055579	9.803499	0.999786	0.003193	-0.000923	-0.020421
41203	0.030694	0.055532	9.814139	0.999786	0.003197	-0.000922	-0.020417
41204	0.019434	0.054296	9.824128	0.999786	0.003202	-0.000926	-0.020419
41205	0.017666	0.069230	9.825381	0.999786	0.003205	-0.000917	-0.020409
41206	0.018571	0.056772	9.803498	0.999786	0.003200	-0.000927	-0.020413
41207	0.016801	0.053297	9.844758	0.999786	0.003190	-0.000914	-0.020403
41208	0.016556	0.055387	9.824128	0.999786	0.003199	-0.000917	-0.020395
41209	0.026534	0.057392	9.814140	0.999786	0.003201	-0.000921	-0.020408
41210	0.015218	0.055986	9.824126	0.999786	0.003192	-0.000913	-0.020406
41211	0.013568	0.070771	9.825377	0.999786	0.003194	-0.000928	-0.020395
41212	0.003474	0.054824	9.834110	0.999786	0.003185	-0.000926	-0.020397
41213	0.034066	0.058034	9.824788	0.999787	0.003179	-0.000929	-0.020395
41214	0.022868	0.056641	9.834772	0.999787	0.003178	-0.000933	-0.020384
41215	0.032692	0.058575	9.824789	0.999787	0.003183	-0.000922	-0.020369
41216	0.000883	0.056009	9.834104	0.999787	0.003200	-0.000947	-0.020365
41217	0.021137	0.057978	9.834768	0.999786	0.003208	-0.000948	-0.020392
41218	0.030407	0.058067	9.845417	0.999787	0.003198	-0.000936	-0.020382
41219	0.030119	0.060114	9.824788	0.999787	0.003204	-0.000933	-0.020379
41220	-0.001918	0.057388	9.834096	0.999787	0.003204	-0.000925	-0.020379
41221	0.016896	0.073727	9.836012	0.999787	0.003208	-0.000923	-0.020375
41222	0.017281	0.059519	9.834766	0.999787	0.003208	-0.000927	-0.020386
41223	0.016616	0.059805	9.834766	0.999787	0.003206	-0.000925	-0.020368
41224	0.028070	0.048566	9.802917	0.999787	0.003167	-0.000917	-0.020388
41225	0.005603	0.043499	9.843500	0.999787	0.003176	-0.000919	-0.020380
41226	0.004638	0.060420	9.824111	0.999786	0.003194	-0.000939	-0.020394
41227	0.024836	0.062400	9.824789	0.999787	0.003231	-0.000709	-0.020387
41228	0.025286	0.048231	9.823546	0.999787	0.003237	-0.000713	-0.020390
41229	0.034615	0.048307	9.834204	0.999787	0.003227	-0.000705	-0.020385
41230	-0.008041	0.062052	9.813445	0.999787	0.003237	-0.000695	-0.020389
41231	0.010419	0.076787	9.835998	0.999787	0.003249	-0.000716	-0.020389
41232	0.022605	0.049727	9.823545	0.999787	0.003249	-0.000709	-0.020388
41233	0.031818	0.049732	9.834206	0.999787	0.003236	-0.000700	-0.020394
41234	0.009322	0.062941	9.834756	0.999787	0.003230	-0.000699	-0.020386
41235	0.007529	0.077780	9.835993	0.999787	0.003234	-0.000698	-0.020382
41236	0.019560	0.050676	9.823547	0.999787	0.003239	-0.000695	-0.020379
41237	0.006074	0.078536	9.835988	0.999787	0.003244	-0.000693	-0.020376
41238	0.028158	0.051174	9.834210	0.999787	0.003239	-0.000691	-0.020368
41239	0.016200	0.066162	9.824782	0.999787	0.003242	-0.000677	-0.020386
41240	0.005877	0.050376	9.833511	0.999787	0.003249	-0.000680	-0.020377
41241	0.026494	0.053965	9.813580	0.999787	0.003244	-0.000684	-0.020376
41242	0.034902	0.068726	9.825480	0.999787	0.003256	-0.000694	-0.020363
41243	0.013069	0.065819	9.845407	0.999787	0.003251	-0.000692	-0.020356
41244	0.022967	0.067606	9.835444	0.999787	0.003243	-0.000690	-0.020360
41245	0.001594	0.066378	9.834737	0.999787	0.003247	-0.000689	-0.020355
41246	0.021522	0.068072	9.835444	0.999787	0.003234	-0.000687	-0.020367
41247	0.031057	0.068218	9.846113	0.999787	0.003246	-0.000706	-0.020367
41248	-0.000287	0.067116	9.834732	0.999788	0.003226	-0.000687	-0.020347
41249	0.020861	0.054045	9.834213	0.999787	0.003217	-0.000712	-0.020356
41250	0.009363	0.068904	9.824772	0.999787	0.003212	-0.000715	-0.020355
41251	0.019765	0.054446	9.834213	0.999787	0.003213	-0.000709	-0.020355
41252	-0.002222	0.069510	9.814097	0.999788	0.003203	-0.000702	-0.020351
41253	0.017071	0.069325	9.835444	0.999787	0.003195	-0.000700	-0.020354
41254	0.036588	0.069098	9.856793	0.999787	0.003181	-0.000715	-0.020361
41255	0.027579	0.056603	9.824260	0.999787	0.003178	-0.000698	-0.020365
41256	0.025807	0.071639	9.825488	0.999787	0.003199	-0.000712	-0.020362
41257	0.014460	0.070378	9.835441	0.999787	0.003187	-0.000693	-0.020357
41258	0.034170	0.071909	9.836166	0.999787	0.003174	-0.000685	-0.020363
41259	0.012046	0.068571	9.856074	0.999788	0.003151	-0.000673	-0.020359
41260	0.003549	0.057750	9.802907	0.999788	0.003148	-0.000676	-0.020360
41261	0.013525	0.041596	9.832988	0.999788	0.003157	-0.000685	-0.020358
41262	0.022545	0.058258	9.824263	0.999788	0.003165	-0.000695	-0.020356
41263	0.011908	0.058820	9.813581	0.999788	0.003169	-0.000694	-0.020352
41264	0.021268	0.058968	9.824261	0.999788	0.003164	-0.000698	-0.020350
41265	0.019942	0.057369	9.844892	0.999787	0.003158	-0.000688	-0.020371
41266	0.010308	0.043038	9.832985	0.999787	0.003141	-0.000693	-0.020364
41267	0.016857	0.070291	9.866749	0.999787	0.003132	-0.000691	-0.020366
41268	0.019676	0.045038	9.823039	0.999787	0.003140	-0.000699	-0.020364
41269	0.026927	0.074377	9.836170	0.999788	0.003139	-0.000704	-0.020352
41270	0.006725	0.058598	9.834206	0.999788	0.003140	-0.000702	-0.020359
41271	0.006107	0.058953	9.834205	0.999787	0.003145	-0.000711	-0.020367
41272	0.015065	0.075581	9.825480	0.999788	0.003154	-0.000714	-0.020359
41273	0.015562	0.061414	9.824257	0.999787	0.003155	-0.000716	-0.020371
41274	0.014226	0.059853	9.844887	0.999787	0.003145	-0.000707	-0.020367
41275	-0.007690	0.074816	9.824730	0.999788	0.003139	-0.000705	-0.020358
41276	0.022132	0.076512	9.836166	0.999787	0.003146	-0.000690	-0.020367
41277	0.013508	0.047930	9.823036	0.999787	0.003151	-0.000688	-0.020363
41278	0.041985	0.080736	9.816283	0.999787	0.003170	-0.000701	-0.020372
41279	0.031179	0.063143	9.845634	0.999787	0.003160	-0.000689	-0.020362
41280	0.002007	0.032589	9.831754	0.999788	0.003135	-0.000692	-0.020351
41281	-0.000943	0.061756	9.834189	0.999788	0.003135	-0.000684	-0.020351
41282	-0.011511	0.062338	9.823492	0.999788	0.003151	-0.000704	-0.020341
41283	0.028315	0.080593	9.826219	0.999788	0.003170	-0.000718	-0.020349
41284	0.027126	0.079216	9.846848	0.999788	0.003161	-0.000715	-0.020351
41285	0.008539	0.050328	9.823029	0.999788	0.003138	-0.000700	-0.020348
41286	0.006650	0.064903	9.824245	0.999788	0.003134	-0.000704	-0.020346
41287	-0.004547	0.063676	9.834176	0.999788	0.003154	-0.000713	-0.020350
41288	0.036562	0.050908	9.855119	0.999788	0.003155	-0.000703	-0.020351
41289	0.004581	0.065984	9.824239	0.999788	0.003143	-0.000694	-0.020357
41290	0.014359	0.049730	9.854355	0.999787	0.003144	-0.000698	-0.020370
41291	0.004373	0.051934	9.823024	0.999787	0.003144	-0.000701	-0.020381
41292	0.013209	0.068495	9.814304	0.999787	0.003148	-0.000699	-0.020376
41293	0.023733	0.054253	9.823792	0.999787	0.003158	-0.000708	-0.020376
41294	0.033233	0.054609	9.834492	0.999787	0.003168	-0.000718	-0.020375
41295	0.021708	0.069651	9.824999	0.999787	0.003167	-0.000739	-0.020382
41296	0.011655	0.053608	9.833717	0.999787	0.003155	-0.000730	-0.020388
41297	-0.001070	0.066670	9.844854	0.999787	0.003154	-0.000711	-0.020375
41298	0.011780	0.041269	9.811877	0.999787	0.003155	-0.000726	-0.020377
41299	0.030085	0.055945	9.834494	0.999787	0.003159	-0.000723	-0.020373
41300	0.027123	0.085536	9.836908	0.999787	0.003173	-0.000727	-0.020379
41301	0.007990	0.055085	9.833713	0.999787	0.003150	-0.000713	-0.020375
41302	0.016660	0.071508	9.824995	0.999787	0.003163	-0.000710	-0.020373
41303	0.016554	0.055425	9.844419	0.999788	0.003141	-0.000721	-0.020359
41304	0.026655	0.057322	9.834496	0.999787	0.003155	-0.000724	-0.020365
41305	0.026047	0.057650	9.834496	0.999788	0.003143	-0.000729	-0.020349
41306	0.004751	0.056348	9.833708	0.999788	0.003151	-0.000727	-0.020334
41307	0.024342	0.074685	9.815068	0.999788	0.003160	-0.000741	-0.020338
41308	0.000739	0.084494	9.856741	0.999788	0.003154	-0.000745	-0.020336
41309	0.023788	0.076902	9.794437	0.999788	0.003141	-0.000736	-0.020342
41310	0.004343	0.028292	9.831297	0.999788	0.003138	-0.000717	-0.020340
41311	0.022009	0.059355	9.834496	0.999788	0.003152	-0.000736	-0.020342
41312	0.012618	0.045389	9.822579	0.999788	0.003161	-0.000728	-0.020322
41313	0.011343	0.044092	9.843209	0.999788	0.003170	-0.000742	-0.020327
41314	-0.001629	0.073641	9.834893	0.999788	0.003167	-0.000728	-0.020331
41315	0.009289	0.061053	9.823776	0.999788	0.003172	-0.000720	-0.020321
41316	0.028600	0.061200	9.845207	0.999788	0.003171	-0.000730	-0.020316
41317	0.007591	0.077917	9.804341	0.999788	0.003166	-0.000734	-0.020315
41318	0.018453	0.047219	9.833292	0.999788	0.003166	-0.000721	-0.020309
41319	0.007639	0.047515	9.822574	0.999788	0.003158	-0.000718	-0.020311
41320	0.015902	0.062412	9.834489	0.999788	0.003180	-0.000732	-0.020309
41321	0.037882	0.051529	9.813469	0.999788	0.003162	-0.000736	-0.020314
41322	0.003544	0.077507	9.824963	0.999788	0.003163	-0.000728	-0.020314
41323	0.003250	0.061549	9.844396	0.999788	0.003167	-0.000726	-0.020310
41324	0.023952	0.065276	9.824576	0.999788	0.003171	-0.000734	-0.020317
41325	0.023287	0.065533	9.824576	0.999788	0.003162	-0.000726	-0.020313
41326	0.021954	0.063818	9.845208	0.999788	0.003144	-0.000737	-0.020324
41327	0.011149	0.063976	9.834485	0.999788	0.003139	-0.000712	-0.020315
41328	0.000278	0.064322	9.823759	0.999788	0.003141	-0.000715	-0.020328
41329	0.010812	0.050084	9.833290	0.999788	0.003149	-0.000718	-0.020320
41330	0.051065	0.069781	9.815493	0.999789	0.003132	-0.000729	-0.020297
41331	0.018657	0.064856	9.845208	0.999789	0.003129	-0.000744	-0.020308
41332	0.018734	0.066863	9.824576	0.999789	0.003130	-0.000736	-0.020309
41333	0.007240	0.065402	9.834479	0.999789	0.003121	-0.000728	-0.020305
41334	0.016236	0.081868	9.825767	0.999789	0.003124	-0.000754	-0.020307
41335	0.008756	0.054877	9.792024	0.999789	0.003121	-0.000739	-0.020311
41336	0.038018	0.054829	9.824213	0.999789	0.003111	-0.000756	-0.020309
41337	0.005039	0.066441	9.834474	0.999788	0.003126	-0.000758	-0.020315
41338	0.005014	0.068435	9.813842	0.999789	0.003108	-0.000751	-0.020308
41339	0.026073	0.055547	9.813485	0.999789	0.003103	-0.000749	-0.020300
41340	0.023580	0.068783	9.835303	0.999789	0.003122	-0.000759	-0.020303
41341	0.021724	0.083690	9.836490	0.999789	0.003109	-0.000751	-0.020310
41342	0.003388	0.054834	9.812649	0.999789	0.003105	-0.000750	-0.020303
41343	0.012264	0.071357	9.803937	0.999789	0.003110	-0.000760	-0.020311
41344	0.001527	0.053688	9.833276	0.999789	0.003104	-0.000763	-0.020308
41345	0.020470	0.070258	9.835300	0.999788	0.003119	-0.000777	-0.020326
41346	0.009070	0.068863	9.845194	0.999788	0.003103	-0.000758	-0.020331
41347	0.019226	0.054383	9.854746	0.999789	0.003132	-0.000709	-0.020305
41348	0.025425	0.099989	9.848407	0.999788	0.003129	-0.000699	-0.020315
41349	0.008302	0.056664	9.823377	0.999789	0.003124	-0.000698	-0.020308
41350	0.018258	0.058631	9.813485	0.999789	0.003129	-0.000695	-0.020304
41351	0.006757	0.057194	9.823375	0.999789	0.003119	-0.000681	-0.020294
41352	0.025428	0.073525	9.825409	0.999789	0.003116	-0.000684	-0.020293
41353	0.003567	0.070694	9.845185	0.999789	0.003145	-0.000698	-0.020305
41354	0.004869	0.058335	9.823370	0.999789	0.003133	-0.000690	-0.020278
41355	0.035420	0.061737	9.814337	0.999789	0.003125	-0.000688	-0.020281
41356	0.016358	0.031215	9.811121	0.999789	0.003126	-0.000674	-0.020275
41357	0.021275	0.073374	9.846036	0.999789	0.003125	-0.000683	-0.020269
41358	-0.007346	0.042966	9.832072	0.999789	0.003123	-0.000697	-0.020269
41359	0.022220	0.061107	9.824224	0.999790	0.003121	-0.000696	-0.020250
41360	0.021453	0.061260	9.824225	0.999790	0.003108	-0.000687	-0.020257
41361	0.000003	0.059608	9.823363	0.999790	0.003090	-0.000681	-0.020250
41362	0.018040	0.074359	9.846035	0.999790	0.003108	-0.000690	-0.020251
41363	0.007529	0.074869	9.835284	0.999790	0.003107	-0.000693	-0.020239
41364	0.019245	0.045822	9.843679	0.999790	0.003089	-0.000692	-0.020238
41365	0.019382	0.047656	9.823049	0.999790	0.003086	-0.000702	-0.020231
41366	-0.004443	0.075330	9.824532	0.999790	0.003082	-0.000682	-0.020242
41367	0.006045	0.061092	9.834104	0.999790	0.003094	-0.000703	-0.020241
41368	0.026119	0.063170	9.834975	0.999790	0.003095	-0.000694	-0.020242
41369	0.015556	0.063604	9.824221	0.999790	0.003105	-0.000709	-0.020247
41370	0.024957	0.063771	9.834974	0.999790	0.003086	-0.000708	-0.020245
41371	0.012184	0.076615	9.846027	0.999790	0.003074	-0.000689	-0.020240
41372	-0.007379	0.062311	9.823344	0.999790	0.003075	-0.000685	-0.020246
41373	0.003860	0.049676	9.812293	0.999790	0.003067	-0.000689	-0.020255
41374	0.012040	0.064363	9.824221	0.999790	0.003064	-0.000697	-0.020260
41375	0.020047	0.079168	9.836149	0.999790	0.003067	-0.000684	-0.020244
41376	0.008577	0.077823	9.846021	0.999790	0.003069	-0.000688	-0.020256
41377	-0.000768	0.063761	9.834089	0.999790	0.003083	-0.000690	-0.020261
41378	0.039293	0.083743	9.816400	0.999790	0.003077	-0.000682	-0.020247
41379	0.008375	0.065986	9.824214	0.999790	0.003069	-0.000674	-0.020244
41380	0.018890	0.051507	9.833805	0.999790	0.003058	-0.000684	-0.020235
41381	0.017113	0.066393	9.834973	0.999790	0.003073	-0.000687	-0.020241
41382	0.006678	0.066760	9.824210	0.999790	0.003063	-0.000702	-0.020238
41383	0.015800	0.083650	9.815505	0.999790	0.003108	-0.000720	-0.020238
41384	0.027630	0.055086	9.823930	0.999790	0.003090	-0.000713	-0.020231
41385	-0.005724	0.066064	9.834072	0.999790	0.003059	-0.000706	-0.020231
41386	0.004324	0.067696	9.824205	0.999790	0.003054	-0.000716	-0.020235
41387	0.025695	0.055064	9.823935	0.999790	0.003052	-0.000727	-0.020229
41388	0.032550	0.084538	9.837031	0.999790	0.003065	-0.000725	-0.020241
41389	0.002549	0.068688	9.824199	0.999790	0.003061	-0.000729	-0.020240
41390	0.021824	0.068821	9.845730	0.999791	0.003055	-0.000733	-0.020216
41391	0.011992	0.070882	9.814332	0.999790	0.003066	-0.000732	-0.020226
41392	0.031448	0.054660	9.855334	0.999791	0.003035	-0.000714	-0.020214
41393	0.011641	0.056602	9.813168	0.999791	0.003058	-0.000728	-0.020212
41394	0.011022	0.057093	9.813166	0.999791	0.003055	-0.000720	-0.020223
41395	0.021001	0.058982	9.803304	0.999790	0.003047	-0.000724	-0.020232
41396	0.019576	0.057432	9.823936	0.999791	0.003042	-0.000722	-0.020224
41397	0.018444	0.073988	9.804466	0.999791	0.003048	-0.000725	-0.020227
41398	0.007490	0.056377	9.833793	0.999791	0.003049	-0.000717	-0.020227
41399	0.005597	0.071026	9.834954	0.999791	0.003028	-0.000726	-0.020213
41400	0.026811	0.058333	9.834708	0.999791	0.003035	-0.000718	-0.020227
41401	0.016048	0.058587	9.823935	0.999790	0.003023	-0.000711	-0.020234
41402	0.027280	0.045997	9.812919	0.999791	0.003031	-0.000714	-0.020226
41403	0.013414	0.073782	9.825093	0.999790	0.003033	-0.000712	-0.020232
41404	0.002883	0.074087	9.814315	0.999791	0.003031	-0.000723	-0.020226
41405	0.011060	0.089003	9.826247	0.999791	0.003040	-0.000733	-0.020224
41406	0.023602	0.061871	9.814077	0.999790	0.003029	-0.000725	-0.020232
41407	0.012687	0.062008	9.803300	0.999791	0.003026	-0.000700	-0.020225
41408	0.001463	0.044115	9.832626	0.999791	0.003009	-0.000693	-0.020219
41409	0.009409	0.058917	9.844561	0.999791	0.003023	-0.000695	-0.020224
41410	0.020271	0.063049	9.814077	0.999791	0.003052	-0.000698	-0.020224
41411	0.038278	0.078226	9.836790	0.999790	0.003057	-0.000706	-0.020232
41412	0.016989	0.076780	9.835858	0.999791	0.003048	-0.000698	-0.020228
41413	0.026879	0.078476	9.826011	0.999791	0.003025	-0.000691	-0.020231
41414	0.028472	0.049326	9.823707	0.999791	0.003012	-0.000672	-0.020225
41415	-0.003745	0.046113	9.832616	0.999791	0.003017	-0.000670	-0.020221
41416	0.026783	0.066436	9.804228	0.999791	0.003048	-0.000708	-0.020224
41417	0.013831	0.078397	9.835850	0.999791	0.003071	-0.000721	-0.020222
41418	0.023836	0.080170	9.826005	0.999791	0.003025	-0.000704	-0.020215
41419	0.014628	0.049041	9.833552	0.999791	0.003010	-0.000686	-0.020220
41420	0.002746	0.063611	9.823917	0.999791	0.002999	-0.000703	-0.020217
41421	0.003067	0.065461	9.803285	0.999791	0.002994	-0.000705	-0.020215
41422	0.032716	0.067371	9.815020	0.999791	0.002987	-0.000682	-0.020217
41423	0.020144	0.064086	9.845493	0.999791	0.002978	-0.000668	-0.020207
41424	0.021457	0.051461	9.823713	0.999792	0.002979	-0.000672	-0.020184
41425	0.021558	0.053355	9.803084	0.999792	0.002966	-0.000664	-0.020191
41426	0.008034	0.064777	9.834701	0.999791	0.002979	-0.000667	-0.020208
41427	0.018024	0.066780	9.824862	0.999791	0.002967	-0.000659	-0.020215
41428	0.006643	0.065327	9.834699	0.999791	0.002976	-0.000668	-0.020214
41429	0.015939	0.065644	9.845491	0.999791	0.002969	-0.000667	-0.020217
41430	0.006251	0.067527	9.814066	0.999791	0.002967	-0.000676	-0.020211
41431	0.025343	0.067693	9.835656	0.999791	0.002952	-0.000663	-0.020222
41432	0.004548	0.067854	9.814064	0.999792	0.002959	-0.000643	-0.020189
41433	0.014790	0.053564	9.823715	0.999792	0.002945	-0.000636	-0.020195
41434	0.004624	0.037587	9.832401	0.999791	0.002957	-0.000640	-0.020212
41435	0.001441	0.067175	9.834688	0.999791	0.002966	-0.000643	-0.020204
41436	0.022668	0.054858	9.834510	0.999791	0.002978	-0.000639	-0.020214
41437	0.019382	0.084211	9.836796	0.999791	0.002964	-0.000637	-0.020203
41438	0.007945	0.082653	9.846626	0.999791	0.002964	-0.000636	-0.020209
41439	0.020633	0.055579	9.834510	0.999791	0.002963	-0.000646	-0.020203
41440	0.019971	0.055875	9.834510	0.999791	0.002964	-0.000638	-0.020204
41441	0.018778	0.072695	9.815019	0.999791	0.002993	-0.000641	-0.020204
41442	0.018165	0.073125	9.815017	0.999791	0.002979	-0.000646	-0.020199
41443	0.008080	0.056893	9.823704	0.999791	0.002969	-0.000644	-0.020213
41444	0.017142	0.057107	9.834508	0.999791	0.002970	-0.000630	-0.020208
41445	0.016245	0.057512	9.834507	0.999791	0.002980	-0.000621	-0.020211
41446	0.036193	0.059597	9.835489	0.999791	0.002973	-0.000631	-0.020226
41447	0.003665	0.072673	9.824836	0.999791	0.002984	-0.000615	-0.020224
41448	0.004176	0.058605	9.823696	0.999791	0.002993	-0.000618	-0.020217
41449	0.014184	0.060716	9.813872	0.999791	0.002995	-0.000611	-0.020218
41450	0.013578	0.061016	9.813871	0.999791	0.002994	-0.000627	-0.020218
41451	0.022465	0.077464	9.805186	0.999791	0.002983	-0.000624	-0.020231
41452	0.031638	0.077602	9.815997	0.999791	0.002976	-0.000622	-0.020235
41453	0.012915	0.046904	9.812736	0.999791	0.002971	-0.000620	-0.020228
41454	-0.001076	0.074501	9.824823	0.999791	0.002970	-0.000625	-0.020216
41455	0.028872	0.076652	9.836627	0.999791	0.002977	-0.000634	-0.020225
41456	0.009834	0.062777	9.813865	0.999791	0.003018	-0.000637	-0.020218
41457	0.008363	0.061621	9.834492	0.999791	0.002999	-0.000641	-0.020222
41458	0.007603	0.061648	9.834492	0.999791	0.002990	-0.000628	-0.020213
41459	0.016710	0.061949	9.845306	0.999791	0.002996	-0.000632	-0.020216
41460	0.017824	0.065516	9.804046	0.999791	0.002983	-0.000637	-0.020211
41461	0.016708	0.047771	9.844176	0.999791	0.002984	-0.000628	-0.020212
41462	0.014562	0.062630	9.845306	0.999791	0.002985	-0.000620	-0.020212
41463	0.004656	0.064600	9.813857	0.999791	0.002990	-0.000607	-0.020196
41464	0.003107	0.063669	9.834482	0.999791	0.003033	-0.000620	-0.020202
41465	0.044581	0.069440	9.815866	0.999791	0.003015	-0.000613	-0.020196
41466	0.000862	0.062546	9.855109	0.999791	0.003008	-0.000612	-0.020199
41467	0.022891	0.051588	9.834363	0.999790	0.003034	-0.000678	-0.020237
41468	0.012412	0.051835	9.823541	0.999790	0.003043	-0.000692	-0.020241
41469	0.020521	0.066916	9.835487	0.999790	0.003052	-0.000702	-0.020239
41470	0.021862	0.054584	9.813730	0.999790	0.003069	-0.000676	-0.020239
41471	0.019605	0.069304	9.814856	0.999790	0.003042	-0.000675	-0.020235
41472	0.017967	0.067788	9.835486	0.999790	0.003056	-0.000666	-0.020229
41473	-0.004240	0.064581	9.855095	0.999790	0.003039	-0.000670	-0.020234
41474	-0.003904	0.066301	9.834464	0.999790	0.003031	-0.000680	-0.020249
41475	0.015291	0.066474	9.856116	0.999790	0.003014	-0.000683	-0.020254
41476	0.026775	0.053677	9.845191	0.999790	0.003004	-0.000687	-0.020239
41477	0.016303	0.053948	9.834364	0.999790	0.003020	-0.000690	-0.020246
41478	0.024991	0.070684	9.825682	0.999790	0.003022	-0.000682	-0.020247
41479	0.014465	0.070915	9.814853	0.999790	0.003020	-0.000693	-0.020241
41480	0.023355	0.053210	9.865821	0.999790	0.003003	-0.000697	-0.020246
41481	0.014542	0.056744	9.813732	0.999790	0.003017	-0.000688	-0.020240
41482	0.014217	0.040784	9.833241	0.999790	0.002999	-0.000686	-0.020239
41483	0.022925	0.057230	9.824563	0.999790	0.003005	-0.000684	-0.020236
41484	0.011458	0.055751	9.834360	0.999790	0.002998	-0.000683	-0.020239
41485	0.020220	0.072236	9.825682	0.999791	0.002996	-0.000687	-0.020228
41486	0.020839	0.057985	9.824563	0.999791	0.002998	-0.000679	-0.020228
41487	0.010203	0.058263	9.813728	0.999791	0.003003	-0.000678	-0.020225
41488	0.018057	0.073308	9.825678	0.999791	0.003012	-0.000682	-0.020217
41489	0.018900	0.059109	9.824560	0.999791	0.003009	-0.000697	-0.020228
41490	0.029157	0.061164	9.814766	0.999791	0.003015	-0.000700	-0.020231
41491	0.019182	0.045413	9.823442	0.999790	0.003034	-0.000709	-0.020234
41492	-0.005622	0.071416	9.845255	0.999790	0.003027	-0.000707	-0.020237
41493	0.017806	0.045939	9.823442	0.999790	0.003019	-0.000699	-0.020234
41494	0.026447	0.062481	9.814765	0.999791	0.003025	-0.000695	-0.020231
41495	-0.005639	0.059302	9.823505	0.999791	0.003032	-0.000693	-0.020229
41496	0.012957	0.076099	9.825665	0.999791	0.003041	-0.000697	-0.020221
41497	0.003735	0.061731	9.813712	0.999791	0.003030	-0.000689	-0.020229
41498	0.022824	0.062268	9.835392	0.999790	0.003049	-0.000703	-0.020237
41499	0.021936	0.078952	9.815871	0.999790	0.003051	-0.000712	-0.020233
41500	0.001059	0.061081	9.834335	0.999790	0.003037	-0.000698	-0.020233
41501	0.022308	0.048534	9.834282	0.999791	0.003036	-0.000708	-0.020227
41502	0.009200	0.077971	9.825655	0.999790	0.003052	-0.000711	-0.020234
41503	0.010324	0.047589	9.844066	0.999790	0.003044	-0.000709	-0.020237
41504	0.029836	0.065797	9.825604	0.999790	0.003040	-0.000715	-0.020236
41505	0.018469	0.064321	9.835388	0.999790	0.003043	-0.000719	-0.020249
41506	-0.001499	0.048166	9.833218	0.999790	0.003034	-0.000712	-0.020246
41507	0.026774	0.064766	9.846236	0.999790	0.003025	-0.000705	-0.020242
41508	0.006431	0.064747	9.824541	0.999790	0.003021	-0.000714	-0.020247
41509	0.005833	0.064954	9.824540	0.999790	0.003017	-0.000714	-0.020240
41510	0.005784	0.049005	9.844062	0.999790	0.003018	-0.000736	-0.020247
41511	0.004299	0.081670	9.805013	0.999790	0.003014	-0.000723	-0.020251
41512	0.025003	0.051415	9.845132	0.999790	0.003018	-0.000726	-0.020265
41513	0.004738	0.051231	9.823431	0.999790	0.002987	-0.000731	-0.020242
41514	0.014754	0.052949	9.813654	0.999790	0.002985	-0.000717	-0.020247
41515	0.002331	0.049997	9.844059	0.999790	0.003005	-0.000724	-0.020249
41516	0.001384	0.066732	9.824530	0.999790	0.003010	-0.000734	-0.020258
41517	0.032206	0.070684	9.815829	0.999790	0.003010	-0.000739	-0.020247
41518	0.009836	0.067491	9.835379	0.999790	0.003015	-0.000718	-0.020260
41519	0.009996	0.069333	9.814750	0.999790	0.003001	-0.000728	-0.020261
41520	0.020439	0.055055	9.824504	0.999790	0.003003	-0.000709	-0.020250
41521	0.000486	0.039041	9.822320	0.999790	0.003013	-0.000726	-0.020255
41522	0.008774	0.072022	9.794115	0.999790	0.003024	-0.000712	-0.020253
41523	0.015827	0.069340	9.846228	0.999790	0.003035	-0.000703	-0.020258
41524	0.015606	0.087502	9.806067	0.999790	0.003029	-0.000707	-0.020268
41525	0.025106	0.071520	9.836458	0.999790	0.003016	-0.000693	-0.020268
41526	0.015716	0.057043	9.824502	0.999790	0.003018	-0.000679	-0.020264
41527	0.024934	0.057590	9.835361	0.999790	0.003032	-0.000701	-0.020264
41528	0.002525	0.070386	9.835364	0.999790	0.003001	-0.000705	-0.020276
41529	-0.007902	0.070478	9.824500	0.999790	0.003024	-0.000708	-0.020262
41530	0.032628	0.074786	9.826689	0.999790	0.003028	-0.000705	-0.020258
41531	0.013699	0.060311	9.803867	0.999790	0.003026	-0.000709	-0.020258
41532	0.009649	0.071662	9.846220	0.999790	0.003011	-0.000695	-0.020269
41533	0.021823	0.060637	9.814733	0.999790	0.003007	-0.000682	-0.020272
41534	-0.001575	0.055750	9.854888	0.999790	0.003007	-0.000675	-0.020272
41535	0.020288	0.060959	9.814735	0.999790	0.002980	-0.000685	-0.020279
41536	0.017517	0.073986	9.836456	0.999790	0.002990	-0.000702	-0.020284
41537	0.030032	0.063316	9.804972	0.999790	0.002998	-0.000695	-0.020264
41538	0.006430	0.074564	9.825585	0.999790	0.002984	-0.000706	-0.020266
41539	0.027405	0.078107	9.806066	0.999790	0.002972	-0.000705	-0.020256
41540	0.016244	0.060187	9.835364	0.999790	0.002960	-0.000693	-0.020258
41541	0.006085	0.044105	9.844031	0.999790	0.002966	-0.000696	-0.020260
41542	0.014436	0.076898	9.815825	0.999790	0.002961	-0.000700	-0.020259
41543	0.034583	0.062827	9.836478	0.999790	0.002959	-0.000675	-0.020252
41544	0.003390	0.061158	9.824489	0.999790	0.002970	-0.000690	-0.020257
41545	0.023266	0.063382	9.825605	0.999790	0.002964	-0.000672	-0.020266
41546	0.011661	0.061706	9.835361	0.999790	0.002950	-0.000677	-0.020261
41547	0.020932	0.062083	9.846235	0.999790	0.002960	-0.000687	-0.020260
41548	0.010450	0.062317	9.835358	0.999790	0.002959	-0.000678	-0.020271
41549	0.019166	0.079025	9.826691	0.999790	0.002973	-0.000688	-0.020261
41550	0.018568	0.079266	9.826690	0.999790	0.002955	-0.000686	-0.020259
41551	0.009671	0.048237	9.834271	0.999790	0.002926	-0.000663	-0.020265
41552	0.006095	0.077414	9.836444	0.999790	0.002935	-0.000677	-0.020270
41553	0.008841	0.066611	9.794099	0.999790	0.002941	-0.000669	-0.020282
41554	0.028107	0.051035	9.835400	0.999790	0.002937	-0.000668	-0.020275
41555	0.004410	0.062196	9.855981	0.999790	0.002929	-0.000667	-0.020278
41556	0.005550	0.065683	9.814724	0.999790	0.002930	-0.000653	-0.020273
41557	0.024383	0.066319	9.836486	0.999790	0.002936	-0.000655	-0.020275
41558	0.022150	0.080983	9.837570	0.999790	0.002913	-0.000638	-0.020266
41559	0.034015	0.052176	9.846288	0.999790	0.002919	-0.000647	-0.020274
41560	-0.006743	0.050413	9.823380	0.999790	0.002928	-0.000651	-0.020267
41561	0.020624	0.066047	9.857111	0.999790	0.002957	-0.000653	-0.020267
41562	0.013493	0.055175	9.803887	0.999791	0.002955	-0.000647	-0.020243
41563	0.009327	0.066650	9.846223	0.999790	0.002946	-0.000646	-0.020245
41564	0.031563	0.055888	9.825660	0.999790	0.002949	-0.000637	-0.020247
41565	0.019996	0.054339	9.835402	0.999790	0.002942	-0.000636	-0.020250
41566	0.020383	0.056339	9.814773	0.999790	0.002958	-0.000644	-0.020263
41567	0.016040	0.084238	9.837554	0.999790	0.002958	-0.000655	-0.020258
41568	0.019231	0.057022	9.814771	0.999790	0.002953	-0.000647	-0.020245
41569	0.010145	0.042594	9.802805	0.999790	0.002956	-0.000651	-0.020258
41570	0.027542	0.057666	9.825662	0.999790	0.002947	-0.000639	-0.020248
41571	0.014603	0.070691	9.836475	0.999790	0.002953	-0.000649	-0.020257
41572	0.013990	0.071095	9.836472	0.999790	0.002959	-0.000648	-0.020254
41573	0.024129	0.073177	9.826736	0.999790	0.002954	-0.000652	-0.020252
41574	0.004248	0.056901	9.824503	0.999790	0.002948	-0.000645	-0.020273
41575	0.015709	0.044306	9.813696	0.999790	0.002940	-0.000644	-0.020276
41576	0.012602	0.057653	9.835395	0.999790	0.002964	-0.000648	-0.020263
41577	0.010559	0.072660	9.836465	0.999790	0.002960	-0.000653	-0.020261
41578	0.034046	0.063844	9.795300	0.999790	0.002988	-0.000662	-0.020267
41579	0.010230	0.075174	9.815832	0.999790	0.002966	-0.000644	-0.020258
41580	0.001423	0.044432	9.823422	0.999790	0.002971	-0.000642	-0.020255
41581	0.007616	0.074035	9.836458	0.999790	0.002972	-0.000640	-0.020260
41582	0.050483	0.065241	9.817101	0.999790	0.002965	-0.000633	-0.020258
41583	0.020672	0.048643	9.803964	0.999790	0.002952	-0.000621	-0.020271
41584	0.006870	0.059834	9.835388	0.999790	0.002944	-0.000649	-0.020282
41585	-0.003386	0.059756	9.824487	0.999790	0.002932	-0.000642	-0.020254
41586	0.014245	0.075045	9.847355	0.999790	0.002956	-0.000669	-0.020264
41587	0.016663	0.046779	9.845216	0.999791	0.003016	-0.000694	-0.020202
41588	0.046969	0.067173	9.817106	0.999791	0.003010	-0.000698	-0.020213
41589	0.013732	0.061810	9.846282	0.999791	0.002988	-0.000680	-0.020204
41590	0.014239	0.047452	9.845216	0.999791	0.003000	-0.000671	-0.020208
41591	0.023871	0.065585	9.815932	0.999792	0.002979	-0.000671	-0.020183
41592	0.004078	0.049321	9.813683	0.999791	0.002994	-0.000674	-0.020189
41593	0.022497	0.066153	9.815931	0.999791	0.002984	-0.000667	-0.020197
41594	0.001367	0.064404	9.814745	0.999791	0.002986	-0.000690	-0.020192
41595	0.020315	0.065067	9.836558	0.999791	0.002984	-0.000676	-0.020197
41596	0.031387	0.068794	9.806211	0.999791	0.002990	-0.000679	-0.020199
41597	0.021623	0.036412	9.834434	0.999791	0.002966	-0.000661	-0.020202
41598	0.028766	0.067378	9.826842	0.999791	0.002971	-0.000669	-0.020209
41599	0.018603	0.067688	9.815929	0.999791	0.002984	-0.000689	-0.020209
41600	0.005887	0.080950	9.826703	0.999791	0.002994	-0.000692	-0.020202
41601	0.035537	0.083310	9.838809	0.999791	0.002977	-0.000686	-0.020196
41602	0.016008	0.050679	9.856122	0.999791	0.002969	-0.000679	-0.020193
41603	-0.004248	0.050542	9.834296	0.999791	0.002971	-0.000682	-0.020206
41604	0.016726	0.054401	9.814867	0.999791	0.002967	-0.000679	-0.020199
41605	0.025844	0.054794	9.825782	0.999791	0.002963	-0.000683	-0.020197
41606	0.022721	0.068131	9.847465	0.999791	0.002979	-0.000686	-0.020204
41607	-0.007235	0.067738	9.814720	0.999791	0.002953	-0.000685	-0.020200
41608	0.022471	0.069958	9.826840	0.999791	0.002956	-0.000690	-0.020213
41609	0.012505	0.053968	9.835493	0.999791	0.002959	-0.000695	-0.020226
41610	0.043402	0.058302	9.826988	0.999791	0.002983	-0.000709	-0.020225
41611	0.000202	0.069429	9.825625	0.999791	0.002987	-0.000708	-0.020220
41612	0.031360	0.057383	9.836697	0.999791	0.002984	-0.000712	-0.020220
41613	0.000305	0.055363	9.824568	0.999791	0.002976	-0.000705	-0.020217
41614	0.008000	0.070307	9.836539	0.999791	0.002976	-0.000721	-0.020218
41615	0.011455	0.043182	9.813805	0.999791	0.002981	-0.000720	-0.020214
41616	0.027249	0.073137	9.837749	0.999791	0.002996	-0.000711	-0.020208
41617	0.008598	0.058543	9.814854	0.999791	0.002988	-0.000727	-0.020206
41618	0.029950	0.046176	9.815020	0.999791	0.002986	-0.000709	-0.020205
41619	0.004622	0.072140	9.836528	0.999791	0.003008	-0.000724	-0.020202
41620	0.027081	0.061606	9.816070	0.999791	0.002995	-0.000712	-0.020202
41621	0.014009	0.074602	9.826822	0.999791	0.003005	-0.000715	-0.020195
41622	0.024113	0.076799	9.817118	0.999791	0.003006	-0.000708	-0.020196
41623	0.035863	0.064446	9.806367	0.999791	0.003014	-0.000730	-0.020217
41624	0.013669	0.061092	9.825769	0.999791	0.003002	-0.000724	-0.020189
41625	0.013481	0.045236	9.845348	0.999791	0.003012	-0.000739	-0.020193
41626	0.023407	0.063522	9.816067	0.999791	0.003009	-0.000743	-0.020192
41627	0.022749	0.063826	9.816067	0.999791	0.003014	-0.000742	-0.020189
41628	0.008636	0.075329	9.847435	0.999791	0.003016	-0.000740	-0.020196
41629	0.011971	0.048086	9.824719	0.999791	0.003008	-0.000741	-0.020198
41630	-0.000887	0.061034	9.835459	0.999791	0.003008	-0.000756	-0.020199
41631	0.009581	0.046973	9.845344	0.999791	0.003006	-0.000731	-0.020192
41632	0.006915	0.077927	9.826803	0.999791	0.003011	-0.000747	-0.020184
41633	0.007918	0.063679	9.825759	0.999792	0.003006	-0.000751	-0.020182
41634	0.027728	0.065931	9.826996	0.999791	0.003005	-0.000738	-0.020187
41635	0.007458	0.065824	9.805130	0.999791	0.003011	-0.000741	-0.020190
41636	0.026299	0.066435	9.826997	0.999791	0.002994	-0.000740	-0.020190
41637	0.025764	0.066588	9.826997	0.999792	0.002996	-0.000754	-0.020179
41638	0.024237	0.065391	9.847622	0.999791	0.003002	-0.000764	-0.020187
41639	-0.006994	0.079683	9.815854	0.999791	0.003010	-0.000773	-0.020197
41640	0.023952	0.067490	9.826996	0.999792	0.002983	-0.000743	-0.020186
41641	0.024654	0.052759	9.825960	0.999792	0.002960	-0.000759	-0.020189
41642	0.000536	0.080013	9.826789	0.999791	0.002976	-0.000756	-0.020189
41643	0.012666	0.051607	9.835647	0.999792	0.002974	-0.000766	-0.020183
41644	0.011776	0.067984	9.816058	0.999791	0.002971	-0.000778	-0.020188
41645	-0.000646	0.064810	9.846370	0.999791	0.002967	-0.000788	-0.020193
41646	0.010988	0.052226	9.835646	0.999791	0.002955	-0.000776	-0.020194
41647	0.021112	0.054276	9.825960	0.999791	0.002962	-0.000785	-0.020203
41648	0.008226	0.067247	9.836681	0.999792	0.002951	-0.000790	-0.020187
41649	0.019792	0.070944	9.806368	0.999791	0.002962	-0.000816	-0.020204
41650	0.008975	0.053440	9.835641	0.999792	0.002965	-0.000820	-0.020182
41651	0.019219	0.055530	9.825956	0.999792	0.002961	-0.000824	-0.020181
41652	0.018513	0.055670	9.825957	0.999791	0.002952	-0.000815	-0.020190
41653	0.017696	0.055766	9.825958	0.999792	0.002944	-0.000808	-0.020187
41654	-0.013058	0.053937	9.813750	0.999791	0.002967	-0.000840	-0.020202
41655	0.005615	0.071046	9.816042	0.999792	0.002967	-0.000837	-0.020185
41656	0.025937	0.057353	9.836898	0.999792	0.002976	-0.000841	-0.020177
41657	0.015211	0.073314	9.806359	0.999791	0.002945	-0.000848	-0.020189
41658	0.005191	0.056876	9.815008	0.999792	0.002938	-0.000840	-0.020186
41659	0.013262	0.055883	9.846579	0.999791	0.002952	-0.000863	-0.020187
41660	0.010893	0.087017	9.828012	0.999791	0.002957	-0.000867	-0.020189
41661	0.011801	0.072924	9.826979	0.999792	0.002969	-0.000869	-0.020183
41662	0.031771	0.075328	9.828249	0.999792	0.002965	-0.000873	-0.020182
41663	0.021580	0.058938	9.836899	0.999792	0.002937	-0.000850	-0.020188
41664	-0.006834	0.043647	9.803022	0.999791	0.002935	-0.000866	-0.020200
41665	0.001289	0.042539	9.834597	0.999791	0.002931	-0.000870	-0.020199
41666	0.029319	0.076186	9.828250	0.999791	0.002975	-0.000899	-0.020187
41667	0.031514	0.063878	9.806594	0.999791	0.002968	-0.000890	-0.020184
41668	0.006170	0.089512	9.827993	0.999791	0.002968	-0.000906	-0.020185
41669	0.008627	0.060661	9.825941	0.999792	0.002960	-0.000898	-0.020182
41670	-0.003331	0.075113	9.816012	0.999792	0.002956	-0.000902	-0.020180
41671	0.029357	0.048746	9.826197	0.999791	0.002969	-0.000898	-0.020192
41672	0.027065	0.063382	9.827222	0.999791	0.002938	-0.000893	-0.020192
41673	0.016534	0.063129	9.816269	0.999791	0.002940	-0.000886	-0.020193
41674	0.013156	0.076327	9.837918	0.999791	0.002932	-0.000891	-0.020201
41675	0.015170	0.063512	9.816269	0.999791	0.002924	-0.000889	-0.020204
41676	0.025420	0.065682	9.806600	0.999791	0.002938	-0.000898	-0.020192
41677	0.022250	0.079158	9.828245	0.999791	0.002949	-0.000908	-0.020192
41678	0.013506	0.064913	9.816262	0.999791	0.002964	-0.000911	-0.020197
41679	0.014283	0.050546	9.815242	0.999792	0.002935	-0.000898	-0.020181
41680	0.010445	0.079774	9.817282	0.999791	0.002951	-0.000902	-0.020187
41681	0.022008	0.067394	9.806596	0.999792	0.002941	-0.000881	-0.020184
41682	0.029820	0.066223	9.838184	0.999791	0.002940	-0.000890	-0.020190
41683	0.012923	0.037052	9.814222	0.999791	0.002956	-0.000893	-0.020196
41684	0.017851	0.065258	9.847844	0.999791	0.002955	-0.000902	-0.020190
41685	0.018502	0.067211	9.827217	0.999791	0.002965	-0.000911	-0.020188
41686	0.007208	0.065804	9.836877	0.999792	0.002969	-0.000925	-0.020179
41687	-0.004606	0.080515	9.826926	0.999791	0.002983	-0.000922	-0.020191
41688	0.026568	0.068528	9.838177	0.999792	0.002958	-0.000927	-0.020181
41689	0.017810	0.053944	9.826197	0.999791	0.002974	-0.000930	-0.020188
41690	0.005887	0.068609	9.816245	0.999792	0.002970	-0.000929	-0.020181
41691	0.006676	0.054243	9.815230	0.999792	0.002961	-0.000924	-0.020177
41692	0.007413	0.039841	9.814216	0.999792	0.002953	-0.000916	-0.020174
41693	0.033973	0.071690	9.828519	0.999791	0.002974	-0.000929	-0.020182
41694	0.003200	0.069763	9.816238	0.999791	0.002970	-0.000934	-0.020181
41695	0.031457	0.087393	9.829525	0.999791	0.003019	-0.000954	-0.020184
41696	0.022634	0.073090	9.817543	0.999791	0.002993	-0.000935	-0.020185
41697	0.021832	0.072962	9.817546	0.999791	0.002977	-0.000940	-0.020191
41698	0.022938	0.042081	9.836154	0.999791	0.002938	-0.000916	-0.020193
41699	-0.016042	0.008613	9.831497	0.999791	0.002930	-0.000909	-0.020190
41700	0.010211	0.056640	9.826193	0.999791	0.002957	-0.000933	-0.020190
41701	0.028818	0.073914	9.828519	0.999791	0.002964	-0.000938	-0.020193
41702	0.015765	0.087244	9.839175	0.999791	0.002994	-0.000940	-0.020193
41703	0.023225	0.102560	9.851153	0.999791	0.002986	-0.000938	-0.020196
41704	0.007544	0.058355	9.826185	0.999791	0.002959	-0.000909	-0.020185
41705	-0.002774	0.041705	9.834829	0.999792	0.002928	-0.000904	-0.020184
41706	0.007555	0.043734	9.825180	0.999791	0.002948	-0.000925	-0.020199
41707	0.005537	0.058821	9.826184	0.999792	0.002959	-0.000841	-0.020161
41708	0.013053	0.074079	9.838164	0.999792	0.002968	-0.000845	-0.020153
41709	0.015352	0.061625	9.816532	0.999792	0.002982	-0.000865	-0.020153
41710	0.011718	0.091070	9.818538	0.999792	0.002977	-0.000863	-0.020145
41711	0.012804	0.076800	9.817533	0.999792	0.002979	-0.000883	-0.020152
41712	0.012444	0.060757	9.837155	0.999792	0.002952	-0.000854	-0.020142
41713	0.013091	0.046284	9.836153	0.999792	0.002956	-0.000859	-0.020155
41714	0.013504	0.048037	9.815529	0.999792	0.002944	-0.000845	-0.020156
41715	0.022483	0.048601	9.826510	0.999792	0.002953	-0.000854	-0.020154
41716	0.008012	0.076306	9.838152	0.999792	0.002963	-0.000869	-0.020158
41717	0.029658	0.064306	9.838491	0.999792	0.002965	-0.000874	-0.020148
41718	0.010149	0.047694	9.836149	0.999792	0.002941	-0.000887	-0.020145
41719	-0.001588	0.061989	9.826166	0.999792	0.002942	-0.000896	-0.020141
41720	0.018315	0.064502	9.827508	0.999793	0.002949	-0.000890	-0.020120
41721	0.016302	0.063213	9.848132	0.999793	0.002938	-0.000882	-0.020127
41722	0.039031	0.052693	9.827857	0.999793	0.002951	-0.000898	-0.020121
41723	0.017924	0.050898	9.826508	0.999793	0.002944	-0.000896	-0.020124
41724	0.004814	0.063758	9.837142	0.999793	0.002940	-0.000899	-0.020123
41725	0.015032	0.065883	9.827505	0.999793	0.002941	-0.000896	-0.020129
41726	0.024119	0.066372	9.838493	0.999793	0.002929	-0.000906	-0.020131
41727	0.015208	0.051671	9.826509	0.999793	0.002928	-0.000881	-0.020124
41728	0.003437	0.050238	9.836141	0.999793	0.002943	-0.000885	-0.020130
41729	0.033868	0.070795	9.808234	0.999792	0.002946	-0.000889	-0.020143
41730	0.012932	0.052801	9.826506	0.999793	0.002937	-0.000876	-0.020133
41731	0.019110	0.066299	9.859115	0.999793	0.002938	-0.000884	-0.020128
41732	0.008487	0.082540	9.828489	0.999793	0.002957	-0.000889	-0.020124
41733	0.020241	0.070264	9.817864	0.999793	0.002949	-0.000882	-0.020121
41734	0.008591	0.068615	9.827494	0.999792	0.002949	-0.000879	-0.020139
41735	0.006494	0.083629	9.828482	0.999793	0.002970	-0.000900	-0.020119
41736	0.009243	0.055097	9.826497	0.999793	0.002974	-0.000903	-0.020132
41737	0.038262	0.073843	9.819227	0.999793	0.002961	-0.000882	-0.020126
41738	0.006164	0.070129	9.827485	0.999793	0.002976	-0.000902	-0.020127
41739	-0.005220	0.068761	9.837108	0.999793	0.002981	-0.000900	-0.020123
41740	0.016286	0.056617	9.837490	0.999793	0.002968	-0.000904	-0.020118
41741	0.015310	0.072830	9.817854	0.999793	0.002966	-0.000908	-0.020106
41742	0.017976	0.044061	9.815879	0.999793	0.002966	-0.000918	-0.020101
41743	0.005162	0.040942	9.846126	0.999793	0.002964	-0.000905	-0.020105
