// Start Time: Unknown
// Update Rate: 60.0Hz
// Filter Profile: human (46.1)
// Option Flags: AHS Disabled ICC Disabled 
// Firmware Version: 4.3.5
PacketCounter	Acc_X	Acc_Y	Acc_Z	Quat_q0	Quat_q1	Quat_q2	Quat_q3
34999	-5.283963	0.491471	8.196327	0.959140	0.026234	0.281707	0.001668
35000	-5.237002	0.511902	8.215795	0.959153	0.026238	0.281664	0.001673
35001	-5.262844	0.467075	8.203968	0.959165	0.026215	0.281623	0.001672
35002	-5.275650	0.482856	8.205449	0.959163	0.026192	0.281635	0.001664
35003	-5.284800	0.489462	8.195908	0.959168	0.026147	0.281620	0.001672
35004	-5.263486	0.495562	8.158182	0.959175	0.026109	0.281599	0.001655
35005	-5.281691	0.513977	8.214311	0.959190	0.026046	0.281555	0.001642
35006	-5.276385	0.477973	8.205262	0.959208	0.025959	0.281503	0.001625
35007	-5.277050	0.465505	8.174465	0.959222	0.025876	0.281463	0.001591
35008	-5.254776	0.517226	8.197563	0.959241	0.025818	0.281402	0.001570
35009	-5.248612	0.491758	8.219527	0.959255	0.025742	0.281364	0.001520
35010	-5.268330	0.488211	8.213779	0.959271	0.025644	0.281317	0.001447
35011	-5.275669	0.467836	8.206307	0.959283	0.025538	0.281287	0.001369
35012	-5.287654	0.445969	8.178741	0.959301	0.025438	0.281235	0.001306
35013	-5.301155	0.418559	8.194850	0.959321	0.025354	0.281175	0.001260
35014	-5.248683	0.403155	8.205353	0.959339	0.025302	0.281118	0.001242
35015	-5.262363	0.443903	8.205563	0.959346	0.025282	0.281095	0.001233
35016	-5.282443	0.441888	8.199488	0.959351	0.025260	0.281080	0.001235
35017	-5.260632	0.392086	8.208266	0.959349	0.025242	0.281089	0.001238
35018	-5.271080	0.491311	8.181436	0.959351	0.025240	0.281083	0.001232
35019	-5.256028	0.434182	8.213448	0.959343	0.025206	0.281113	0.001237
35020	-5.273492	0.458655	8.225407	0.959337	0.025159	0.281138	0.001254
35021	-5.256806	0.473690	8.198147	0.959331	0.025103	0.281161	0.001253
35022	-5.286009	0.478694	8.182532	0.959332	0.025065	0.281162	0.001266
35023	-5.284802	0.463139	8.214616	0.959323	0.025041	0.281194	0.001286
35024	-5.267892	0.412051	8.203114	0.959326	0.025037	0.281184	0.001307
35025	-5.267802	0.422371	8.233705	0.959319	0.025042	0.281207	0.001323
35026	-5.279433	0.511144	8.175633	0.959313	0.024999	0.281232	0.001370
35027	-5.279010	0.520430	8.206508	0.959331	0.024927	0.281179	0.001381
35028	-5.279974	0.477121	8.220888	0.959350	0.024844	0.281118	0.001367
35029	-5.259458	0.441288	8.197586	0.959362	0.024799	0.281084	0.001364
35030	-5.270818	0.477942	8.261124	0.959358	0.024799	0.281096	0.001366
35031	-5.272753	0.467128	8.229368	0.959343	0.024787	0.281148	0.001362
35032	-5.284623	0.489168	8.186792	0.959338	0.024800	0.281166	0.001353
35033	-5.261698	0.481372	8.181352	0.959337	0.024795	0.281169	0.001342
35034	-5.264866	0.464547	8.193496	0.959340	0.024784	0.281161	0.001319
35035	-5.262441	0.480183	8.180944	0.959353	0.024764	0.281118	0.001280
35036	-5.262834	0.448377	8.226147	0.959366	0.024761	0.281074	0.001251
35037	-5.262096	0.422728	8.227364	0.959353	0.024768	0.281116	0.001227
35038	-5.260995	0.372155	8.229520	0.959333	0.024798	0.281184	0.001219
35039	-5.274898	0.420392	8.184854	0.959305	0.024862	0.281273	0.001232
35040	-5.278998	0.471812	8.180718	0.959299	0.024907	0.281288	0.001241
35041	-5.282453	0.455657	8.192641	0.959295	0.024900	0.281305	0.001252
35042	-5.267364	0.465700	8.209043	0.959294	0.024893	0.281308	0.001259
35043	-5.260238	0.447495	8.186783	0.959290	0.024893	0.281320	0.001262
35044	-5.262176	0.405747	8.200426	0.959292	0.024902	0.281315	0.001270
35045	-5.269374	0.465160	8.207783	0.959289	0.024900	0.281322	0.001281
35046	-5.294288	0.461943	8.181381	0.959296	0.024891	0.281300	0.001287
35047	-5.254608	0.463827	8.193470	0.959316	0.024825	0.281237	0.001282
35048	-5.282012	0.478756	8.209544	0.959329	0.024749	0.281200	0.001283
35049	-5.265427	0.452099	8.197118	0.959344	0.024713	0.281152	0.001276
35050	-5.300013	0.449891	8.205547	0.959363	0.024681	0.281091	0.001282
35051	-5.256075	0.442997	8.206922	0.959381	0.024655	0.281032	0.001272
35052	-5.272992	0.457272	8.188678	0.959394	0.024636	0.280990	0.001284
35053	-5.257011	0.467190	8.205674	0.959407	0.024630	0.280946	0.001274
35054	-5.252347	0.468067	8.225845	0.959416	0.024597	0.280918	0.001277
35055	-5.247118	0.432815	8.216525	0.959427	0.024554	0.280882	0.001254
35056	-5.266972	0.429959	8.210577	0.959437	0.024482	0.280856	0.001236
35057	-5.255781	0.437463	8.207408	0.959451	0.024444	0.280811	0.001216
35058	-5.274727	0.445495	8.232600	0.959464	0.024407	0.280771	0.001221
35059	-5.262807	0.417774	8.199980	0.959476	0.024371	0.280732	0.001226
35060	-5.274706	0.443941	8.232698	0.959483	0.024363	0.280709	0.001212
35061	-5.265209	0.410865	8.243198	0.959480	0.024360	0.280718	0.001227
35062	-5.241801	0.434692	8.192665	0.959473	0.024392	0.280739	0.001251
35063	-5.261899	0.444353	8.217034	0.959463	0.024445	0.280769	0.001264
35064	-5.279074	0.434700	8.199242	0.959445	0.024480	0.280829	0.001308
35065	-5.254696	0.480045	8.210467	0.959437	0.024537	0.280851	0.001325
35066	-5.260589	0.479053	8.189502	0.959420	0.024552	0.280908	0.001338
35067	-5.247255	0.447811	8.219630	0.959413	0.024558	0.280929	0.001336
35068	-5.276566	0.453525	8.203813	0.959408	0.024547	0.280948	0.001334
35069	-5.264925	0.436671	8.201587	0.959403	0.024535	0.280967	0.001333
35070	-5.247327	0.462829	8.205530	0.959402	0.024512	0.280972	0.001331
35071	-5.279812	0.441489	8.171204	0.959395	0.024501	0.280998	0.001339
35072	-5.262529	0.436281	8.220391	0.959404	0.024457	0.280970	0.001328
35073	-5.249002	0.460570	8.204586	0.959409	0.024431	0.280956	0.001317
35074	-5.267820	0.432749	8.199936	0.959413	0.024373	0.280948	0.001306
35075	-5.272290	0.440456	8.210580	0.959415	0.024330	0.280943	0.001297
35076	-5.257671	0.439341	8.196168	0.959417	0.024287	0.280939	0.001289
35077	-5.268806	0.439761	8.230106	0.959417	0.024240	0.280944	0.001277
35078	-5.260191	0.462301	8.194007	0.959423	0.024193	0.280930	0.001255
35079	-5.294009	0.434222	8.203572	0.959431	0.024125	0.280908	0.001259
35080	-5.267303	0.451993	8.217176	0.959437	0.024059	0.280890	0.001238
35081	-5.243971	0.443405	8.212079	0.959439	0.024042	0.280886	0.001220
35082	-5.275576	0.432551	8.208889	0.959436	0.024043	0.280896	0.001204
35083	-5.281072	0.430534	8.188210	0.959431	0.024015	0.280918	0.001210
35084	-5.254814	0.449161	8.201497	0.959434	0.023996	0.280907	0.001202
35085	-5.272977	0.432092	8.227840	0.959438	0.023965	0.280897	0.001197
35086	-5.266636	0.438740	8.204381	0.959449	0.023942	0.280862	0.001190
35087	-5.262083	0.439637	8.224517	0.959457	0.023935	0.280834	0.001167
35088	-5.249907	0.422806	8.222614	0.959456	0.023921	0.280840	0.001183
35089	-5.280812	0.443381	8.174447	0.959460	0.023928	0.280823	0.001190
35090	-5.266449	0.412137	8.205213	0.959466	0.023943	0.280803	0.001189
35091	-5.248615	0.439111	8.209343	0.959462	0.023968	0.280816	0.001219
35092	-5.245305	0.430765	8.197975	0.959460	0.024015	0.280818	0.001243
35093	-5.278044	0.446123	8.193335	0.959466	0.024033	0.280796	0.001257
35094	-5.247383	0.456640	8.195964	0.959469	0.024045	0.280782	0.001269
35095	-5.239164	0.449236	8.204964	0.959472	0.024053	0.280772	0.001285
35096	-5.277203	0.431485	8.225162	0.959470	0.024068	0.280778	0.001306
35097	-5.254139	0.424105	8.219844	0.959468	0.024078	0.280784	0.001314
35098	-5.278411	0.431865	8.224367	0.959472	0.024120	0.280768	0.001330
35099	-5.272234	0.439887	8.200723	0.959472	0.024156	0.280763	0.001362
35100	-5.264244	0.432785	8.209565	0.959469	0.024165	0.280772	0.001389
35101	-5.254888	0.466944	8.204538	0.959479	0.024163	0.280739	0.001411
35102	-5.253734	0.441263	8.205952	0.959481	0.024135	0.280735	0.001431
35103	-5.242945	0.449797	8.202518	0.959487	0.024134	0.280715	0.001454
35104	-5.267346	0.456875	8.206988	0.959479	0.024111	0.280742	0.001466
35105	-5.256764	0.398571	8.218830	0.959476	0.024120	0.280751	0.001479
35106	-5.273184	0.465723	8.216711	0.959465	0.024149	0.280789	0.001508
35107	-5.261607	0.449503	8.214407	0.959460	0.024147	0.280803	0.001529
35108	-5.273413	0.440319	8.217220	0.959463	0.024137	0.280794	0.001538
35109	-5.277800	0.449076	8.227880	0.959468	0.024143	0.280778	0.001563
35110	-5.239263	0.441505	8.208680	0.959469	0.024143	0.280773	0.001571
35111	-5.250885	0.432460	8.211603	0.959472	0.024150	0.280763	0.001589
35112	-5.275156	0.439765	8.216131	0.959472	0.024148	0.280762	0.001590
35113	-5.256307	0.441359	8.221596	0.959460	0.024177	0.280800	0.001620
35114	-5.265761	0.449232	8.211760	0.959461	0.024207	0.280796	0.001642
35115	-5.276458	0.482286	8.200476	0.959456	0.024227	0.280810	0.001659
35116	-5.259144	0.431560	8.189062	0.959455	0.024206	0.280815	0.001673
35117	-5.242317	0.426817	8.238065	0.959446	0.024207	0.280847	0.001688
35118	-5.266336	0.465160	8.197295	0.959447	0.024199	0.280843	0.001686
35119	-5.238551	0.459097	8.212273	0.959447	0.024213	0.280842	0.001699
35120	-5.262829	0.466396	8.216783	0.959450	0.024202	0.280834	0.001710
35121	-5.255966	0.483514	8.224336	0.959459	0.024157	0.280807	0.001702
35122	-5.270335	0.446739	8.208961	0.959469	0.024116	0.280777	0.001705
35123	-5.259334	0.454670	8.205713	0.959475	0.024080	0.280756	0.001688
35124	-5.264609	0.420983	8.230605	0.959487	0.024046	0.280721	0.001665
35125	-5.244192	0.386063	8.207072	0.959488	0.024044	0.280717	0.001642
35126	-5.282915	0.434765	8.211411	0.959477	0.024051	0.280753	0.001623
35127	-5.246140	0.452108	8.190490	0.959484	0.024027	0.280733	0.001603
35128	-5.268041	0.443873	8.227897	0.959495	0.024000	0.280695	0.001591
35129	-5.264092	0.434098	8.217000	0.959503	0.023968	0.280673	0.001583
35130	-5.255767	0.426011	8.226129	0.959508	0.023963	0.280656	0.001561
35131	-5.260339	0.434525	8.236697	0.959505	0.023958	0.280666	0.001560
35132	-5.263129	0.449097	8.203586	0.959501	0.023964	0.280680	0.001549
35133	-5.257908	0.425176	8.224804	0.959498	0.023970	0.280689	0.001545
35134	-5.267738	0.422062	8.184031	0.959496	0.023982	0.280695	0.001549
35135	-5.248010	0.433836	8.220824	0.959501	0.023974	0.280679	0.001547
35136	-5.235784	0.417040	8.218969	0.959503	0.023963	0.280673	0.001540
35137	-5.270167	0.456812	8.212617	0.959504	0.023967	0.280670	0.001550
35138	-5.258656	0.429834	8.179569	0.959502	0.023967	0.280676	0.001543
35139	-5.254788	0.431152	8.199301	0.959501	0.023970	0.280681	0.001552
35140	-5.254073	0.405893	8.200382	0.959495	0.023983	0.280699	0.001578
35141	-5.256138	0.441964	8.229145	0.959483	0.024020	0.280738	0.001593
35142	-5.276949	0.440972	8.222343	0.959476	0.024059	0.280755	0.001608
35143	-5.254146	0.433869	8.216902	0.959467	0.024063	0.280786	0.001635
35144	-5.263220	0.452058	8.238029	0.959462	0.024111	0.280799	0.001640
35145	-5.262563	0.427237	8.239056	0.959458	0.024132	0.280812	0.001656
35146	-5.261479	0.433577	8.194882	0.959446	0.024172	0.280849	0.001683
35147	-5.276540	0.408986	8.209635	0.959430	0.024221	0.280900	0.001695
35148	-5.256838	0.452931	8.200922	0.959425	0.024269	0.280912	0.001718
35149	-5.249142	0.446114	8.209609	0.959417	0.024296	0.280936	0.001732
35150	-5.250151	0.446639	8.208935	0.959408	0.024340	0.280965	0.001749
35151	-5.272306	0.470943	8.200601	0.959403	0.024372	0.280980	0.001766
35152	-5.264478	0.464053	8.209380	0.959400	0.024409	0.280986	0.001782
35153	-5.263836	0.438953	8.210427	0.959392	0.024412	0.281011	0.001783
35154	-5.249253	0.449470	8.226718	0.959382	0.024437	0.281043	0.001792
35155	-5.265725	0.449632	8.239959	0.959369	0.024449	0.281089	0.001807
35156	-5.268829	0.464469	8.206564	0.959361	0.024461	0.281114	0.001810
35157	-5.263240	0.471762	8.182546	0.959352	0.024461	0.281146	0.001811
35158	-5.290698	0.462593	8.199082	0.959344	0.024460	0.281171	0.001818
35159	-5.263440	0.456589	8.213848	0.959336	0.024469	0.281200	0.001808
35160	-5.251981	0.439785	8.211545	0.959324	0.024435	0.281242	0.001815
35161	-5.284324	0.428849	8.207666	0.959306	0.024446	0.281302	0.001817
35162	-5.246288	0.431866	8.219037	0.959295	0.024448	0.281339	0.001822
35163	-5.264326	0.457083	8.230634	0.959282	0.024460	0.281384	0.001836
35164	-5.281401	0.446434	8.212712	0.959266	0.024454	0.281439	0.001835
35165	-5.268958	0.471159	8.196276	0.959259	0.024428	0.281465	0.001830
35166	-5.254074	0.414130	8.228260	0.959248	0.024414	0.281503	0.001825
35167	-5.279538	0.410930	8.201124	0.959236	0.024446	0.281542	0.001825
35168	-5.268727	0.471946	8.213770	0.959207	0.024429	0.281639	0.001841
35169	-5.270886	0.461238	8.181594	0.959194	0.024446	0.281683	0.001834
35170	-5.286169	0.435881	8.196230	0.959174	0.024453	0.281753	0.001835
35171	-5.281255	0.443134	8.171758	0.959152	0.024460	0.281826	0.001824
35172	-5.286829	0.462415	8.212490	0.959132	0.024468	0.281894	0.001821
35173	-5.284699	0.442760	8.169552	0.959115	0.024471	0.281951	0.001802
35174	-5.301045	0.452955	8.213690	0.959104	0.024474	0.281988	0.001792
35175	-5.274306	0.436322	8.197408	0.959094	0.024468	0.282023	0.001778
35176	-5.285105	0.402097	8.201416	0.959084	0.024503	0.282054	0.001784
35177	-5.276991	0.436655	8.195663	0.959061	0.024528	0.282131	0.001774
35178	-5.291472	0.453058	8.196013	0.959041	0.024541	0.282196	0.001781
35179	-5.294487	0.478176	8.193437	0.959029	0.024539	0.282238	0.001777
35180	-5.281514	0.436210	8.192773	0.959019	0.024532	0.282272	0.001764
35181	-5.291602	0.432657	8.151619	0.959006	0.024523	0.282316	0.001766
35182	-5.295129	0.426793	8.194341	0.958997	0.024553	0.282346	0.001770
35183	-5.291061	0.470070	8.199509	0.958977	0.024562	0.282412	0.001762
35184	-5.260160	0.444992	8.172397	0.958974	0.024596	0.282419	0.001766
35185	-5.300141	0.452687	8.190430	0.958967	0.024624	0.282442	0.001776
35186	-5.301223	0.452955	8.189715	0.958956	0.024642	0.282478	0.001792
35187	-5.286708	0.463877	8.206081	0.958950	0.024683	0.282494	0.001805
35188	-5.290604	0.437858	8.186817	0.958937	0.024745	0.282532	0.001830
35189	-5.276292	0.449641	8.203013	0.958923	0.024828	0.282572	0.001848
35190	-5.318420	0.473088	8.188064	0.958912	0.024910	0.282603	0.001858
35191	-5.274594	0.443350	8.190457	0.958896	0.024984	0.282650	0.001870
35192	-5.279895	0.453346	8.200490	0.958888	0.025040	0.282671	0.001888
35193	-5.279448	0.428688	8.201411	0.958876	0.025066	0.282709	0.001902
35194	-5.299220	0.469236	8.180251	0.958866	0.025117	0.282739	0.001919
35195	-5.315491	0.469755	8.193550	0.958861	0.025139	0.282753	0.001935
35196	-5.265982	0.471407	8.171367	0.958857	0.025141	0.282766	0.001936
35197	-5.301717	0.469603	8.178612	0.958857	0.025144	0.282768	0.001941
35198	-5.282654	0.470920	8.184468	0.958857	0.025127	0.282770	0.001954
35199	-5.298694	0.460049	8.167083	0.958859	0.025133	0.282760	0.001953
35200	-5.301701	0.443342	8.179340	0.958865	0.025112	0.282744	0.001956
35201	-5.287509	0.411644	8.210429	0.958873	0.025086	0.282719	0.001959
35202	-5.303544	0.467245	8.177562	0.958885	0.025065	0.282679	0.001956
35203	-5.287902	0.476734	8.194775	0.958900	0.025002	0.282633	0.001942
35204	-5.290264	0.448205	8.176629	0.958926	0.024916	0.282554	0.001939
35205	-5.289604	0.446409	8.177154	0.958948	0.024835	0.282484	0.001932
35206	-5.304186	0.444731	8.191667	0.958976	0.024769	0.282398	0.001924
35207	-5.307674	0.452358	8.203008	0.958995	0.024726	0.282336	0.001914
35208	-5.276160	0.461548	8.206647	0.959023	0.024647	0.282247	0.001908
35209	-5.282452	0.441906	8.199468	0.959044	0.024569	0.282183	0.001907
35210	-5.273366	0.433456	8.209230	0.959065	0.024556	0.282113	0.001906
35211	-5.294334	0.456637	8.201569	0.959076	0.024545	0.282077	0.001908
35212	-5.274698	0.457812	8.207797	0.959085	0.024526	0.282046	0.001922
35213	-5.274712	0.457260	8.207818	0.959097	0.024512	0.282007	0.001903
35214	-5.307030	0.471343	8.203155	0.959110	0.024492	0.281965	0.001918
35215	-5.274684	0.455823	8.207916	0.959118	0.024443	0.281942	0.001901
35216	-5.264727	0.422034	8.218853	0.959128	0.024399	0.281913	0.001890
35217	-5.290856	0.443370	8.190524	0.959123	0.024392	0.281931	0.001902
35218	-5.295571	0.451607	8.201049	0.959130	0.024348	0.281911	0.001904
35219	-5.284622	0.459668	8.197865	0.959139	0.024320	0.281883	0.001893
35220	-5.272059	0.442637	8.196316	0.959147	0.024294	0.281858	0.001897
35221	-5.276596	0.440201	8.176068	0.959155	0.024254	0.281833	0.001892
35222	-5.292020	0.439252	8.189994	0.959164	0.024229	0.281804	0.001888
35223	-5.291930	0.448977	8.220998	0.959173	0.024192	0.281778	0.001914
35224	-5.272549	0.439173	8.196188	0.959182	0.024150	0.281749	0.001901
35225	-5.278414	0.461721	8.174507	0.959199	0.024105	0.281696	0.001886
35226	-5.296025	0.444217	8.201160	0.959214	0.024062	0.281647	0.001895
35227	-5.287214	0.435853	8.210729	0.959230	0.024021	0.281596	0.001886
35228	-5.280335	0.442447	8.187552	0.959241	0.023997	0.281562	0.001894
35229	-5.282718	0.425551	8.200162	0.959259	0.023984	0.281503	0.001897
35230	-5.271372	0.433945	8.197223	0.959270	0.023955	0.281466	0.001902
35231	-5.275380	0.442213	8.208213	0.959286	0.023948	0.281412	0.001874
35232	-5.265050	0.409116	8.219300	0.959297	0.023937	0.281377	0.001878
35233	-5.282323	0.423362	8.200530	0.959302	0.023921	0.281360	0.001892
35234	-5.275646	0.440857	8.208115	0.959309	0.023909	0.281339	0.001902
35235	-5.274195	0.415281	8.209636	0.959317	0.023913	0.281311	0.001892
35236	-5.291491	0.429762	8.190840	0.959323	0.023915	0.281290	0.001897
35237	-5.265972	0.407739	8.218778	0.959330	0.023928	0.281265	0.001927
35238	-5.270486	0.406448	8.198482	0.959336	0.023956	0.281243	0.001943
35239	-5.278936	0.424511	8.220107	0.959346	0.023964	0.281205	0.001970
35240	-5.269483	0.458955	8.215340	0.959353	0.023988	0.281181	0.001979
35241	-5.274824	0.416237	8.209184	0.959363	0.024034	0.281143	0.001995
35242	-5.270605	0.407980	8.198330	0.959372	0.024072	0.281108	0.002018
35243	-5.248609	0.426845	8.191901	0.959372	0.024129	0.281104	0.002065
35244	-5.270446	0.451367	8.183647	0.959370	0.024168	0.281104	0.002119
35245	-5.279106	0.469706	8.205114	0.959380	0.024181	0.281070	0.002152
35246	-5.273497	0.435958	8.195750	0.959382	0.024221	0.281061	0.002180
35247	-5.272434	0.488483	8.212618	0.959397	0.024234	0.281007	0.002200
35248	-5.268226	0.479393	8.201804	0.959403	0.024216	0.280990	0.002216
35249	-5.265046	0.428570	8.205036	0.959415	0.024221	0.280948	0.002223
35250	-5.262275	0.455090	8.223632	0.959425	0.024205	0.280915	0.002216
35251	-5.266549	0.452939	8.203534	0.959440	0.024185	0.280864	0.002218
35252	-5.261928	0.453719	8.223930	0.959457	0.024145	0.280811	0.002204
35253	-5.253072	0.445380	8.233525	0.959474	0.024110	0.280755	0.002186
35254	-5.249725	0.393901	8.236876	0.959482	0.024077	0.280730	0.002166
35255	-5.253670	0.433559	8.202298	0.959478	0.024091	0.280744	0.002200
35256	-5.250149	0.435223	8.221943	0.959473	0.024105	0.280760	0.002188
35257	-5.290701	0.431689	8.208703	0.959458	0.024103	0.280811	0.002182
35258	-5.272267	0.433234	8.214154	0.959451	0.024116	0.280835	0.002182
35259	-5.258151	0.433440	8.199432	0.959436	0.024136	0.280884	0.002198
35260	-5.283433	0.440876	8.203104	0.959421	0.024157	0.280932	0.002212
35261	-5.259183	0.419267	8.230251	0.959405	0.024192	0.280984	0.002233
35262	-5.264152	0.459671	8.194950	0.959386	0.024212	0.281046	0.002252
35263	-5.263376	0.476315	8.181316	0.959362	0.024244	0.281125	0.002257
35264	-5.263172	0.461707	8.212963	0.959352	0.024252	0.281160	0.002258
35265	-5.275768	0.452607	8.215119	0.959331	0.024269	0.281229	0.002237
35266	-5.270762	0.459851	8.190690	0.959312	0.024270	0.281296	0.002221
35267	-5.282001	0.425286	8.194303	0.959291	0.024272	0.281366	0.002208
35268	-5.267992	0.425227	8.179534	0.959285	0.024289	0.281384	0.002194
35269	-5.280139	0.427165	8.212902	0.959271	0.024349	0.281427	0.002194
35270	-5.283224	0.442706	8.179328	0.959257	0.024397	0.281471	0.002198
35271	-5.281790	0.469787	8.197075	0.959249	0.024401	0.281498	0.002175
35272	-5.272442	0.437078	8.207566	0.959248	0.024419	0.281499	0.002157
35273	-5.258757	0.395776	8.207291	0.959242	0.024453	0.281517	0.002147
35274	-5.294287	0.436009	8.199831	0.959218	0.024487	0.281596	0.002170
35275	-5.294261	0.411491	8.200396	0.959203	0.024541	0.281642	0.002197
35276	-5.288806	0.419903	8.176175	0.959188	0.024600	0.281689	0.002232
35277	-5.265000	0.466033	8.187785	0.959182	0.024677	0.281700	0.002262
35278	-5.283737	0.450657	8.213592	0.959177	0.024722	0.281715	0.002287
35279	-5.288645	0.460356	8.223931	0.959177	0.024770	0.281709	0.002315
35280	-5.269777	0.441612	8.167735	0.959170	0.024806	0.281730	0.002333
35281	-5.298636	0.458310	8.182547	0.959171	0.024838	0.281725	0.002371
35282	-5.294379	0.449758	8.171727	0.959188	0.024854	0.281664	0.002384
35283	-5.277127	0.446121	8.221599	0.959193	0.024893	0.281644	0.002412
35284	-5.283425	0.470582	8.199444	0.959193	0.024956	0.281637	0.002430
35285	-5.286521	0.444801	8.180560	0.959194	0.025023	0.281629	0.002457
35286	-5.308138	0.469387	8.172305	0.959200	0.025072	0.281602	0.002490
35287	-5.279386	0.464606	8.188339	0.959230	0.025112	0.281496	0.002527
35288	-5.279197	0.434266	8.234179	0.959255	0.025151	0.281410	0.002544
35289	-5.278355	0.434991	8.234681	0.959277	0.025202	0.281330	0.002566
35290	-5.260152	0.463329	8.239349	0.959278	0.025298	0.281317	0.002620
35291	-5.277678	0.469084	8.189184	0.959277	0.025383	0.281313	0.002673
35292	-5.258266	0.472199	8.195254	0.959284	0.025447	0.281281	0.002719
35293	-5.277950	0.471611	8.188864	0.959291	0.025507	0.281253	0.002761
35294	-5.267846	0.451112	8.230810	0.959293	0.025601	0.281235	0.002812
35295	-5.285448	0.467602	8.211544	0.959286	0.025706	0.281249	0.002853
35296	-5.283654	0.486062	8.198393	0.959279	0.025828	0.281263	0.002907
35297	-5.277723	0.506184	8.205337	0.959265	0.025936	0.281298	0.002945
35298	-5.267196	0.439739	8.186307	0.959248	0.026041	0.281346	0.002998
35299	-5.270191	0.477764	8.214545	0.959231	0.026160	0.281392	0.003050
35300	-5.280303	0.487430	8.203963	0.959206	0.026288	0.281468	0.003109
35301	-5.288884	0.472087	8.195039	0.959184	0.026430	0.281527	0.003173
35302	-5.265021	0.453060	8.222078	0.959158	0.026573	0.281600	0.003256
35303	-5.296910	0.486857	8.203034	0.959122	0.026729	0.281709	0.003332
35304	-5.281070	0.505997	8.175054	0.959092	0.026864	0.281795	0.003400
35305	-5.265913	0.504557	8.223558	0.959069	0.026981	0.281863	0.003464
35306	-5.291437	0.492557	8.164860	0.959049	0.027076	0.281922	0.003526
35307	-5.266273	0.514270	8.177861	0.959034	0.027189	0.281962	0.003586
35308	-5.287066	0.524991	8.201631	0.959023	0.027252	0.281992	0.003650
35309	-5.285270	0.542159	8.188475	0.959021	0.027282	0.281995	0.003679
35310	-5.291086	0.499442	8.182232	0.959022	0.027325	0.281987	0.003683
35311	-5.280538	0.509069	8.178710	0.959018	0.027369	0.281996	0.003716
35312	-5.272934	0.502336	8.187556	0.959009	0.027392	0.282025	0.003750
35313	-5.297597	0.510298	8.191414	0.959008	0.027451	0.282020	0.003778
35314	-5.272686	0.489145	8.219377	0.959006	0.027473	0.282027	0.003804
35315	-5.273545	0.489703	8.218793	0.958996	0.027520	0.282054	0.003829
35316	-5.276315	0.505015	8.185213	0.958981	0.027562	0.282099	0.003860
35317	-5.277712	0.505671	8.184272	0.958966	0.027602	0.282147	0.003868
35318	-5.303162	0.513170	8.187633	0.958948	0.027603	0.282208	0.003880
35319	-5.304126	0.512981	8.187020	0.958953	0.027597	0.282192	0.003895
35320	-5.285199	0.514174	8.192972	0.958946	0.027562	0.282220	0.003914
35321	-5.294736	0.520826	8.182865	0.958940	0.027545	0.282241	0.003931
35322	-5.263096	0.505744	8.187517	0.958942	0.027527	0.282237	0.003930
35323	-5.296241	0.519636	8.181967	0.958937	0.027503	0.282255	0.003925
35324	-5.280180	0.493598	8.169363	0.958930	0.027472	0.282281	0.003935
35325	-5.280224	0.555630	8.216369	0.958928	0.027433	0.282294	0.003930
35326	-5.279362	0.528953	8.217783	0.958929	0.027352	0.282297	0.003911
35327	-5.279759	0.516021	8.186657	0.958938	0.027228	0.282279	0.003905
35328	-5.280004	0.513392	8.186665	0.958949	0.027108	0.282252	0.003878
35329	-5.282712	0.494702	8.199321	0.958965	0.027016	0.282210	0.003840
35330	-5.291461	0.499689	8.189826	0.958969	0.026908	0.282206	0.003817
35331	-5.287761	0.488187	8.178845	0.958973	0.026788	0.282205	0.003786
35332	-5.303596	0.485531	8.192561	0.958983	0.026677	0.282181	0.003744
35333	-5.305338	0.508221	8.190881	0.958999	0.026570	0.282138	0.003692
35334	-5.284268	0.482185	8.199064	0.959004	0.026466	0.282130	0.003641
35335	-5.260793	0.483282	8.225594	0.959014	0.026376	0.282105	0.003597
35336	-5.295094	0.499272	8.156650	0.959018	0.026251	0.282104	0.003566
35337	-5.292518	0.456806	8.190874	0.959021	0.026147	0.282103	0.003514
35338	-5.296168	0.504887	8.187315	0.959037	0.026038	0.282061	0.003488
35339	-5.302759	0.484304	8.179912	0.959058	0.025915	0.282001	0.003436
35340	-5.274244	0.476045	8.196180	0.959079	0.025797	0.281942	0.003399
35341	-5.280850	0.455529	8.188744	0.959092	0.025693	0.281906	0.003362
35342	-5.297872	0.478587	8.201016	0.959109	0.025611	0.281856	0.003349
35343	-5.289123	0.459003	8.179654	0.959122	0.025543	0.281819	0.003336
35344	-5.290860	0.471592	8.146952	0.959130	0.025421	0.281800	0.003319
35345	-5.274070	0.465573	8.196894	0.959146	0.025352	0.281755	0.003294
35346	-5.280553	0.445904	8.189464	0.959167	0.025275	0.281691	0.003277
35347	-5.290705	0.487253	8.209524	0.959178	0.025199	0.281661	0.003255
35348	-5.286447	0.476691	8.198805	0.959189	0.025139	0.281629	0.003243
35349	-5.301599	0.464226	8.181828	0.959209	0.025053	0.281569	0.003207
35350	-5.282373	0.422419	8.202835	0.959232	0.024966	0.281496	0.003192
35351	-5.264157	0.447764	8.207824	0.959245	0.024901	0.281458	0.003194
35352	-5.287992	0.443058	8.181265	0.959255	0.024857	0.281429	0.003183
35353	-5.274435	0.478130	8.196787	0.959268	0.024838	0.281386	0.003172
35354	-5.288116	0.452164	8.212350	0.959277	0.024820	0.281358	0.003189
35355	-5.272820	0.451824	8.198467	0.959284	0.024803	0.281333	0.003205
35356	-5.270446	0.467634	8.185880	0.959291	0.024781	0.281311	0.003215
35357	-5.264948	0.443464	8.207550	0.959290	0.024761	0.281316	0.003231
35358	-5.262775	0.459167	8.194842	0.959298	0.024738	0.281291	0.003228
35359	-5.270069	0.451169	8.217889	0.959298	0.024725	0.281292	0.003235
35360	-5.286008	0.440437	8.200291	0.959295	0.024759	0.281300	0.003239
35361	-5.284189	0.456897	8.187312	0.959291	0.024758	0.281314	0.003259
35362	-5.267054	0.483904	8.191545	0.959289	0.024772	0.281320	0.003269
35363	-5.270202	0.467260	8.203681	0.959292	0.024747	0.281312	0.003266
35364	-5.271641	0.425145	8.217499	0.959290	0.024743	0.281319	0.003259
35365	-5.284882	0.430622	8.187490	0.959294	0.024757	0.281303	0.003267
35366	-5.294084	0.448711	8.208693	0.959291	0.024789	0.281310	0.003273
35367	-5.287717	0.456532	8.185055	0.959292	0.024820	0.281304	0.003292
35368	-5.277488	0.476832	8.212526	0.959282	0.024872	0.281332	0.003330
35369	-5.301024	0.459336	8.217698	0.959263	0.024899	0.281394	0.003349
35370	-5.262691	0.453038	8.198810	0.959264	0.024957	0.281388	0.003375
35371	-5.267565	0.452341	8.178079	0.959256	0.025014	0.281408	0.003391
35372	-5.279790	0.455030	8.211434	0.959247	0.025094	0.281432	0.003420
35373	-5.293627	0.461946	8.180930	0.959231	0.025165	0.281480	0.003453
35374	-5.294796	0.474009	8.211203	0.959228	0.025256	0.281481	0.003484
35375	-5.275929	0.466781	8.185949	0.959214	0.025335	0.281522	0.003524
35376	-5.285542	0.486296	8.206789	0.959210	0.025430	0.281524	0.003572
35377	-5.278106	0.480694	8.215470	0.959191	0.025518	0.281582	0.003592
35378	-5.287953	0.489550	8.205043	0.959179	0.025625	0.281614	0.003598
35379	-5.284914	0.482250	8.193342	0.959159	0.025714	0.281671	0.003625
35380	-5.297468	0.474806	8.195346	0.959143	0.025811	0.281717	0.003646
35381	-5.261337	0.505027	8.205537	0.959128	0.025879	0.281762	0.003657
35382	-5.286193	0.502412	8.178092	0.959121	0.025920	0.281783	0.003684
35383	-5.292086	0.470367	8.202650	0.959123	0.025951	0.281773	0.003694
35384	-5.307882	0.460025	8.185072	0.959120	0.025983	0.281781	0.003703
35385	-5.286521	0.479002	8.178406	0.959111	0.026055	0.281805	0.003738
35386	-5.282936	0.471827	8.167055	0.959107	0.026181	0.281807	0.003768
35387	-5.288293	0.493706	8.208144	0.959095	0.026301	0.281833	0.003814
35388	-5.283395	0.461992	8.198264	0.959075	0.026448	0.281887	0.003850
35389	-5.287866	0.448514	8.209444	0.959042	0.026602	0.281986	0.003904
35390	-5.284265	0.473466	8.152017	0.959019	0.026772	0.282046	0.003957
35391	-5.298860	0.503300	8.183062	0.958999	0.026904	0.282100	0.004037
35392	-5.280470	0.507863	8.188582	0.958987	0.027049	0.282127	0.004101
35393	-5.274475	0.517923	8.164489	0.958974	0.027195	0.282157	0.004148
35394	-5.296788	0.543436	8.155411	0.958964	0.027270	0.282182	0.004200
35395	-5.273597	0.548298	8.181701	0.958970	0.027340	0.282153	0.004221
35396	-5.293248	0.547554	8.175117	0.958978	0.027397	0.282121	0.004242
35397	-5.274554	0.508929	8.195929	0.958987	0.027475	0.282083	0.004247
35398	-5.304066	0.484919	8.225034	0.958985	0.027569	0.282082	0.004236
35399	-5.273074	0.527740	8.182459	0.958972	0.027629	0.282121	0.004246
35400	-5.294927	0.484819	8.189501	0.958956	0.027635	0.282172	0.004251
35401	-5.297734	0.509924	8.186960	0.958953	0.027641	0.282181	0.004249
35402	-5.296725	0.484163	8.188377	0.958953	0.027603	0.282187	0.004257
35403	-5.283478	0.508536	8.172500	0.958957	0.027573	0.282176	0.004242
35404	-5.313441	0.493052	8.232570	0.958960	0.027542	0.282168	0.004254
35405	-5.288908	0.515904	8.182632	0.958956	0.027516	0.282184	0.004262
35406	-5.289736	0.515225	8.182139	0.958954	0.027492	0.282193	0.004268
35407	-5.299297	0.532204	8.203110	0.958953	0.027437	0.282203	0.004262
35408	-5.281569	0.547593	8.176605	0.958963	0.027424	0.282171	0.004252
35409	-5.271598	0.513985	8.187890	0.958969	0.027345	0.282158	0.004243
35410	-5.273747	0.537607	8.185893	0.958974	0.027286	0.282145	0.004218
35411	-5.294669	0.492809	8.193592	0.958978	0.027227	0.282138	0.004210
35412	-5.310198	0.480774	8.176238	0.958986	0.027185	0.282117	0.004206
35413	-5.279531	0.490723	8.179747	0.958999	0.027155	0.282074	0.004206
35414	-5.293277	0.464715	8.195360	0.959008	0.027129	0.282047	0.004227
35415	-5.302072	0.471770	8.185639	0.959009	0.027152	0.282039	0.004240
35416	-5.315034	0.488466	8.186739	0.959023	0.027207	0.281986	0.004240
35417	-5.297862	0.474905	8.205879	0.959033	0.027265	0.281945	0.004275
35418	-5.303627	0.499204	8.183804	0.959041	0.027299	0.281915	0.004313
35419	-5.292857	0.519570	8.211669	0.959050	0.027334	0.281883	0.004336
35420	-5.292611	0.509070	8.180666	0.959058	0.027341	0.281854	0.004343
35421	-5.269320	0.512697	8.207156	0.959056	0.027361	0.281857	0.004352
35422	-5.282554	0.518127	8.176957	0.959055	0.027360	0.281862	0.004360
35423	-5.267842	0.528778	8.193870	0.959061	0.027363	0.281841	0.004377
35424	-5.256866	0.537359	8.190789	0.959072	0.027333	0.281807	0.004379
35425	-5.279077	0.518436	8.196898	0.959085	0.027306	0.281766	0.004363
35426	-5.274949	0.508727	8.186060	0.959085	0.027285	0.281766	0.004364
35427	-5.288308	0.524445	8.186960	0.959089	0.027286	0.281754	0.004359
35428	-5.282395	0.489669	8.177961	0.959098	0.027248	0.281726	0.004370
35429	-5.291315	0.506976	8.199344	0.959106	0.027248	0.281698	0.004351
35430	-5.278517	0.490296	8.198139	0.959116	0.027223	0.281666	0.004378
35431	-5.295514	0.504063	8.179097	0.959127	0.027197	0.281632	0.004370
35432	-5.282914	0.498035	8.208928	0.959140	0.027180	0.281588	0.004398
35433	-5.271714	0.506980	8.205974	0.959150	0.027203	0.281552	0.004400
35434	-5.279180	0.499838	8.228945	0.959144	0.027220	0.281572	0.004422
35435	-5.269217	0.509331	8.225165	0.959129	0.027267	0.281619	0.004437
35436	-5.290282	0.508020	8.217669	0.959111	0.027293	0.281676	0.004464
35437	-5.282071	0.531887	8.180898	0.959096	0.027318	0.281724	0.004472
35438	-5.289993	0.514030	8.172405	0.959088	0.027338	0.281749	0.004469
35439	-5.280202	0.533639	8.199726	0.959084	0.027310	0.281764	0.004499
35440	-5.263574	0.508189	8.187439	0.959086	0.027319	0.281759	0.004494
35441	-5.275348	0.498935	8.190035	0.959082	0.027322	0.281773	0.004485
35442	-5.272364	0.500423	8.209606	0.959070	0.027322	0.281812	0.004490
35443	-5.309859	0.512859	8.183376	0.959067	0.027334	0.281820	0.004497
35444	-5.281968	0.496605	8.168170	0.959072	0.027322	0.281806	0.004516
35445	-5.288192	0.530303	8.177046	0.959087	0.027297	0.281756	0.004519
35446	-5.268691	0.541968	8.214775	0.959104	0.027251	0.281701	0.004507
35447	-5.277806	0.506430	8.219835	0.959118	0.027199	0.281661	0.004504
35448	-5.273539	0.496162	8.209110	0.959122	0.027154	0.281651	0.004477
35449	-5.274093	0.495509	8.208794	0.959120	0.027166	0.281657	0.004481
35450	-5.269597	0.527672	8.183235	0.959117	0.027134	0.281671	0.004485
35451	-5.269776	0.515881	8.151992	0.959124	0.027084	0.281651	0.004455
35452	-5.290855	0.547891	8.175148	0.959168	0.026961	0.281516	0.004406
35453	-5.276744	0.539197	8.206166	0.959210	0.026802	0.281388	0.004328
35454	-5.258321	0.468574	8.210089	0.959265	0.026616	0.281218	0.004239
35455	-5.253859	0.480775	8.198982	0.959307	0.026445	0.281094	0.004157
35456	-5.271782	0.475348	8.193734	0.959353	0.026306	0.280951	0.004100
35457	-5.268366	0.509892	8.244318	0.959390	0.026176	0.280838	0.004037
35458	-5.273887	0.488578	8.237522	0.959422	0.026020	0.280744	0.003970
35459	-5.249076	0.415455	8.186370	0.959448	0.025902	0.280667	0.003887
35460	-5.292191	0.418153	8.184515	0.959466	0.025822	0.280613	0.003848
35461	-5.274893	0.402230	8.203798	0.959482	0.025777	0.280563	0.003846
35462	-5.276747	0.437834	8.233241	0.959499	0.025808	0.280500	0.003862
35463	-5.279848	0.478127	8.198852	0.959509	0.025842	0.280463	0.003882
35464	-5.264402	0.489137	8.216268	0.959528	0.025843	0.280397	0.003889
35465	-5.261950	0.464300	8.218405	0.959547	0.025900	0.280327	0.003909
35466	-5.253125	0.458310	8.228050	0.959554	0.025973	0.280296	0.003965
35467	-5.237251	0.512017	8.230907	0.959563	0.026045	0.280259	0.003983
35468	-5.234783	0.529036	8.218278	0.959569	0.026074	0.280237	0.003973
35469	-5.274949	0.483870	8.219387	0.959571	0.026092	0.280226	0.003978
35470	-5.250808	0.466303	8.184041	0.959580	0.026111	0.280195	0.003979
35471	-5.268211	0.491409	8.195960	0.959590	0.026119	0.280159	0.003987
35472	-5.244603	0.495236	8.222660	0.959598	0.026150	0.280129	0.003999
35473	-5.242907	0.470454	8.224322	0.959603	0.026192	0.280107	0.003997
35474	-5.241586	0.497927	8.242169	0.959587	0.026228	0.280159	0.004008
35475	-5.255409	0.504129	8.211573	0.959577	0.026286	0.280187	0.004042
35476	-5.249516	0.512165	8.187568	0.959564	0.026307	0.280228	0.004069
35477	-5.259763	0.477928	8.191709	0.959560	0.026310	0.280243	0.004078
35478	-5.245289	0.488670	8.208524	0.959562	0.026328	0.280236	0.004043
35479	-5.261310	0.488487	8.221928	0.959562	0.026348	0.280232	0.004043
35480	-5.231851	0.499807	8.224661	0.959541	0.026384	0.280302	0.004050
35481	-5.272271	0.485555	8.179583	0.959524	0.026394	0.280357	0.004070
35482	-5.251532	0.503912	8.172661	0.959512	0.026424	0.280397	0.004058
35483	-5.255701	0.498298	8.215386	0.959503	0.026429	0.280426	0.004049
35484	-5.249691	0.505148	8.191520	0.959498	0.026402	0.280445	0.004038
35485	-5.246680	0.505890	8.211167	0.959491	0.026357	0.280477	0.004013
35486	-5.263857	0.462906	8.238686	0.959489	0.026310	0.280485	0.003976
35487	-5.285975	0.474411	8.198744	0.959477	0.026280	0.280529	0.003954
35488	-5.267380	0.475305	8.204717	0.959481	0.026238	0.280522	0.003919
35489	-5.272394	0.482834	8.215159	0.959484	0.026164	0.280519	0.003913
35490	-5.275224	0.454439	8.196357	0.959481	0.026116	0.280535	0.003895
35491	-5.254602	0.430372	8.204210	0.959477	0.026110	0.280547	0.003886
35492	-5.261945	0.464257	8.212508	0.959469	0.026125	0.280573	0.003855
35493	-5.283175	0.473045	8.236137	0.959456	0.026146	0.280615	0.003870
35494	-5.253796	0.484743	8.238865	0.959445	0.026201	0.280650	0.003895
35495	-5.283436	0.449020	8.236493	0.959443	0.026232	0.280653	0.003880
35496	-5.255439	0.474920	8.206512	0.959423	0.026257	0.280719	0.003907
35497	-5.282736	0.455371	8.191465	0.959421	0.026295	0.280722	0.003919
35498	-5.287733	0.464972	8.201802	0.959423	0.026342	0.280711	0.003943
35499	-5.268333	0.519994	8.224686	0.959425	0.026394	0.280698	0.003975
35500	-5.243478	0.499366	8.252874	0.959418	0.026444	0.280715	0.004003
35501	-5.240116	0.480813	8.210136	0.959386	0.026519	0.280817	0.004032
35502	-5.261382	0.469703	8.171120	0.959358	0.026621	0.280903	0.004056
35503	-5.271271	0.530624	8.177021	0.959347	0.026697	0.280934	0.004068
35504	-5.274921	0.515337	8.188809	0.959337	0.026737	0.280963	0.004107
35505	-5.287368	0.517537	8.222135	0.959334	0.026778	0.280971	0.004099
35506	-5.259817	0.502308	8.206652	0.959322	0.026833	0.281007	0.004125
35507	-5.262828	0.476111	8.187606	0.959320	0.026876	0.281008	0.004136
35508	-5.264980	0.553833	8.202012	0.959327	0.026876	0.280985	0.004141
35509	-5.270535	0.520758	8.226891	0.959330	0.026859	0.280975	0.004100
35510	-5.237012	0.480522	8.233674	0.959320	0.026835	0.281013	0.004073
35511	-5.263971	0.448865	8.187611	0.959308	0.026802	0.281057	0.004060
35512	-5.286389	0.471639	8.178578	0.959310	0.026820	0.281050	0.004038
35513	-5.289424	0.507359	8.207301	0.959308	0.026810	0.281055	0.004045
35514	-5.268082	0.524841	8.200893	0.959306	0.026771	0.281070	0.004023
35515	-5.278252	0.489150	8.205141	0.959298	0.026710	0.281101	0.003999
35516	-5.270147	0.469813	8.183261	0.959298	0.026656	0.281106	0.003986
35517	-5.287416	0.482767	8.164002	0.959311	0.026603	0.281068	0.003962
35518	-5.274719	0.528099	8.210581	0.959328	0.026530	0.281017	0.003945
35519	-5.271062	0.486613	8.245537	0.959346	0.026460	0.280961	0.003915
35520	-5.255543	0.485401	8.231927	0.959349	0.026418	0.280957	0.003907
35521	-5.264206	0.480533	8.191021	0.959344	0.026357	0.280978	0.003885
35522	-5.268920	0.477274	8.170367	0.959348	0.026297	0.280971	0.003866
35523	-5.276304	0.468487	8.193483	0.959361	0.026237	0.280934	0.003845
35524	-5.246310	0.488779	8.228140	0.959372	0.026174	0.280902	0.003821
35525	-5.266165	0.485323	8.221422	0.959374	0.026125	0.280900	0.003800
35526	-5.264561	0.500169	8.208369	0.959364	0.026056	0.280939	0.003778
35527	-5.255284	0.466430	8.219090	0.959359	0.026020	0.280960	0.003740
35528	-5.266265	0.487190	8.176088	0.959350	0.025995	0.280996	0.003723
35529	-5.255061	0.480611	8.205193	0.959342	0.025931	0.281027	0.003695
35530	-5.264504	0.486205	8.195104	0.959341	0.025865	0.281036	0.003687
35531	-5.259359	0.461088	8.216784	0.959340	0.025789	0.281049	0.003662
35532	-5.284245	0.466335	8.220433	0.959339	0.025732	0.281058	0.003623
35533	-5.280502	0.456029	8.209301	0.959337	0.025681	0.281069	0.003609
35534	-5.278891	0.471298	8.196238	0.959330	0.025649	0.281097	0.003610
35535	-5.255980	0.463692	8.191459	0.959320	0.025637	0.281133	0.003587
35536	-5.266080	0.480681	8.212257	0.959318	0.025587	0.281143	0.003591
35537	-5.260308	0.497733	8.219614	0.959319	0.025553	0.281142	0.003567
35538	-5.274171	0.460482	8.203592	0.959312	0.025501	0.281172	0.003554
35539	-5.275311	0.459303	8.202926	0.959305	0.025464	0.281200	0.003521
35540	-5.287634	0.449372	8.205076	0.959291	0.025457	0.281247	0.003511
35541	-5.278032	0.458230	8.201235	0.959276	0.025450	0.281298	0.003529
35542	-5.292512	0.473972	8.201448	0.959262	0.025438	0.281348	0.003533
35543	-5.274367	0.475428	8.207243	0.959250	0.025414	0.281390	0.003522
35544	-5.277492	0.447551	8.188046	0.959244	0.025383	0.281415	0.003482
35545	-5.289140	0.427047	8.159221	0.959229	0.025378	0.281466	0.003484
35546	-5.300072	0.455256	8.210860	0.959225	0.025373	0.281479	0.003485
35547	-5.283212	0.430331	8.198561	0.959222	0.025404	0.281487	0.003486
35548	-5.269363	0.442105	8.215166	0.959206	0.025477	0.281537	0.003513
35549	-5.272913	0.468927	8.212275	0.959183	0.025572	0.281604	0.003573
35550	-5.278497	0.468782	8.190823	0.959161	0.025651	0.281673	0.003601
35551	-5.280206	0.470234	8.189638	0.959138	0.025729	0.281741	0.003652
35552	-5.286272	0.480543	8.199282	0.959125	0.025807	0.281780	0.003674
35553	-5.271936	0.481990	8.184782	0.959111	0.025871	0.281822	0.003701
35554	-5.301445	0.488190	8.167447	0.959088	0.025940	0.281893	0.003723
35555	-5.277607	0.467685	8.195190	0.959074	0.025976	0.281936	0.003765
35556	-5.285511	0.502535	8.203137	0.959060	0.026021	0.281980	0.003795
35557	-5.256142	0.514372	8.206116	0.959051	0.026063	0.282005	0.003807
35558	-5.273955	0.476536	8.169643	0.959043	0.026054	0.282034	0.003827
35559	-5.303747	0.492059	8.183595	0.959034	0.026054	0.282066	0.003821
35560	-5.299999	0.482940	8.172387	0.959033	0.026052	0.282067	0.003850
35561	-5.288464	0.477244	8.201790	0.959027	0.026030	0.282089	0.003854
35562	-5.278052	0.485957	8.198501	0.959034	0.026029	0.282067	0.003840
35563	-5.273390	0.517959	8.173172	0.959032	0.025990	0.282076	0.003843
35564	-5.279286	0.484429	8.197797	0.959031	0.025950	0.282085	0.003846
35565	-5.302056	0.465194	8.203217	0.959030	0.025920	0.282091	0.003837
35566	-5.276033	0.473822	8.186355	0.959030	0.025897	0.282091	0.003821
35567	-5.290412	0.447610	8.201328	0.959027	0.025879	0.282105	0.003810
35568	-5.285838	0.479597	8.175952	0.959032	0.025850	0.282091	0.003829
35569	-5.288741	0.462476	8.188306	0.959039	0.025811	0.282070	0.003821
35570	-5.273255	0.462029	8.174669	0.959048	0.025803	0.282040	0.003825
35571	-5.282648	0.479248	8.195935	0.959054	0.025766	0.282021	0.003835
35572	-5.296853	0.453302	8.210993	0.959049	0.025772	0.282040	0.003846
35573	-5.268326	0.479067	8.181537	0.959047	0.025793	0.282043	0.003840
35574	-5.282745	0.505950	8.213165	0.959049	0.025822	0.282035	0.003828
35575	-5.280618	0.469793	8.183631	0.959046	0.025799	0.282048	0.003822
35576	-5.280993	0.469418	8.183410	0.959057	0.025806	0.282008	0.003829
35577	-5.294291	0.485074	8.184341	0.959059	0.025782	0.282005	0.003831
35578	-5.281403	0.468463	8.183200	0.959073	0.025779	0.281956	0.003803
35579	-5.273556	0.471305	8.223920	0.959086	0.025737	0.281917	0.003814
35580	-5.285923	0.475836	8.194022	0.959091	0.025720	0.281900	0.003807
35581	-5.264755	0.452178	8.202373	0.959093	0.025710	0.281895	0.003811
35582	-5.278485	0.467888	8.203028	0.959088	0.025715	0.281913	0.003802
35583	-5.294004	0.456715	8.185227	0.959091	0.025723	0.281902	0.003794
35584	-5.284170	0.476376	8.213038	0.959094	0.025720	0.281891	0.003789
35585	-5.283669	0.465556	8.181903	0.959099	0.025729	0.281874	0.003816
35586	-5.283980	0.465469	8.181708	0.959102	0.025724	0.281863	0.003825
35587	-5.288883	0.474200	8.192207	0.959109	0.025727	0.281841	0.003834
35588	-5.265684	0.426149	8.202347	0.959106	0.025770	0.281844	0.003861
35589	-5.273240	0.461183	8.210557	0.959093	0.025826	0.281885	0.003915
35590	-5.278211	0.460703	8.189461	0.959079	0.025905	0.281922	0.003976
35591	-5.295079	0.462281	8.202133	0.959064	0.026019	0.281962	0.004033
35592	-5.296982	0.478750	8.168786	0.959067	0.026113	0.281942	0.004078
35593	-5.281124	0.476664	8.218753	0.959071	0.026173	0.281924	0.004113
35594	-5.241877	0.471360	8.200864	0.959064	0.026248	0.281939	0.004176
35595	-5.310389	0.484283	8.201378	0.959058	0.026304	0.281954	0.004234
35596	-5.276086	0.488143	8.193930	0.959049	0.026400	0.281973	0.004290
35597	-5.284356	0.482599	8.216329	0.959036	0.026486	0.282011	0.004356
35598	-5.291972	0.466586	8.207673	0.959020	0.026613	0.282052	0.004422
35599	-5.293284	0.469636	8.206653	0.958999	0.026809	0.282103	0.004478
35600	-5.281191	0.550934	8.206656	0.958982	0.026981	0.282143	0.004567
35601	-5.296879	0.490593	8.171893	0.958970	0.027106	0.282171	0.004635
35602	-5.297559	0.493450	8.171280	0.958968	0.027276	0.282159	0.004699
35603	-5.297789	0.496708	8.170934	0.958970	0.027432	0.282136	0.004792
35604	-5.265480	0.538208	8.192942	0.958975	0.027598	0.282102	0.004866
35605	-5.273728	0.547920	8.183229	0.958985	0.027699	0.282058	0.004939
35606	-5.240401	0.576856	8.174523	0.958995	0.027743	0.282019	0.004979
35607	-5.263785	0.528079	8.225843	0.959010	0.027735	0.281969	0.004982
35608	-5.295046	0.530494	8.189488	0.959032	0.027705	0.281897	0.004941
35609	-5.283379	0.486151	8.170500	0.959047	0.027649	0.281853	0.004939
35610	-5.269443	0.506632	8.218819	0.959053	0.027590	0.281837	0.004935
35611	-5.281889	0.510741	8.188812	0.959062	0.027562	0.281808	0.004916
35612	-5.274785	0.517078	8.165591	0.959070	0.027512	0.281787	0.004925
35613	-5.285991	0.507061	8.168445	0.959079	0.027486	0.281759	0.004934
35614	-5.282405	0.508268	8.188633	0.959084	0.027476	0.281742	0.004905
35615	-5.282864	0.507223	8.188401	0.959086	0.027418	0.281740	0.004892
35616	-5.303469	0.515038	8.212438	0.959097	0.027423	0.281703	0.004862
35617	-5.285965	0.489402	8.200735	0.959101	0.027388	0.281695	0.004860
35618	-5.283407	0.504813	8.188200	0.959118	0.027359	0.281640	0.004856
35619	-5.263676	0.505996	8.195171	0.959132	0.027318	0.281594	0.004854
35620	-5.263176	0.546349	8.180727	0.959140	0.027263	0.281574	0.004843
35621	-5.248456	0.503692	8.181498	0.959143	0.027199	0.281570	0.004829
35622	-5.271372	0.536314	8.203478	0.959143	0.027164	0.281573	0.004808
35623	-5.265909	0.511683	8.225520	0.959155	0.027106	0.281539	0.004775
35624	-5.264874	0.488514	8.163339	0.959147	0.027030	0.281574	0.004753
35625	-5.253136	0.523265	8.178249	0.959146	0.026980	0.281584	0.004735
35626	-5.254563	0.532233	8.208929	0.959155	0.026879	0.281564	0.004688
35627	-5.253074	0.504487	8.210628	0.959155	0.026775	0.281574	0.004607
35628	-5.262644	0.508899	8.200418	0.959143	0.026662	0.281625	0.004564
35629	-5.281582	0.478842	8.194721	0.959128	0.026540	0.281689	0.004515
35630	-5.309797	0.466840	8.210302	0.959120	0.026442	0.281727	0.004475
35631	-5.273451	0.483552	8.190241	0.959107	0.026382	0.281776	0.004414
35632	-5.285593	0.472389	8.192509	0.959106	0.026287	0.281789	0.004385
35633	-5.284477	0.497206	8.210690	0.959112	0.026185	0.281779	0.004364
35634	-5.266637	0.511228	8.184533	0.959118	0.026060	0.281773	0.004308
35635	-5.262374	0.499271	8.173809	0.959126	0.025915	0.281756	0.004256
35636	-5.280506	0.479341	8.200123	0.959153	0.025768	0.281681	0.004173
35637	-5.275331	0.466812	8.190001	0.959176	0.025598	0.281620	0.004100
35638	-5.266866	0.507761	8.216798	0.959205	0.025405	0.281538	0.003976
35639	-5.256974	0.485228	8.196108	0.959228	0.025183	0.281481	0.003884
35640	-5.282342	0.459946	8.182081	0.959253	0.024958	0.281417	0.003769
35641	-5.280274	0.444583	8.152124	0.959300	0.024766	0.281275	0.003691
35642	-5.243236	0.438774	8.210367	0.959339	0.024553	0.281163	0.003618
35643	-5.243594	0.403188	8.256446	0.959366	0.024338	0.281092	0.003541
35644	-5.264580	0.463536	8.234020	0.959382	0.024166	0.281053	0.003477
35645	-5.251213	0.392368	8.216162	0.959379	0.024067	0.281071	0.003436
35646	-5.282821	0.379318	8.211568	0.959366	0.024044	0.281119	0.003372
35647	-5.277754	0.344764	8.201527	0.959335	0.024061	0.281221	0.003370
35648	-5.324608	0.457246	8.167267	0.959330	0.024041	0.281241	0.003349
35649	-5.308060	0.446184	8.122765	0.959355	0.023999	0.281160	0.003363
35650	-5.254589	0.388320	8.214196	0.959399	0.023973	0.281011	0.003372
35651	-5.270072	0.402278	8.195905	0.959426	0.023986	0.280918	0.003400
35652	-5.229708	0.393835	8.242251	0.959421	0.024157	0.280921	0.003470
35653	-5.227767	0.362182	8.212129	0.959391	0.024408	0.280999	0.003581
35654	-5.231300	0.379002	8.241168	0.959333	0.024774	0.281164	0.003699
35655	-5.248440	0.495710	8.241795	0.959263	0.025104	0.281373	0.003833
35656	-5.287791	0.554512	8.198894	0.959220	0.025299	0.281499	0.003907
35657	-5.292759	0.461537	8.175257	0.959224	0.025386	0.281477	0.003898
35658	-5.281598	0.472179	8.172431	0.959243	0.025474	0.281404	0.003906
35659	-5.271208	0.545291	8.217654	0.959276	0.025500	0.281291	0.003914
35660	-5.203518	0.410195	8.260481	0.959295	0.025573	0.281219	0.003895
35661	-5.266095	0.455553	8.236363	0.959295	0.025682	0.281207	0.003895
35662	-5.236866	0.517524	8.319928	0.959281	0.025816	0.281244	0.003868
35663	-5.249116	0.592484	8.292656	0.959245	0.025873	0.281363	0.003756
35664	-5.265483	0.658658	8.308685	0.959223	0.025709	0.281454	0.003581
35665	-5.224430	0.648187	8.310515	0.959203	0.025403	0.281555	0.003273
35666	-5.158818	0.647292	8.453811	0.959146	0.024963	0.281794	0.002826
35667	-5.054118	0.593093	8.676014	0.958997	0.024359	0.282359	0.002250
35668	-5.009783	0.679396	8.951689	0.958598	0.023572	0.283782	0.001565
35669	-4.717872	0.613393	9.567951	0.957564	0.023169	0.287289	0.000356
35670	-4.625392	1.247489	10.449373	0.955563	0.022679	0.293908	-0.001708
35671	-4.557617	0.818919	11.029973	0.951926	0.022756	0.305446	-0.004673
35672	-4.434893	0.956538	11.269346	0.946080	0.023319	0.322983	-0.008437
35673	-4.433665	1.314225	11.224667	0.937641	0.023588	0.346583	-0.012385
35674	-6.113410	1.834079	10.571041	0.926524	0.022612	0.375168	-0.017074
35675	-8.475000	1.835740	10.880486	0.913876	0.021730	0.404747	-0.023182
35676	-9.508253	3.186404	11.091689	0.901765	0.020829	0.430622	-0.030824
35677	-8.336402	1.943466	9.472460	0.889465	0.017793	0.454907	-0.039938
35678	-7.154337	2.395403	7.906250	0.875896	0.012928	0.479673	-0.050527
35679	-14.057807	0.704488	6.429985	0.861332	0.004552	0.504352	-0.060949
35680	-17.757305	-3.154138	9.007717	0.854429	0.002541	0.514865	-0.069706
35681	-12.836726	-2.011738	7.188832	0.853889	0.012118	0.514170	-0.079721
35682	-9.981542	1.927424	5.312186	0.854684	0.022972	0.510510	-0.091470
35683	-9.640440	2.097612	4.392903	0.854542	0.029489	0.508116	-0.103471
35684	-10.542209	0.565617	4.123217	0.853273	0.034431	0.507428	-0.115139
35685	-11.829134	0.079204	3.948133	0.851582	0.041020	0.507007	-0.126767
35686	-11.779710	0.413301	3.771115	0.850024	0.048717	0.506040	-0.137875
35687	-10.935267	0.816618	3.696182	0.848322	0.056123	0.505409	-0.147516
35688	-10.461557	0.792328	3.690646	0.846304	0.062020	0.505796	-0.155221
35689	-9.785760	0.490197	3.729923	0.844301	0.066577	0.506645	-0.161353
35690	-9.677613	0.090397	3.938698	0.842343	0.070337	0.507841	-0.166158
35691	-9.709025	0.276163	4.100600	0.840509	0.074005	0.509144	-0.169822
35692	-10.099585	0.223740	4.770705	0.838677	0.077101	0.510993	-0.171939
35693	-10.747987	0.211412	5.469302	0.836886	0.079677	0.513323	-0.172547
35694	-10.701432	0.015129	5.772549	0.835598	0.081190	0.515532	-0.171495
35695	-9.979925	-1.096220	5.497318	0.834892	0.082312	0.517220	-0.169302
35696	-8.835593	-1.282189	5.195290	0.834486	0.084275	0.518444	-0.166577
35697	-8.551490	-0.713658	5.436362	0.834220	0.085753	0.519622	-0.163449
35698	-8.417571	-1.032841	5.293190	0.834205	0.086050	0.520644	-0.160083
35699	-8.391905	-1.496762	5.009957	0.834604	0.086325	0.520804	-0.157311
35700	-8.076918	-1.221489	4.644189	0.835535	0.087009	0.519833	-0.155194
35701	-7.241205	-1.027545	4.342984	0.837241	0.086933	0.517853	-0.152637
35702	-5.982203	-1.311107	3.945739	0.839607	0.086088	0.515308	-0.148683
35703	-5.474017	-1.670374	3.573293	0.842348	0.085054	0.512442	-0.143593
35704	-5.021648	-1.882888	3.191108	0.845572	0.083986	0.508797	-0.138131
35705	-4.548850	-1.747257	2.784406	0.849101	0.082582	0.504484	-0.133053
35706	-4.462574	-1.964716	2.218347	0.852891	0.080868	0.499449	-0.128792
35707	-4.416105	-2.174281	1.634702	0.856868	0.079708	0.493682	-0.125312
35708	-4.291318	-2.285771	0.971458	0.860864	0.078714	0.487555	-0.122502
35709	-3.823333	-2.638411	0.129613	0.864651	0.078328	0.481394	-0.120433
35710	-3.347757	-2.195546	-0.306662	0.867912	0.077874	0.475954	-0.118879
35711	-3.560629	-2.424495	-0.603249	0.870490	0.076470	0.471741	-0.117733
35712	-3.570378	-2.825097	-0.818092	0.872355	0.074758	0.468715	-0.117111
35713	-3.125233	-3.105032	-0.854113	0.873295	0.073580	0.467193	-0.116928
35714	-3.218926	-2.915771	-0.368299	0.873125	0.072108	0.467808	-0.116659
35715	-3.517378	-3.493702	0.090606	0.871847	0.069996	0.470623	-0.116180
35716	-3.469347	-4.328939	0.541797	0.869598	0.068380	0.474951	-0.116383
35717	-3.971773	-3.409190	1.464014	0.866556	0.066440	0.480405	-0.117803
35718	-4.517684	-3.021863	1.930338	0.863150	0.062888	0.486417	-0.120062
35719	-4.893366	-3.085319	2.280484	0.859513	0.058698	0.492585	-0.123092
35720	-5.321694	-2.694301	2.422583	0.855704	0.054966	0.498605	-0.127050
35721	-5.389915	-2.234596	2.632651	0.851861	0.051308	0.504304	-0.131828
35722	-5.394303	-2.104226	3.001096	0.847881	0.047890	0.509945	-0.136966
35723	-5.858432	-1.901615	3.296085	0.843851	0.045104	0.515538	-0.141781
35724	-6.038526	-2.524020	2.832677	0.839995	0.042922	0.520814	-0.146011
35725	-5.713656	-2.611680	2.165747	0.836275	0.041979	0.525695	-0.150087
35726	-5.868000	-2.121320	2.104228	0.832671	0.040444	0.530197	-0.154641
35727	-5.797560	-2.643625	2.475392	0.829301	0.037751	0.533959	-0.160380
35728	-6.418843	-1.583460	3.254994	0.825932	0.034905	0.537289	-0.167147
35729	-7.050797	-1.500247	3.328490	0.822755	0.031683	0.540375	-0.173390
35730	-7.506920	-1.361694	2.999321	0.820183	0.029611	0.542846	-0.178160
35731	-7.438886	-0.185445	3.113797	0.818490	0.026880	0.544913	-0.180060
35732	-7.871570	-1.344592	3.400965	0.817416	0.023038	0.546822	-0.179685
35733	-8.481778	-1.447538	4.445474	0.816902	0.019860	0.547999	-0.178809
35734	-9.975755	-0.473607	5.637616	0.816984	0.016431	0.548488	-0.177280
35735	-11.107273	-1.608951	5.541849	0.818112	0.012826	0.547801	-0.174476
35736	-10.838989	-2.797917	4.450894	0.820381	0.011813	0.545746	-0.170282
35737	-9.046651	-1.834263	4.288224	0.822534	0.012577	0.544370	-0.164135
35738	-9.036628	0.121985	5.556897	0.823228	0.011825	0.545896	-0.155415
35739	-12.128638	0.537455	6.961430	0.823090	0.006301	0.549162	-0.144583
35740	-14.437286	-0.880811	7.398606	0.824280	-0.001667	0.550118	-0.133903
35741	-13.819927	-1.481375	6.975059	0.827515	-0.008151	0.547578	-0.123737
35742	-12.637212	-0.755176	5.798297	0.832150	-0.013474	0.542698	-0.113246
35743	-11.223107	-0.978146	5.235591	0.836876	-0.019256	0.537328	-0.102698
35744	-10.952851	-0.062454	5.637107	0.840689	-0.025176	0.532932	-0.092691
35745	-11.388805	0.651677	6.012145	0.843314	-0.031161	0.530060	-0.082990
35746	-11.342067	0.317803	5.683610	0.845131	-0.034354	0.528406	-0.073214
35747	-10.779732	0.855701	5.232809	0.846265	-0.033315	0.527965	-0.063078
35748	-22.002218	-3.566457	5.306121	0.845657	-0.026235	0.530281	-0.054579
35749	-19.089492	-3.805425	5.593896	0.860156	-0.011982	0.507429	-0.050034
35750	-2.951605	2.244410	0.445414	0.870463	0.004140	0.490124	-0.045341
35751	-6.439820	3.139464	9.371104	0.879232	0.016856	0.474260	-0.041775
35752	-4.160231	3.130944	6.696519	0.885031	0.023154	0.463385	-0.038183
35753	-11.225454	-1.646016	7.630569	0.890268	0.027659	0.453286	-0.034481
35754	-10.215053	0.036813	8.756661	0.896836	0.035510	0.439915	-0.029989
35755	-9.099253	0.742864	7.327900	0.904460	0.043856	0.423572	-0.024808
35756	-7.723885	1.927720	7.425095	0.911912	0.051580	0.406634	-0.020131
35757	-6.910058	2.738295	8.196265	0.918806	0.057421	0.390172	-0.016247
35758	-6.411221	3.249099	7.692767	0.925056	0.060645	0.374714	-0.013484
35759	-6.185046	3.324562	8.123227	0.930682	0.061190	0.360464	-0.012346
35760	-6.039677	2.371971	8.146353	0.935688	0.059596	0.347535	-0.012448
35761	-5.970929	1.551705	8.044818	0.940149	0.057007	0.335701	-0.013225
35762	-5.852375	1.107634	8.311354	0.944031	0.054159	0.325060	-0.014424
35763	-5.655893	1.070055	8.612168	0.947269	0.051358	0.315918	-0.015479
35764	-5.365086	0.377027	9.076656	0.949780	0.048946	0.308616	-0.016681
35765	-5.353410	0.100628	9.023331	0.951394	0.047240	0.303837	-0.017379
35766	-5.361011	0.208151	8.658612	0.952427	0.046185	0.300722	-0.017770
35767	-5.479143	0.357012	8.295991	0.953072	0.045648	0.298755	-0.017794
35768	-5.201382	0.340752	8.332006	0.953369	0.045594	0.297833	-0.017426
35769	-5.479258	0.700083	8.026905	0.953668	0.045663	0.296884	-0.017078
35770	-5.477175	0.759439	8.021016	0.953978	0.045660	0.295908	-0.016732
35771	-5.367298	0.911545	8.135019	0.954304	0.045510	0.294892	-0.016487
35772	-5.464429	1.013105	8.138395	0.954654	0.045031	0.293834	-0.016441
35773	-5.408363	0.938481	8.165214	0.955027	0.044222	0.292734	-0.016565
35774	-5.457839	0.765185	8.009890	0.955417	0.043271	0.291589	-0.016777
35775	-5.413206	0.741513	8.105511	0.955809	0.042276	0.290433	-0.017038
35776	-5.344940	0.572314	8.110891	0.956198	0.041298	0.289272	-0.017353
35777	-5.311955	0.704499	8.228474	0.956526	0.040437	0.288289	-0.017661
35778	-5.350202	0.503091	8.250687	0.956799	0.039692	0.287466	-0.017972
35779	-5.417875	0.532023	8.181102	0.956967	0.039199	0.286957	-0.018265
35780	-5.416543	0.545060	8.163704	0.957110	0.038883	0.286500	-0.018618
35781	-5.370687	0.488685	8.148456	0.957278	0.038651	0.285941	-0.019026
35782	-5.316653	0.425471	8.207108	0.957431	0.038447	0.285439	-0.019311
35783	-5.317027	0.512234	8.190505	0.957536	0.038303	0.285096	-0.019422
35784	-5.362770	0.658200	8.203896	0.957615	0.038163	0.284846	-0.019498
35785	-5.408614	0.805629	8.153154	0.957696	0.038034	0.284574	-0.019747
35786	-5.194402	0.873050	8.281648	0.957795	0.037716	0.284247	-0.020228
35787	-5.145926	0.541730	8.276394	0.957875	0.037255	0.283995	-0.020849
35788	-5.241224	0.379045	8.091110	0.957877	0.036895	0.284003	-0.021258
35789	-5.094262	0.418938	8.124184	0.957890	0.036609	0.283975	-0.021549
35790	-5.198696	0.693291	8.094673	0.957883	0.036094	0.284038	-0.021906
35791	-5.528351	-0.013529	7.763339	0.958003	0.035555	0.283676	-0.022208
35792	-5.479769	0.282234	7.671473	0.958218	0.035334	0.282971	-0.022286
35793	-5.359449	0.778204	8.026006	0.958638	0.034758	0.281606	-0.022442
35794	-5.341664	0.570182	8.249286	0.959160	0.033877	0.279917	-0.022592
35795	-5.144388	0.378942	8.376983	0.959683	0.032764	0.278245	-0.022686
35796	-5.063968	0.328714	8.408051	0.960046	0.032099	0.277072	-0.022636
35797	-5.101958	-0.032818	8.301848	0.960315	0.031777	0.276183	-0.022529
35798	-5.177810	0.359668	8.341804	0.960493	0.031786	0.275589	-0.022225
35799	-5.185350	0.236911	8.385062	0.960574	0.032014	0.275306	-0.021875
35800	-5.045076	-0.050178	8.481189	0.960568	0.032721	0.275286	-0.021330
35801	-5.233732	0.808125	8.389884	0.960469	0.033544	0.275579	-0.020742
35802	-5.249094	0.845545	8.279036	0.960408	0.034094	0.275748	-0.020440
35803	-5.246370	0.968950	8.240844	0.960408	0.034150	0.275745	-0.020362
35804	-5.129837	0.554780	8.323172	0.960426	0.034059	0.275693	-0.020375
35805	-5.160500	0.444717	8.298776	0.960391	0.034070	0.275813	-0.020396
35806	-5.215337	0.454878	8.284514	0.960364	0.034216	0.275888	-0.020419
35807	-5.133497	0.379172	8.329412	0.960286	0.034423	0.276130	-0.020444
35808	-5.233903	0.592906	8.242472	0.960174	0.034567	0.276501	-0.020432
35809	-5.080926	0.426785	8.399456	0.960057	0.034771	0.276878	-0.020489
35810	-4.824660	0.279455	8.635687	0.959621	0.035531	0.278243	-0.021109
35811	-5.222877	0.332030	8.256914	0.958643	0.037346	0.281190	-0.023271
35812	-5.205661	0.223119	8.250383	0.957658	0.039516	0.284087	-0.024973
35813	-5.451630	0.468641	8.007547	0.956738	0.041439	0.286849	-0.025548
35814	-5.218429	0.134949	8.267745	0.955765	0.044191	0.289687	-0.025357
35815	-5.362437	0.249561	8.288794	0.954519	0.048513	0.293152	-0.024526
35816	-5.497397	0.545633	8.227936	0.952974	0.053558	0.297360	-0.023441
35817	-5.649360	0.743892	8.140554	0.951244	0.058771	0.301954	-0.022468
35818	-5.770257	1.003514	7.981958	0.949639	0.063876	0.306008	-0.021571
35819	-5.968445	1.918325	7.497882	0.948520	0.067105	0.308826	-0.020825
35820	-5.972914	1.676427	7.384490	0.947981	0.068649	0.310170	-0.020345
35821	-5.849029	1.505201	7.421657	0.947795	0.069312	0.310607	-0.020074
35822	-5.741936	1.179251	7.509645	0.947756	0.069511	0.310697	-0.019853
35823	-5.748697	0.861781	7.791528	0.947749	0.069598	0.310727	-0.019401
35824	-5.778372	0.819836	7.823115	0.947704	0.069914	0.310835	-0.018710
35825	-5.768903	0.942044	7.988748	0.947605	0.070624	0.311020	-0.017966
35826	-5.721563	1.149247	8.027249	0.947425	0.071831	0.311331	-0.017322
35827	-5.821527	1.134998	8.121171	0.947158	0.073303	0.311823	-0.016851
35828	-5.834650	1.273302	7.624523	0.946935	0.074721	0.312186	-0.016443
35829	-5.747457	1.367860	7.667885	0.946785	0.075808	0.312401	-0.016029
35830	-5.754826	1.191371	7.774584	0.946634	0.076534	0.312703	-0.015578
35831	-5.790205	1.195565	7.762940	0.946461	0.077291	0.313073	-0.014908
35832	-5.742478	1.723033	7.425237	0.946265	0.077793	0.313571	-0.014254
35833	-5.645207	2.125242	7.147471	0.946083	0.077490	0.314204	-0.014075
35834	-5.736146	2.130434	7.209793	0.945949	0.075959	0.314954	-0.014660
35835	-5.847951	1.909982	7.336832	0.945868	0.073060	0.315815	-0.016044
35836	-6.322440	2.413533	6.751849	0.946202	0.068394	0.315731	-0.018405
35837	-6.552218	1.590136	7.122301	0.947811	0.061220	0.312177	-0.021277
35838	-5.886618	-0.322215	8.315996	0.949863	0.055324	0.306852	-0.023283
35839	-5.367477	-0.031362	8.600713	0.951541	0.051083	0.302270	-0.024343
35840	-5.210884	-0.347600	8.733644	0.952518	0.048768	0.299556	-0.024418
35841	-5.446301	0.663820	8.231251	0.953062	0.047312	0.298083	-0.024118
35842	-5.624836	0.810353	7.912350	0.953537	0.045948	0.296805	-0.023711
35843	-5.585119	0.632598	7.995624	0.954183	0.044338	0.294996	-0.023351
35844	-5.433760	0.360445	8.162402	0.954736	0.043168	0.293411	-0.022927
35845	-5.313534	0.259054	8.332090	0.954968	0.042666	0.292747	-0.022696
35846	-5.450992	0.580972	8.069095	0.955061	0.042548	0.292478	-0.022483
35847	-5.458341	0.651306	8.043332	0.955195	0.042361	0.292078	-0.022312
35848	-5.330134	0.275936	8.218719	0.955275	0.042441	0.291827	-0.022041
35849	-5.265254	0.426603	8.272501	0.955167	0.042886	0.292152	-0.021533
35850	-5.505245	0.661752	8.002649	0.954900	0.043579	0.292959	-0.021010
35851	-5.548568	0.854598	7.877013	0.954692	0.044134	0.293581	-0.020604
35852	-5.462710	0.753923	8.000703	0.954642	0.044426	0.293718	-0.020350
35853	-5.400201	0.506699	8.223803	0.954492	0.044881	0.294155	-0.020070
35854	-5.442092	0.505537	8.126596	0.954203	0.045748	0.294987	-0.019656
35855	-5.496379	0.567811	8.101533	0.953747	0.047378	0.296236	-0.019135
35856	-5.642366	0.805889	7.828290	0.953278	0.049545	0.297424	-0.018596
35857	-5.629453	0.849654	7.934206	0.952915	0.051642	0.298250	-0.018231
35858	-5.503980	0.759666	8.165608	0.952580	0.053757	0.298968	-0.017890
35859	-5.500355	0.678177	8.125488	0.952131	0.055791	0.300045	-0.017498
35860	-5.613667	0.838436	8.004368	0.951594	0.057801	0.301396	-0.016998
35861	-5.771861	1.338730	7.630262	0.951169	0.059458	0.302437	-0.016576
35862	-5.717569	1.257564	7.670269	0.951031	0.060368	0.302700	-0.016369
35863	-5.602722	0.831149	7.947791	0.950948	0.061180	0.302805	-0.016241
35864	-5.536673	0.546060	8.196573	0.950705	0.062421	0.303334	-0.015860
35865	-5.623418	0.929188	8.079856	0.950302	0.064007	0.304295	-0.015287
35866	-5.735436	1.443935	7.768591	0.949898	0.065388	0.305286	-0.014765
35867	-5.811417	1.738191	7.419288	0.949727	0.066094	0.305676	-0.014559
35868	-5.714320	1.384632	7.681133	0.949816	0.066095	0.305396	-0.014641
35869	-5.622207	0.826326	7.941875	0.949866	0.066305	0.305196	-0.014653
35870	-5.607207	0.854895	8.063302	0.949823	0.066797	0.305230	-0.014445
35871	-5.560767	0.759294	7.923826	0.949671	0.067112	0.305645	-0.014251
35872	-5.706441	1.255939	7.835383	0.949516	0.067463	0.306061	-0.013951
35873	-5.756283	1.505293	7.622858	0.949472	0.067529	0.306187	-0.013872
35874	-5.740281	1.297673	7.774239	0.949531	0.067243	0.306066	-0.013905
35875	-5.707150	1.239179	7.803305	0.949601	0.066952	0.305909	-0.013973
35876	-5.743901	1.262932	7.752499	0.949709	0.066611	0.305642	-0.014080
35877	-5.640138	1.064621	7.896149	0.949863	0.066247	0.305236	-0.014210
35878	-5.665636	1.033345	7.929819	0.949984	0.065905	0.304931	-0.014308
35879	-5.708392	1.042262	7.957229	0.950086	0.065513	0.304689	-0.014446
35880	-5.733943	1.160793	7.814876	0.950210	0.064999	0.304404	-0.014636
35881	-5.756326	1.358794	7.725258	0.950512	0.063962	0.303667	-0.014914
35882	-5.788473	1.158631	7.597094	0.951037	0.062352	0.302335	-0.015313
35883	-5.613762	0.874494	8.045374	0.951658	0.060700	0.300687	-0.015802
35884	-5.524417	0.820028	8.082514	0.952146	0.059391	0.299378	-0.016217
35885	-5.507787	0.901645	8.059609	0.952531	0.058299	0.298347	-0.016556
35886	-5.497495	0.982329	8.014254	0.952878	0.057215	0.297431	-0.016871
35887	-5.488532	0.927897	8.053829	0.953227	0.055952	0.296530	-0.017232
35888	-5.452670	0.783780	8.060836	0.953549	0.054642	0.295723	-0.017509
35889	-5.463612	0.712756	8.059446	0.953773	0.053471	0.295209	-0.017617
35890	-5.511391	0.766807	8.030152	0.953949	0.052462	0.294820	-0.017597
35891	-5.519791	0.793295	8.051801	0.954093	0.051614	0.294506	-0.017553
35892	-5.496767	0.794488	8.029961	0.954209	0.050860	0.294267	-0.017452
35893	-5.493698	0.849807	8.033959	0.954325	0.050126	0.294025	-0.017361
35894	-5.487284	0.851749	8.024778	0.954453	0.049336	0.293748	-0.017273
35895	-5.463484	0.786734	8.086682	0.954579	0.048503	0.293479	-0.017242
35896	-5.468434	0.805754	8.097191	0.954682	0.047695	0.293278	-0.017197
35897	-5.457163	0.730795	8.160447	0.954761	0.046886	0.293152	-0.017185
35898	-5.468532	0.800248	8.098929	0.954807	0.046059	0.293136	-0.017152
35899	-5.464716	0.716360	8.036351	0.954893	0.045189	0.292990	-0.017168
35900	-5.461547	0.618738	8.071636	0.954981	0.044383	0.292822	-0.017229
35901	-5.443339	0.577107	8.043785	0.955043	0.043719	0.292718	-0.017277
35902	-5.453515	0.609995	7.998914	0.955109	0.043191	0.292576	-0.017316
35903	-5.487788	0.665786	8.007503	0.955172	0.042765	0.292433	-0.017367
35904	-5.422633	0.630541	8.004686	0.955248	0.042384	0.292233	-0.017443
35905	-5.442502	0.713771	7.998270	0.955337	0.042046	0.291986	-0.017535
35906	-5.448689	0.668922	7.987303	0.955458	0.041640	0.291641	-0.017638
35907	-5.390282	0.638182	8.040448	0.955611	0.041193	0.291197	-0.017777
35908	-5.440192	0.620838	8.107389	0.955749	0.040758	0.290796	-0.017920
35909	-5.402209	0.419541	8.111519	0.955847	0.040407	0.290517	-0.018020
35910	-5.410176	0.612931	8.141555	0.955895	0.040189	0.290386	-0.018038
35911	-5.418434	0.683607	8.134030	0.955927	0.039972	0.290311	-0.018055
35912	-5.441482	0.601713	8.085266	0.955962	0.039742	0.290223	-0.018103
35913	-5.419757	0.657344	8.064941	0.956007	0.039529	0.290101	-0.018139
35914	-5.436609	0.621625	8.041777	0.956072	0.039278	0.289916	-0.018209
35915	-5.433298	0.630411	8.095013	0.956154	0.038993	0.289679	-0.018312
35916	-5.422756	0.534032	8.119064	0.956229	0.038779	0.289455	-0.018413
35917	-5.413145	0.605082	8.100002	0.956298	0.038569	0.289249	-0.018491
35918	-5.388992	0.674232	8.132093	0.956387	0.038265	0.288988	-0.018605
35919	-5.387931	0.553093	8.192481	0.956471	0.037901	0.288745	-0.018758
35920	-5.346922	0.537615	8.159008	0.956547	0.037538	0.288534	-0.018899
35921	-5.412919	0.523513	8.108771	0.956611	0.037144	0.288362	-0.019038
35922	-5.392569	0.462279	8.146802	0.956676	0.036835	0.288179	-0.019166
35923	-5.397072	0.479000	8.125218	0.956709	0.036617	0.288090	-0.019248
35924	-5.381481	0.544066	8.115030	0.956740	0.036435	0.288008	-0.019297
35925	-5.388395	0.657675	8.112686	0.956785	0.036132	0.287893	-0.019379
35926	-5.369220	0.511655	8.161209	0.956850	0.035727	0.287712	-0.019557
35927	-5.402574	0.485181	8.118049	0.956911	0.035355	0.287548	-0.019704
35928	-5.348329	0.469272	8.134402	0.956965	0.035048	0.287395	-0.019821
35929	-5.383831	0.443290	8.154515	0.957011	0.034821	0.287264	-0.019941
35930	-5.378478	0.470469	8.129752	0.957037	0.034594	0.287198	-0.020019
35931	-5.379927	0.449725	8.143338	0.957068	0.034384	0.287117	-0.020075
35932	-5.365720	0.457874	8.161525	0.957090	0.034202	0.287061	-0.020103
35933	-5.382867	0.480546	8.108824	0.957124	0.034035	0.286965	-0.020144
35934	-5.357904	0.526033	8.142351	0.957162	0.033827	0.286857	-0.020221
35935	-5.357462	0.464553	8.171746	0.957200	0.033650	0.286746	-0.020311
35936	-5.353446	0.435838	8.174948	0.957213	0.033503	0.286714	-0.020391
35937	-5.358486	0.471299	8.138876	0.957202	0.033380	0.286760	-0.020446
35938	-5.345645	0.453671	8.138066	0.957198	0.033309	0.286780	-0.020489
35939	-5.390343	0.454307	8.133106	0.957190	0.033266	0.286810	-0.020524
35940	-5.339235	0.444913	8.146905	0.957182	0.033262	0.286835	-0.020547
35941	-5.368605	0.474691	8.146415	0.957163	0.033228	0.286899	-0.020567
35942	-5.373644	0.498470	8.142843	0.957148	0.033176	0.286953	-0.020598
35943	-5.386919	0.416483	8.121984	0.957134	0.033160	0.287002	-0.020629
35944	-5.367212	0.435432	8.115541	0.957119	0.033151	0.287055	-0.020611
35945	-5.365365	0.437903	8.135141	0.957114	0.033174	0.287067	-0.020596
35946	-5.391162	0.443905	8.137239	0.957096	0.033214	0.287127	-0.020548
35947	-5.397937	0.453684	8.146614	0.957089	0.033276	0.287144	-0.020519
35948	-5.377974	0.460277	8.089593	0.957087	0.033327	0.287149	-0.020475
35949	-5.394513	0.487492	8.120336	0.957110	0.033335	0.287074	-0.020437
35950	-5.367351	0.440896	8.133669	0.957152	0.033330	0.286935	-0.020407
35951	-5.357853	0.462041	8.162476	0.957183	0.033339	0.286834	-0.020391
35952	-5.367745	0.479777	8.183737	0.957214	0.033336	0.286733	-0.020372
35953	-5.391219	0.443644	8.118709	0.957244	0.033329	0.286633	-0.020365
35954	-5.370697	0.446739	8.127009	0.957287	0.033313	0.286494	-0.020332
35955	-5.376395	0.439488	8.151364	0.957333	0.033322	0.286342	-0.020293
35956	-5.367088	0.474873	8.147404	0.957383	0.033369	0.286173	-0.020242
35957	-5.343990	0.522391	8.161155	0.957436	0.033365	0.285997	-0.020203
35958	-5.340398	0.480770	8.178076	0.957484	0.033314	0.285844	-0.020182
35959	-5.366137	0.482740	8.161974	0.957526	0.033260	0.285711	-0.020163
35960	-5.338697	0.435164	8.175456	0.957560	0.033220	0.285603	-0.020143
35961	-5.338566	0.448333	8.143007	0.957587	0.033214	0.285515	-0.020104
35962	-5.359990	0.470079	8.133855	0.957620	0.033231	0.285405	-0.020072
35963	-5.343528	0.441449	8.167799	0.957660	0.033238	0.285273	-0.020035
35964	-5.322755	0.445064	8.176170	0.957700	0.033248	0.285140	-0.019985
35965	-5.351068	0.432728	8.172510	0.957728	0.033309	0.285045	-0.019927
35966	-5.334700	0.462534	8.177598	0.957744	0.033381	0.284988	-0.019848
35967	-5.361549	0.467315	8.160655	0.957773	0.033470	0.284886	-0.019761
35968	-5.340580	0.417834	8.133025	0.957799	0.033582	0.284791	-0.019668
35969	-5.337057	0.451443	8.171483	0.957816	0.033808	0.284715	-0.019547
35970	-5.324307	0.509288	8.173616	0.957826	0.034006	0.284667	-0.019413
35971	-5.302735	0.532200	8.168064	0.957843	0.034135	0.284601	-0.019330
35972	-5.314466	0.592588	8.173369	0.957863	0.034151	0.284534	-0.019300
35973	-5.295909	0.412171	8.151515	0.957895	0.034105	0.284436	-0.019265
35974	-5.327864	0.535560	8.152330	0.957927	0.034064	0.284333	-0.019237
35975	-5.331191	0.418812	8.189437	0.957956	0.034127	0.284229	-0.019206
35976	-5.316855	0.530577	8.163928	0.957991	0.034189	0.284109	-0.019169
35977	-5.310317	0.577044	8.190234	0.958038	0.034166	0.283952	-0.019173
35978	-5.304854	0.523279	8.176310	0.958075	0.034076	0.283838	-0.019167
35979	-5.289935	0.560490	8.212769	0.958122	0.033913	0.283696	-0.019195
35980	-5.310604	0.466281	8.197205	0.958170	0.033737	0.283552	-0.019252
35981	-5.294789	0.447447	8.198354	0.958215	0.033575	0.283415	-0.019289
35982	-5.306519	0.516625	8.171544	0.958256	0.033425	0.283291	-0.019342
35983	-5.274674	0.539631	8.228109	0.958296	0.033211	0.283174	-0.019448
35984	-5.303660	0.507177	8.173992	0.958338	0.032937	0.283053	-0.019588
35985	-5.324004	0.509112	8.198503	0.958370	0.032670	0.282965	-0.019745
35986	-5.308680	0.460408	8.181400	0.958403	0.032416	0.282872	-0.019914
35987	-5.280760	0.479090	8.217201	0.958423	0.032168	0.282819	-0.020090
35988	-5.290988	0.436282	8.202443	0.958430	0.031948	0.282809	-0.020260
35989	-5.308955	0.443995	8.182128	0.958423	0.031755	0.282842	-0.020423
35990	-5.312848	0.436945	8.161519	0.958429	0.031576	0.282830	-0.020574
35991	-5.299401	0.444644	8.179199	0.958444	0.031380	0.282790	-0.020730
35992	-5.306112	0.405110	8.184901	0.958465	0.031190	0.282728	-0.020903
35993	-5.290129	0.428488	8.190188	0.958486	0.030969	0.282667	-0.021095
35994	-5.282359	0.444487	8.218118	0.958480	0.030777	0.282694	-0.021269
