// Start Time: Unknown
// Update Rate: 60.0Hz
// Filter Profile: human (46.1)
// Option Flags: AHS Disabled ICC Disabled 
// Firmware Version: 4.3.5
PacketCounter	Acc_X	Acc_Y	Acc_Z	Quat_q0	Quat_q1	Quat_q2	Quat_q3
34999	-9.439723	0.589534	-2.215316	-0.623614	-0.041209	-0.780645	-0.000753
35000	-9.380922	0.617766	-2.284162	-0.623811	-0.040527	-0.780523	-0.001404
35001	-9.457137	0.672297	-2.314588	-0.623964	-0.039836	-0.780434	-0.002094
35002	-9.457630	0.711229	-2.271614	-0.624135	-0.039130	-0.780331	-0.002857
35003	-9.568726	0.666944	-2.225844	-0.624369	-0.038426	-0.780175	-0.003571
35004	-9.612774	0.609804	-2.156884	-0.624702	-0.037710	-0.779941	-0.004218
35005	-9.555490	0.642283	-2.015704	-0.625055	-0.036930	-0.779691	-0.004846
35006	-9.514681	0.681437	-2.080572	-0.625500	-0.036127	-0.779369	-0.005472
35007	-9.465480	0.803461	-2.228063	-0.625987	-0.035274	-0.779010	-0.006211
35008	-9.374271	1.004544	-2.385939	-0.626478	-0.034232	-0.778655	-0.007141
35009	-9.410818	0.975969	-2.384870	-0.626897	-0.032899	-0.778363	-0.008281
35010	-9.388213	0.779984	-2.320816	-0.627299	-0.031141	-0.778095	-0.009697
35011	-9.272204	0.553863	-2.351686	-0.627686	-0.029309	-0.777832	-0.011306
35012	-9.316153	0.407708	-2.333490	-0.628018	-0.027681	-0.777600	-0.012855
35013	-9.291237	0.286150	-2.278716	-0.628096	-0.026472	-0.777557	-0.014122
35014	-9.442575	0.270964	-2.166870	-0.627968	-0.025703	-0.777670	-0.014985
35015	-9.517407	0.290047	-2.140913	-0.627796	-0.025451	-0.777812	-0.015267
35016	-9.524973	0.455520	-2.061809	-0.627686	-0.025542	-0.777901	-0.015096
35017	-9.532860	0.584818	-2.044228	-0.627600	-0.025745	-0.777967	-0.014905
35018	-9.591579	0.643194	-2.005415	-0.627584	-0.025942	-0.777976	-0.014780
35019	-9.583027	0.673542	-2.119899	-0.627691	-0.026013	-0.777887	-0.014783
35020	-9.591892	0.733780	-2.263324	-0.627830	-0.026021	-0.777774	-0.014792
35021	-9.533678	0.835058	-2.373789	-0.628064	-0.025924	-0.777588	-0.014824
35022	-9.484137	0.815130	-2.296791	-0.628349	-0.025753	-0.777362	-0.014914
35023	-9.468946	0.783993	-2.363185	-0.628709	-0.025466	-0.777077	-0.015064
35024	-9.470611	0.745256	-2.252595	-0.629068	-0.025152	-0.776794	-0.015228
35025	-9.455265	0.677003	-2.215032	-0.629418	-0.024795	-0.776518	-0.015419
35026	-9.439771	0.626794	-2.167314	-0.629747	-0.024274	-0.776261	-0.015778
35027	-9.441178	0.624807	-2.119452	-0.630050	-0.023807	-0.776022	-0.016135
35028	-9.426185	0.665995	-2.143338	-0.630407	-0.023301	-0.775739	-0.016547
35029	-9.496851	0.857079	-2.195063	-0.630771	-0.022675	-0.775450	-0.017057
35030	-9.472791	0.854935	-2.104897	-0.631079	-0.021901	-0.775209	-0.017631
35031	-9.387259	0.682648	-1.895732	-0.631252	-0.020790	-0.775080	-0.018446
35032	-9.445975	0.471501	-1.906303	-0.631415	-0.019506	-0.774954	-0.019520
35033	-9.446334	0.329840	-2.009830	-0.631610	-0.018485	-0.774797	-0.020416
35034	-9.499707	0.511138	-2.084711	-0.631790	-0.017832	-0.774648	-0.021053
35035	-9.450314	0.602392	-2.090284	-0.631925	-0.017243	-0.774535	-0.021655
35036	-9.433495	0.538444	-2.142808	-0.631974	-0.016562	-0.774494	-0.022210
35037	-9.449928	0.600232	-2.027975	-0.631918	-0.015766	-0.774537	-0.022894
35038	-9.363986	0.522588	-2.001971	-0.631868	-0.014859	-0.774569	-0.023756
35039	-9.371110	0.406421	-2.070568	-0.631788	-0.013978	-0.774624	-0.024645
35040	-9.445678	0.370564	-2.033860	-0.631649	-0.013399	-0.774724	-0.025345
35041	-9.504055	0.414462	-2.047893	-0.631443	-0.013198	-0.774884	-0.025690
35042	-9.587571	0.490981	-1.999779	-0.631199	-0.013380	-0.775079	-0.025710
35043	-9.654316	0.555564	-1.972650	-0.631032	-0.013597	-0.775216	-0.025585
35044	-9.611965	0.684242	-1.911558	-0.630885	-0.013916	-0.775340	-0.025268
35045	-9.628584	0.747448	-1.904024	-0.630784	-0.014224	-0.775427	-0.024938
35046	-9.663729	0.899198	-2.036545	-0.630796	-0.014509	-0.775421	-0.024640
35047	-9.589308	1.061589	-2.083654	-0.630903	-0.014732	-0.775336	-0.024463
35048	-9.573014	1.104390	-2.112852	-0.630987	-0.014743	-0.775264	-0.024568
35049	-9.521967	1.033618	-2.134767	-0.631111	-0.014457	-0.775161	-0.024802
35050	-9.462709	0.988492	-2.062017	-0.631215	-0.013950	-0.775074	-0.025163
35051	-9.530199	0.908355	-2.051824	-0.631352	-0.013178	-0.774956	-0.025789
35052	-9.528481	0.656756	-2.056928	-0.631600	-0.012328	-0.774742	-0.026519
35053	-9.586493	0.461906	-1.996744	-0.631868	-0.011598	-0.774514	-0.027127
35054	-9.553969	0.439861	-2.053946	-0.632185	-0.011072	-0.774249	-0.027527
35055	-9.497652	0.525102	-2.105933	-0.632520	-0.010712	-0.773973	-0.027735
35056	-9.431620	0.512668	-2.120620	-0.632847	-0.010403	-0.773704	-0.027899
35057	-9.381938	0.507194	-2.031631	-0.633164	-0.010221	-0.773445	-0.027944
35058	-9.365758	0.456991	-2.028211	-0.633444	-0.010121	-0.773218	-0.027929
35059	-9.358370	0.417287	-2.119439	-0.633619	-0.010191	-0.773077	-0.027846
35060	-9.349291	0.372714	-2.089804	-0.633624	-0.010455	-0.773078	-0.027613
35061	-9.348314	0.353139	-2.083396	-0.633508	-0.010894	-0.773179	-0.027268
35062	-9.347674	0.387780	-2.087107	-0.633340	-0.011510	-0.773325	-0.026764
35063	-9.423902	0.509553	-2.056828	-0.633148	-0.012179	-0.773492	-0.026201
35064	-9.483643	0.656846	-2.068177	-0.632934	-0.012843	-0.773675	-0.025623
35065	-9.508482	0.743431	-2.041207	-0.632722	-0.013516	-0.773855	-0.025072
35066	-9.525120	0.859973	-2.003506	-0.632494	-0.014167	-0.774048	-0.024515
35067	-9.557577	0.867185	-2.084006	-0.632250	-0.014687	-0.774249	-0.024163
35068	-9.555372	0.814228	-2.124359	-0.632061	-0.015037	-0.774403	-0.023943
35069	-9.536378	0.746923	-2.101185	-0.631939	-0.015273	-0.774504	-0.023748
35070	-9.492497	0.680417	-2.117903	-0.631872	-0.015466	-0.774561	-0.023552
35071	-9.492053	0.696096	-2.110531	-0.631819	-0.015699	-0.774606	-0.023295
35072	-9.432570	0.725112	-2.123652	-0.631742	-0.015968	-0.774672	-0.023048
35073	-9.482911	0.759994	-2.168393	-0.631624	-0.016212	-0.774769	-0.022833
35074	-9.532182	0.720369	-2.112208	-0.631506	-0.016491	-0.774867	-0.022584
35075	-9.539640	0.705112	-2.054814	-0.631437	-0.016758	-0.774925	-0.022334
35076	-9.564208	0.686614	-2.110231	-0.631405	-0.016945	-0.774952	-0.022152
35077	-9.580778	0.679842	-2.163884	-0.631454	-0.017161	-0.774914	-0.021916
35078	-9.548127	0.762269	-2.203328	-0.631565	-0.017377	-0.774827	-0.021617
35079	-9.456715	0.837818	-2.189354	-0.631759	-0.017543	-0.774672	-0.021361
35080	-9.450073	0.902119	-2.236421	-0.631978	-0.017592	-0.774496	-0.021228
35081	-9.424997	0.847916	-2.307115	-0.632134	-0.017479	-0.774370	-0.021251
35082	-9.390309	0.731002	-2.235310	-0.632251	-0.017235	-0.774277	-0.021370
35083	-9.389251	0.621215	-2.236960	-0.632320	-0.016973	-0.774223	-0.021492
35084	-9.388513	0.565120	-2.228443	-0.632329	-0.016799	-0.774217	-0.021573
35085	-9.430943	0.593388	-2.260424	-0.632314	-0.016736	-0.774230	-0.021580
35086	-9.456902	0.662884	-2.260952	-0.632275	-0.016697	-0.774264	-0.021546
35087	-9.440082	0.700406	-2.169559	-0.632221	-0.016656	-0.774311	-0.021483
35088	-9.430934	0.690577	-2.121514	-0.632119	-0.016513	-0.774397	-0.021487
35089	-9.446158	0.628295	-2.127247	-0.631997	-0.016397	-0.774498	-0.021547
35090	-9.503754	0.578036	-2.132839	-0.631886	-0.016233	-0.774589	-0.021651
35091	-9.545703	0.605759	-2.125784	-0.631801	-0.016103	-0.774658	-0.021760
35092	-9.527925	0.593079	-2.150029	-0.631744	-0.015995	-0.774705	-0.021803
35093	-9.535747	0.578743	-2.152939	-0.631721	-0.015868	-0.774727	-0.021791
35094	-9.552993	0.605218	-2.122813	-0.631743	-0.015707	-0.774711	-0.021847
35095	-9.562024	0.626799	-2.122035	-0.631869	-0.015472	-0.774610	-0.021946
35096	-9.597101	0.647114	-2.097906	-0.632115	-0.015273	-0.774412	-0.021992
35097	-9.558324	0.775206	-2.027773	-0.632371	-0.015130	-0.774205	-0.022019
35098	-9.459413	0.845506	-1.999931	-0.632655	-0.014907	-0.773976	-0.022075
35099	-9.408660	0.774418	-2.079436	-0.632898	-0.014509	-0.773777	-0.022345
35100	-9.415348	0.617872	-2.100283	-0.633080	-0.013988	-0.773626	-0.022746
35101	-9.507237	0.518154	-2.059198	-0.633193	-0.013510	-0.773531	-0.023126
35102	-9.499136	0.509438	-2.005795	-0.633328	-0.013045	-0.773418	-0.023473
35103	-9.516379	0.498814	-1.911010	-0.633443	-0.012731	-0.773322	-0.023711
35104	-9.534234	0.526902	-1.919110	-0.633549	-0.012496	-0.773234	-0.023836
35105	-9.518177	0.548293	-1.896307	-0.633672	-0.012418	-0.773135	-0.023821
35106	-9.526398	0.515480	-1.885755	-0.633777	-0.012414	-0.773052	-0.023725
35107	-9.535673	0.536513	-1.884043	-0.633896	-0.012407	-0.772958	-0.023612
35108	-9.519046	0.524184	-1.944874	-0.634056	-0.012484	-0.772830	-0.023463
35109	-9.495332	0.576510	-1.951587	-0.634200	-0.012570	-0.772715	-0.023326
35110	-9.521166	0.573910	-1.949909	-0.634338	-0.012726	-0.772605	-0.023138
35111	-9.537663	0.530064	-1.959914	-0.634482	-0.012889	-0.772489	-0.022960
35112	-9.528858	0.487844	-2.011332	-0.634617	-0.013149	-0.772382	-0.022673
35113	-9.521750	0.532181	-1.967181	-0.634751	-0.013495	-0.772277	-0.022290
35114	-9.481241	0.590334	-1.963811	-0.634930	-0.013805	-0.772134	-0.021956
35115	-9.474855	0.655674	-2.011725	-0.635090	-0.014016	-0.772005	-0.021753
35116	-9.517422	0.646958	-1.999865	-0.635209	-0.014175	-0.771908	-0.021595
35117	-9.543719	0.663476	-2.028739	-0.635380	-0.014297	-0.771769	-0.021459
35118	-9.561851	0.674665	-2.087530	-0.635606	-0.014366	-0.771585	-0.021339
35119	-9.529600	0.702120	-2.030597	-0.635887	-0.014361	-0.771354	-0.021308
35120	-9.507982	0.809689	-2.064086	-0.636173	-0.014233	-0.771119	-0.021384
35121	-9.434216	0.846979	-2.099184	-0.636465	-0.013958	-0.770877	-0.021613
35122	-9.409382	0.794750	-2.167551	-0.636720	-0.013501	-0.770663	-0.021994
35123	-9.442303	0.708917	-2.123103	-0.636961	-0.012880	-0.770459	-0.022550
35124	-9.464864	0.578476	-1.966846	-0.637151	-0.012149	-0.770293	-0.023206
35125	-9.512658	0.432471	-1.926554	-0.637286	-0.011571	-0.770175	-0.023730
35126	-9.528727	0.388741	-1.895187	-0.637389	-0.011209	-0.770086	-0.024041
35127	-9.522522	0.472448	-1.912656	-0.637456	-0.011080	-0.770028	-0.024166
35128	-9.533701	0.584511	-1.898255	-0.637535	-0.010965	-0.769961	-0.024261
35129	-9.553197	0.684566	-1.883503	-0.637649	-0.010791	-0.769863	-0.024438
35130	-9.520736	0.731922	-1.859824	-0.637776	-0.010574	-0.769755	-0.024647
35131	-9.580570	0.720575	-1.941089	-0.637885	-0.010203	-0.769659	-0.024960
35132	-9.554973	0.701444	-1.909011	-0.638017	-0.009830	-0.769544	-0.025296
35133	-9.486423	0.637797	-1.940688	-0.638165	-0.009537	-0.769416	-0.025567
35134	-9.520145	0.606861	-1.949317	-0.638337	-0.009203	-0.769267	-0.025884
35135	-9.485613	0.548268	-1.969582	-0.638502	-0.008859	-0.769123	-0.026197
35136	-9.526684	0.501090	-1.875070	-0.638658	-0.008496	-0.768988	-0.026496
35137	-9.492171	0.474866	-1.812240	-0.638767	-0.008160	-0.768890	-0.026806
35138	-9.535697	0.504507	-1.840672	-0.638860	-0.007860	-0.768805	-0.027121
35139	-9.561035	0.503030	-1.819029	-0.638936	-0.007595	-0.768733	-0.027421
35140	-9.611998	0.517576	-1.765095	-0.639066	-0.007513	-0.768621	-0.027565
35141	-9.628570	0.491988	-1.742861	-0.639259	-0.007601	-0.768461	-0.027516
35142	-9.587480	0.515354	-1.717624	-0.639511	-0.007776	-0.768254	-0.027394
35143	-9.540623	0.591782	-1.813199	-0.639827	-0.007827	-0.767991	-0.027380
35144	-9.509365	0.607882	-1.910528	-0.640124	-0.007861	-0.767744	-0.027360
35145	-9.511279	0.626166	-1.935590	-0.640385	-0.007923	-0.767527	-0.027340
35146	-9.496127	0.650680	-1.951282	-0.640608	-0.008108	-0.767342	-0.027225
35147	-9.480428	0.641163	-2.010307	-0.640833	-0.008298	-0.767156	-0.027124
35148	-9.472790	0.652297	-1.985739	-0.641034	-0.008472	-0.766988	-0.027053
35149	-9.523322	0.648342	-1.920394	-0.641199	-0.008676	-0.766853	-0.026947
35150	-9.531623	0.634863	-1.898168	-0.641340	-0.008903	-0.766737	-0.026791
35151	-9.559523	0.722581	-1.882604	-0.641470	-0.009081	-0.766631	-0.026658
35152	-9.501330	0.769855	-1.838871	-0.641587	-0.009160	-0.766532	-0.026659
35153	-9.519149	0.798528	-1.825925	-0.641703	-0.009107	-0.766433	-0.026737
35154	-9.517063	0.707827	-1.817316	-0.641831	-0.008946	-0.766322	-0.026892
35155	-9.633236	0.608480	-1.818103	-0.641936	-0.008778	-0.766230	-0.027071
35156	-9.589517	0.559584	-1.777386	-0.642093	-0.008693	-0.766096	-0.027160
35157	-9.555566	0.535502	-1.776425	-0.642253	-0.008676	-0.765963	-0.027159
35158	-9.539555	0.557395	-1.752546	-0.642422	-0.008606	-0.765821	-0.027159
35159	-9.534930	0.658351	-1.776751	-0.642626	-0.008490	-0.765650	-0.027200
35160	-9.534142	0.635519	-1.701725	-0.642810	-0.008387	-0.765496	-0.027216
35161	-9.501516	0.664050	-1.688401	-0.642935	-0.008388	-0.765392	-0.027190
35162	-9.517578	0.604296	-1.731415	-0.642988	-0.008490	-0.765348	-0.027131
35163	-9.524883	0.522691	-1.818182	-0.643011	-0.008634	-0.765332	-0.027018
35164	-9.508320	0.545745	-1.819503	-0.642983	-0.008856	-0.765360	-0.026807
35165	-9.527932	0.662955	-1.818318	-0.642894	-0.009089	-0.765441	-0.026556
35166	-9.486954	0.739758	-1.809931	-0.642799	-0.009185	-0.765522	-0.026466
35167	-9.476875	0.714269	-1.794240	-0.642709	-0.009104	-0.765596	-0.026547
35168	-9.484267	0.701136	-1.798805	-0.642586	-0.008989	-0.765698	-0.026641
35169	-9.565878	0.614724	-1.826534	-0.642438	-0.008911	-0.765821	-0.026691
35170	-9.556255	0.591207	-1.874583	-0.642271	-0.008930	-0.765962	-0.026640
35171	-9.528132	0.569578	-1.788786	-0.642065	-0.008931	-0.766134	-0.026665
35172	-9.525828	0.533375	-1.797084	-0.641842	-0.008902	-0.766318	-0.026755
35173	-9.626067	0.546831	-1.772045	-0.641590	-0.009013	-0.766531	-0.026684
35174	-9.617848	0.626911	-1.694048	-0.641371	-0.009221	-0.766717	-0.026521
35175	-9.542090	0.681366	-1.689071	-0.641210	-0.009398	-0.766855	-0.026346
35176	-9.584106	0.692403	-1.735394	-0.641081	-0.009566	-0.766965	-0.026221
35177	-9.651259	0.686010	-1.812639	-0.640965	-0.009633	-0.767063	-0.026165
35178	-9.566762	0.700646	-1.857724	-0.640935	-0.009588	-0.767088	-0.026198
35179	-9.531872	0.660320	-1.912766	-0.640965	-0.009446	-0.767061	-0.026306
35180	-9.547907	0.618749	-1.966309	-0.641030	-0.009352	-0.767005	-0.026398
35181	-9.506154	0.642013	-1.945570	-0.641056	-0.009398	-0.766985	-0.026341
35182	-9.453201	0.586487	-1.898045	-0.641004	-0.009457	-0.767029	-0.026271
35183	-9.495705	0.613109	-1.889812	-0.640925	-0.009476	-0.767097	-0.026207
35184	-9.537628	0.637456	-1.799219	-0.640834	-0.009498	-0.767172	-0.026240
35185	-9.563040	0.669957	-1.739486	-0.640758	-0.009438	-0.767234	-0.026326
35186	-9.542591	0.568098	-1.735559	-0.640731	-0.009267	-0.767252	-0.026518
35187	-9.591513	0.514203	-1.791616	-0.640677	-0.009129	-0.767293	-0.026674
35188	-9.618597	0.584859	-1.791277	-0.640676	-0.009096	-0.767290	-0.026774
35189	-9.544196	0.656639	-1.727872	-0.640730	-0.009149	-0.767244	-0.026807
35190	-9.541978	0.585928	-1.751964	-0.640736	-0.009192	-0.767236	-0.026874
35191	-9.547626	0.501588	-1.735353	-0.640758	-0.009193	-0.767214	-0.026957
35192	-9.547841	0.519286	-1.725842	-0.640751	-0.009272	-0.767219	-0.026976
35193	-9.548460	0.541580	-1.840911	-0.640749	-0.009436	-0.767219	-0.026958
35194	-9.496495	0.509540	-1.906485	-0.640731	-0.009812	-0.767238	-0.026712
35195	-9.505678	0.552304	-1.960322	-0.640631	-0.010389	-0.767329	-0.026271
35196	-9.500330	0.690214	-1.992034	-0.640509	-0.011028	-0.767438	-0.025788
35197	-9.502155	0.794864	-1.932444	-0.640368	-0.011589	-0.767564	-0.025319
35198	-9.509299	0.795371	-1.804287	-0.640177	-0.012042	-0.767729	-0.024925
35199	-9.550051	0.786829	-1.801566	-0.639947	-0.012350	-0.767923	-0.024688
35200	-9.556886	0.775687	-1.871180	-0.639770	-0.012665	-0.768072	-0.024468
35201	-9.536835	0.711363	-1.931222	-0.639583	-0.012939	-0.768229	-0.024286
35202	-9.533467	0.639417	-1.960458	-0.639384	-0.013301	-0.768398	-0.023995
35203	-9.556481	0.601936	-1.988839	-0.639199	-0.013708	-0.768556	-0.023629
35204	-9.550556	0.738242	-2.002994	-0.638998	-0.014134	-0.768727	-0.023255
35205	-9.553040	0.860808	-1.934296	-0.638849	-0.014464	-0.768853	-0.022985
35206	-9.525857	0.823011	-1.878383	-0.638715	-0.014645	-0.768966	-0.022811
35207	-9.522419	0.731383	-1.875353	-0.638550	-0.014617	-0.769104	-0.022773
35208	-9.552156	0.608916	-1.841259	-0.638463	-0.014534	-0.769175	-0.022894
35209	-9.565566	0.512924	-1.867588	-0.638394	-0.014464	-0.769230	-0.023004
35210	-9.539468	0.513397	-1.891585	-0.638318	-0.014447	-0.769293	-0.023026
35211	-9.496385	0.500835	-1.853915	-0.638223	-0.014391	-0.769371	-0.023081
35212	-9.470866	0.518596	-1.846977	-0.638132	-0.014376	-0.769445	-0.023138
35213	-9.468203	0.465058	-1.883928	-0.637967	-0.014458	-0.769581	-0.023119
35214	-9.544331	0.478346	-1.776613	-0.637752	-0.014659	-0.769758	-0.023028
35215	-9.553102	0.538285	-1.782905	-0.637515	-0.014910	-0.769952	-0.022939
35216	-9.543516	0.550835	-1.790377	-0.637271	-0.015212	-0.770153	-0.022755
35217	-9.543477	0.585667	-1.756069	-0.637038	-0.015514	-0.770346	-0.022547
35218	-9.550490	0.591791	-1.794226	-0.636854	-0.015909	-0.770497	-0.022299
35219	-9.591287	0.584733	-1.811504	-0.636688	-0.016363	-0.770635	-0.021974
35220	-9.574076	0.627114	-1.847854	-0.636531	-0.016912	-0.770764	-0.021558
35221	-9.533515	0.723051	-1.831715	-0.636350	-0.017395	-0.770913	-0.021195
35222	-9.497501	0.736704	-1.941427	-0.636165	-0.017829	-0.771064	-0.020876
35223	-9.486125	0.694927	-1.979742	-0.635963	-0.018156	-0.771230	-0.020650
35224	-9.560226	0.692689	-2.029204	-0.635770	-0.018495	-0.771387	-0.020396
35225	-9.545132	0.769381	-1.962294	-0.635604	-0.018820	-0.771522	-0.020162
35226	-9.476642	0.776528	-1.956820	-0.635459	-0.019103	-0.771640	-0.019978
35227	-9.481608	0.710482	-1.994613	-0.635271	-0.019281	-0.771792	-0.019902
35228	-9.504036	0.655491	-2.012212	-0.635088	-0.019402	-0.771942	-0.019813
35229	-9.509115	0.606714	-2.060985	-0.634867	-0.019641	-0.772122	-0.019623
35230	-9.519020	0.682776	-2.016337	-0.634636	-0.019876	-0.772311	-0.019442
35231	-9.468856	0.773160	-2.052397	-0.634505	-0.020027	-0.772417	-0.019348
35232	-9.450149	0.761031	-2.078166	-0.634360	-0.020093	-0.772535	-0.019320
35233	-9.436378	0.647432	-2.136248	-0.634166	-0.020029	-0.772694	-0.019419
35234	-9.475694	0.567796	-2.113061	-0.633949	-0.019981	-0.772871	-0.019469
35235	-9.481514	0.501259	-2.089285	-0.633746	-0.020022	-0.773035	-0.019520
35236	-9.496331	0.512772	-2.137969	-0.633527	-0.020251	-0.773213	-0.019376
35237	-9.505509	0.553171	-2.093320	-0.633324	-0.020644	-0.773377	-0.019062
35238	-9.540034	0.682349	-2.162684	-0.633129	-0.021030	-0.773535	-0.018694
35239	-9.472733	0.777670	-2.208760	-0.632976	-0.021338	-0.773659	-0.018372
35240	-9.395176	0.795622	-2.243988	-0.632809	-0.021463	-0.773796	-0.018232
35241	-9.450281	0.744598	-2.313371	-0.632657	-0.021521	-0.773920	-0.018155
35242	-9.498878	0.741727	-2.360942	-0.632560	-0.021647	-0.773998	-0.018040
35243	-9.464851	0.788165	-2.385542	-0.632437	-0.021907	-0.774099	-0.017715
35244	-9.492737	0.891218	-2.370688	-0.632330	-0.022163	-0.774189	-0.017306
35245	-9.522726	1.047461	-2.344922	-0.632276	-0.022333	-0.774235	-0.016967
35246	-9.517044	1.127276	-2.326561	-0.632309	-0.022199	-0.774214	-0.016891
35247	-9.452035	1.095783	-2.210850	-0.632382	-0.021664	-0.774164	-0.017136
35248	-9.468044	0.978469	-2.138248	-0.632403	-0.020895	-0.774157	-0.017607
35249	-9.515652	0.812657	-2.087784	-0.632447	-0.020051	-0.774131	-0.018166
35250	-9.499566	0.535432	-2.067654	-0.632468	-0.019182	-0.774121	-0.018789
35251	-9.487512	0.257615	-1.883349	-0.632473	-0.018415	-0.774122	-0.019342
35252	-9.475370	0.105718	-1.834480	-0.632433	-0.017907	-0.774159	-0.019672
35253	-9.464868	0.043830	-1.817744	-0.632316	-0.017616	-0.774256	-0.019853
35254	-9.439909	0.024289	-1.750401	-0.632112	-0.017485	-0.774424	-0.019929
35255	-9.517946	0.001044	-1.625512	-0.631856	-0.017609	-0.774633	-0.019778
35256	-9.535987	0.100801	-1.663654	-0.631652	-0.018031	-0.774800	-0.019397
35257	-9.616479	0.258744	-1.661194	-0.631464	-0.018687	-0.774950	-0.018866
35258	-9.629582	0.443315	-1.676997	-0.631334	-0.019511	-0.775052	-0.018189
35259	-9.576347	0.552029	-1.845408	-0.631283	-0.020442	-0.775088	-0.017397
35260	-9.639675	0.595818	-2.016459	-0.631269	-0.021484	-0.775091	-0.016467
35261	-9.581632	0.731920	-2.110373	-0.631333	-0.022557	-0.775030	-0.015459
35262	-9.438023	0.845659	-2.221335	-0.631449	-0.023507	-0.774924	-0.014543
35263	-9.399123	1.045980	-2.325352	-0.631596	-0.024264	-0.774794	-0.013858
35264	-9.401742	1.168977	-2.377858	-0.631741	-0.024668	-0.774668	-0.013556
35265	-9.363557	1.283655	-2.366624	-0.631854	-0.024651	-0.774575	-0.013667
35266	-9.329900	1.173699	-2.249359	-0.631902	-0.024031	-0.774543	-0.014345
35267	-9.376687	0.804155	-2.268283	-0.631857	-0.023042	-0.774589	-0.015434
35268	-9.462432	0.356913	-2.301427	-0.631794	-0.021976	-0.774646	-0.016624
35269	-9.464073	0.134137	-2.263167	-0.631691	-0.021211	-0.774731	-0.017552
35270	-9.516370	0.136236	-2.186364	-0.631598	-0.020889	-0.774804	-0.018069
35271	-9.574127	0.334138	-2.139719	-0.631568	-0.020892	-0.774825	-0.018230
35272	-9.536217	0.467805	-2.119555	-0.631587	-0.021096	-0.774805	-0.018164
35273	-9.528928	0.617899	-1.964684	-0.631642	-0.021136	-0.774758	-0.018205
35274	-9.579035	0.616954	-1.986376	-0.631773	-0.021038	-0.774648	-0.018440
35275	-9.612535	0.641629	-2.026749	-0.631939	-0.020944	-0.774508	-0.018741
35276	-9.607171	0.554342	-2.117109	-0.632124	-0.020894	-0.774352	-0.018996
35277	-9.599264	0.622054	-2.184918	-0.632425	-0.021034	-0.774103	-0.019018
35278	-9.540305	0.810073	-2.124879	-0.632764	-0.021164	-0.773822	-0.019012
35279	-9.443835	0.885585	-2.073472	-0.633113	-0.021026	-0.773534	-0.019254
35280	-9.434870	0.863743	-2.107236	-0.633462	-0.020696	-0.773245	-0.019748
35281	-9.565986	0.779432	-2.206872	-0.633846	-0.020335	-0.772924	-0.020348
35282	-9.602268	0.770520	-2.157775	-0.634243	-0.019970	-0.772591	-0.020992
35283	-9.515545	0.854782	-2.072427	-0.634720	-0.019578	-0.772191	-0.021620
35284	-9.423153	0.812777	-2.059755	-0.635166	-0.019150	-0.771819	-0.022180
35285	-9.488793	0.772147	-2.146223	-0.635520	-0.018670	-0.771522	-0.022798
35286	-9.576448	0.796002	-2.099599	-0.635816	-0.018148	-0.771270	-0.023480
35287	-9.503678	0.818927	-2.037735	-0.636206	-0.017362	-0.770937	-0.024403
35288	-9.412166	0.758159	-1.954577	-0.636588	-0.016270	-0.770609	-0.025535
35289	-9.342599	0.624632	-1.915817	-0.636908	-0.015058	-0.770330	-0.026716
35290	-9.328683	0.460823	-1.974749	-0.637152	-0.013937	-0.770110	-0.027816
35291	-9.474151	0.243605	-2.000554	-0.637275	-0.013158	-0.769991	-0.028662
35292	-9.619406	0.233757	-1.930567	-0.637365	-0.012842	-0.769903	-0.029164
35293	-9.619737	0.425948	-1.819233	-0.637612	-0.012682	-0.769682	-0.029658
35294	-9.505079	0.510665	-1.797963	-0.637957	-0.012357	-0.769380	-0.030207
35295	-9.513517	0.464757	-1.772469	-0.638217	-0.011974	-0.769149	-0.030768
35296	-9.422846	0.511320	-1.754151	-0.638444	-0.011726	-0.768947	-0.031180
35297	-9.444286	0.576851	-1.655117	-0.638664	-0.011622	-0.768747	-0.031645
35298	-9.483888	0.504845	-1.685477	-0.638857	-0.011583	-0.768561	-0.032261
35299	-9.665483	0.426898	-1.792128	-0.639025	-0.011699	-0.768398	-0.032781
35300	-9.656741	0.485730	-1.890482	-0.639237	-0.012111	-0.768208	-0.032955
35301	-9.576285	0.575112	-1.820017	-0.639474	-0.012672	-0.768006	-0.032848
35302	-9.489174	0.671835	-1.666583	-0.639695	-0.013305	-0.767824	-0.032535
35303	-9.392652	0.837797	-1.647018	-0.639848	-0.013789	-0.767696	-0.032355
35304	-9.421914	1.096065	-1.784802	-0.639885	-0.014201	-0.767654	-0.032437
35305	-9.426289	1.318302	-1.800077	-0.639917	-0.014535	-0.767607	-0.032765
35306	-9.471859	1.163077	-1.796113	-0.639905	-0.014658	-0.767594	-0.033245
35307	-9.621117	0.815533	-1.884196	-0.639809	-0.014684	-0.767654	-0.033698
35308	-9.708816	0.670451	-1.924503	-0.639754	-0.014642	-0.767682	-0.034133
35309	-9.634852	0.691531	-1.809271	-0.639856	-0.014677	-0.767581	-0.034480
35310	-9.571920	0.789243	-1.678522	-0.640037	-0.014719	-0.767414	-0.034798
35311	-9.539418	0.859768	-1.703443	-0.640237	-0.014715	-0.767238	-0.035006
35312	-9.585386	0.997864	-1.686764	-0.640393	-0.014894	-0.767102	-0.035058
35313	-9.596922	1.168731	-1.740760	-0.640630	-0.015126	-0.766901	-0.035046
35314	-9.468680	1.102446	-1.757026	-0.640896	-0.015396	-0.766672	-0.035058
35315	-9.414551	1.020017	-1.868347	-0.641117	-0.015403	-0.766475	-0.035319
35316	-9.430123	0.963312	-1.888027	-0.641260	-0.015360	-0.766343	-0.035606
35317	-9.408979	0.793276	-1.922842	-0.641344	-0.015494	-0.766268	-0.035648
35318	-9.454637	0.652812	-2.032470	-0.641335	-0.015862	-0.766277	-0.035455
35319	-9.542665	0.817443	-2.010526	-0.641329	-0.016395	-0.766290	-0.035039
35320	-9.507175	1.070976	-1.892123	-0.641271	-0.017095	-0.766349	-0.034479
35321	-9.438136	1.373866	-1.795142	-0.641132	-0.017687	-0.766473	-0.034006
35322	-9.522408	1.357619	-1.741531	-0.640982	-0.017994	-0.766602	-0.033745
35323	-9.558965	1.097447	-1.723499	-0.640856	-0.018211	-0.766714	-0.033495
35324	-9.638720	0.865087	-1.694856	-0.640695	-0.018298	-0.766855	-0.033286
35325	-9.669692	0.851661	-1.804285	-0.640635	-0.018442	-0.766914	-0.033010
35326	-9.569831	0.958037	-1.824193	-0.640605	-0.018748	-0.766951	-0.032552
35327	-9.546764	1.098383	-1.845768	-0.640494	-0.018952	-0.767054	-0.032193
35328	-9.504933	1.026667	-1.737209	-0.640422	-0.019124	-0.767127	-0.031782
35329	-9.491614	0.873273	-1.796976	-0.640263	-0.019132	-0.767271	-0.031494
35330	-9.435826	0.800116	-1.927826	-0.640074	-0.018937	-0.767438	-0.031405
35331	-9.501050	0.807571	-2.017989	-0.639927	-0.018761	-0.767568	-0.031322
35332	-9.452601	0.929567	-2.010526	-0.639716	-0.018730	-0.767753	-0.031114
35333	-9.445388	0.990118	-1.985424	-0.639487	-0.018562	-0.767953	-0.030983
35334	-9.457249	0.890269	-2.057614	-0.639222	-0.018181	-0.768181	-0.031026
35335	-9.435626	0.803249	-2.109143	-0.638891	-0.017805	-0.768461	-0.031110
35336	-9.477131	0.736283	-2.018016	-0.638532	-0.017504	-0.768765	-0.031159
35337	-9.489053	0.654483	-2.062212	-0.638132	-0.017342	-0.769105	-0.031045
35338	-9.530088	0.733325	-2.115217	-0.637721	-0.017341	-0.769455	-0.030824
35339	-9.531022	0.934216	-1.926247	-0.637352	-0.017411	-0.769772	-0.030514
35340	-9.433250	0.947306	-1.778090	-0.637038	-0.017319	-0.770040	-0.030360
35341	-9.478748	0.761269	-1.751541	-0.636690	-0.017126	-0.770335	-0.030276
35342	-9.591502	0.676996	-1.818970	-0.636343	-0.016851	-0.770626	-0.030322
35343	-9.653774	0.630825	-1.904394	-0.636037	-0.016611	-0.770883	-0.030337
35344	-9.594997	0.712908	-1.929778	-0.635828	-0.016483	-0.771060	-0.030274
35345	-9.588443	0.829311	-1.954212	-0.635696	-0.016413	-0.771176	-0.030145
35346	-9.504677	0.766405	-1.873334	-0.635673	-0.016359	-0.771203	-0.029986
35347	-9.592521	0.555208	-1.842252	-0.635597	-0.016398	-0.771274	-0.029717
35348	-9.575283	0.520943	-1.815243	-0.635499	-0.016496	-0.771364	-0.029437
35349	-9.524681	0.573262	-1.846967	-0.635474	-0.016612	-0.771391	-0.029202
35350	-9.460396	0.604093	-2.002144	-0.635447	-0.016760	-0.771422	-0.028891
35351	-9.482692	0.582438	-2.058704	-0.635352	-0.016997	-0.771508	-0.028533
35352	-9.468157	0.529638	-1.939414	-0.635222	-0.017370	-0.771624	-0.028063
35353	-9.521726	0.577973	-1.893946	-0.635119	-0.017835	-0.771716	-0.027580
35354	-9.545674	0.593122	-1.930322	-0.635026	-0.018284	-0.771797	-0.027150
35355	-9.580035	0.668161	-1.966020	-0.634956	-0.018581	-0.771858	-0.026863
35356	-9.489564	0.746771	-1.954244	-0.634958	-0.018849	-0.771859	-0.026582
35357	-9.436850	0.729111	-1.985132	-0.634986	-0.019019	-0.771837	-0.026437
35358	-9.509256	0.636315	-2.000975	-0.634972	-0.019108	-0.771847	-0.026413
35359	-9.552993	0.628543	-1.952748	-0.634981	-0.019151	-0.771836	-0.026477
35360	-9.519406	0.732576	-2.023626	-0.635057	-0.019174	-0.771769	-0.026589
35361	-9.455831	0.740448	-1.927163	-0.635156	-0.019070	-0.771685	-0.026762
35362	-9.472225	0.734933	-1.937372	-0.635240	-0.018744	-0.771608	-0.027198
35363	-9.526554	0.687977	-2.022024	-0.635327	-0.018341	-0.771527	-0.027735
35364	-9.482243	0.589656	-1.989815	-0.635379	-0.017960	-0.771474	-0.028267
35365	-9.504841	0.574030	-2.042505	-0.635460	-0.017660	-0.771397	-0.028737
35366	-9.562175	0.735896	-2.009634	-0.635631	-0.017367	-0.771245	-0.029212
35367	-9.549824	0.852347	-1.993774	-0.635812	-0.017032	-0.771084	-0.029711
35368	-9.536159	0.824142	-1.896807	-0.635998	-0.016656	-0.770916	-0.030284
35369	-9.476887	0.823253	-1.901311	-0.636170	-0.016237	-0.770758	-0.030911
35370	-9.437943	0.715147	-1.949897	-0.636378	-0.015736	-0.770568	-0.031625
35371	-9.527278	0.602613	-1.962635	-0.636531	-0.015375	-0.770424	-0.032239
35372	-9.519602	0.636494	-1.969877	-0.636641	-0.015157	-0.770318	-0.032693
35373	-9.559347	0.769177	-1.924857	-0.636793	-0.014996	-0.770178	-0.033102
35374	-9.459946	0.865971	-1.946970	-0.636967	-0.014792	-0.770018	-0.033563
35375	-9.481215	0.932900	-1.891255	-0.637122	-0.014478	-0.769874	-0.034062
35376	-9.423899	1.003390	-1.895601	-0.637195	-0.014027	-0.769794	-0.034693
35377	-9.456128	0.957646	-1.896862	-0.637263	-0.013526	-0.769715	-0.035386
35378	-9.491899	0.848692	-1.973131	-0.637302	-0.013016	-0.769656	-0.036138
35379	-9.523887	0.712071	-1.905692	-0.637336	-0.012566	-0.769603	-0.036825
35380	-9.538244	0.692298	-1.948339	-0.637377	-0.012121	-0.769547	-0.037435
35381	-9.489707	0.786664	-1.953929	-0.637395	-0.011703	-0.769508	-0.038041
35382	-9.518171	0.914804	-1.961573	-0.637385	-0.011196	-0.769490	-0.038730
35383	-9.603506	0.994701	-1.993180	-0.637421	-0.010710	-0.769430	-0.039453
35384	-9.544531	0.993984	-1.979048	-0.637529	-0.010177	-0.769310	-0.040195
35385	-9.588795	0.988088	-1.926439	-0.637655	-0.009564	-0.769173	-0.040960
35386	-9.463171	0.975104	-1.887610	-0.637820	-0.008913	-0.769004	-0.041700
35387	-9.274025	0.981325	-1.970141	-0.637933	-0.008176	-0.768871	-0.042576
35388	-9.318594	0.842197	-2.018377	-0.637934	-0.007473	-0.768825	-0.043490
35389	-9.453763	0.566439	-2.017628	-0.637856	-0.007033	-0.768856	-0.044165
35390	-9.643700	0.413859	-2.004802	-0.637769	-0.006913	-0.768906	-0.044580
35391	-9.621207	0.657964	-1.880319	-0.637755	-0.007037	-0.768901	-0.044832
35392	-9.584214	0.903892	-1.908970	-0.637816	-0.007146	-0.768838	-0.045035
35393	-9.529788	1.230462	-2.005277	-0.637807	-0.007124	-0.768832	-0.045259
35394	-9.591744	1.494982	-1.902098	-0.637777	-0.006746	-0.768830	-0.045768
35395	-9.534849	1.452614	-1.807727	-0.637835	-0.005964	-0.768733	-0.046703
35396	-9.460210	1.382537	-1.721153	-0.637964	-0.004730	-0.768547	-0.048123
35397	-9.562284	1.197156	-1.584558	-0.638079	-0.003172	-0.768346	-0.049905
35398	-9.655316	0.800093	-1.524080	-0.638255	-0.001597	-0.768088	-0.051655
35399	-9.610729	0.384209	-1.504145	-0.638414	-0.000267	-0.767860	-0.053089
35400	-9.563140	0.233648	-1.531495	-0.638516	0.000465	-0.767720	-0.053874
35401	-9.565097	0.253137	-1.705714	-0.638622	0.000523	-0.767620	-0.054059
35402	-9.600032	0.407622	-1.788974	-0.638677	0.000073	-0.767603	-0.053643
35403	-9.545505	0.806178	-1.747879	-0.638796	-0.000689	-0.767554	-0.052917
35404	-9.472898	1.080613	-1.653125	-0.638953	-0.001540	-0.767484	-0.052014
35405	-9.429831	1.255602	-1.806790	-0.639064	-0.002379	-0.767453	-0.051065
35406	-9.669041	1.265846	-1.983598	-0.639139	-0.003121	-0.767447	-0.050167
35407	-9.916995	1.186833	-2.101802	-0.639400	-0.003769	-0.767284	-0.049280
35408	-10.025466	1.676282	-2.141202	-0.640063	-0.004269	-0.766777	-0.048516
35409	-9.400475	2.168584	-1.699385	-0.640978	-0.004265	-0.766030	-0.048228
35410	-9.212346	1.744493	-1.987725	-0.641710	-0.002940	-0.765365	-0.049152
35411	-9.308214	0.987506	-2.320175	-0.642233	-0.000934	-0.764833	-0.050664
35412	-9.401673	0.565991	-2.243847	-0.642708	0.001063	-0.764331	-0.052198
35413	-9.319848	0.347566	-1.997088	-0.643093	0.002594	-0.763920	-0.053396
35414	-9.243977	0.273798	-1.951578	-0.643376	0.003414	-0.763638	-0.053973
35415	-9.337986	0.387971	-1.797913	-0.643375	0.003715	-0.763631	-0.054054
35416	-9.448639	0.530775	-1.659426	-0.643155	0.003631	-0.763841	-0.053710
35417	-9.491217	0.682244	-1.533176	-0.642851	0.003224	-0.764142	-0.053101
35418	-9.543199	0.709084	-1.501128	-0.642575	0.002637	-0.764424	-0.052409
35419	-9.699554	0.882719	-1.544133	-0.642347	0.002153	-0.764651	-0.051914
35420	-9.709300	1.071384	-1.443462	-0.642309	0.001898	-0.764697	-0.051709
35421	-9.639901	0.965415	-1.379134	-0.642268	0.001908	-0.764741	-0.051575
35422	-9.695811	0.706744	-1.453204	-0.642288	0.002014	-0.764731	-0.051472
35423	-9.628122	0.640012	-1.632189	-0.642406	0.002040	-0.764641	-0.051331
35424	-9.611217	0.664496	-1.670062	-0.642535	0.002011	-0.764539	-0.051244
35425	-9.599738	0.814602	-1.688023	-0.642734	0.001880	-0.764379	-0.051128
35426	-9.535220	0.913854	-1.717880	-0.642908	0.001683	-0.764246	-0.050928
35427	-9.499035	0.834568	-1.710859	-0.642979	0.001532	-0.764203	-0.050679
35428	-9.501778	0.826023	-1.629094	-0.643022	0.001403	-0.764183	-0.050446
35429	-9.438942	0.769472	-1.673280	-0.643068	0.001349	-0.764147	-0.050401
35430	-9.526446	0.672544	-1.725818	-0.643036	0.001285	-0.764176	-0.050378
35431	-9.625337	0.672036	-1.794142	-0.643004	0.000988	-0.764220	-0.050127
35432	-9.639625	0.780193	-1.738149	-0.643007	0.000473	-0.764248	-0.049665
35433	-9.582027	0.828610	-1.735900	-0.642986	-0.000034	-0.764295	-0.049219
35434	-9.505986	0.810876	-1.705522	-0.643027	-0.000382	-0.764274	-0.049003
35435	-9.581225	0.809185	-1.729453	-0.643111	-0.000657	-0.764214	-0.048835
35436	-9.663059	0.872577	-1.643759	-0.643308	-0.000980	-0.764060	-0.048634
35437	-9.642868	1.018977	-1.671016	-0.643660	-0.001383	-0.763780	-0.048367
35438	-9.577994	1.139806	-1.748794	-0.643997	-0.001656	-0.763509	-0.048163
35439	-9.488598	1.202032	-1.736436	-0.644295	-0.001767	-0.763261	-0.048107
35440	-9.444874	1.098643	-1.684475	-0.644522	-0.001734	-0.763062	-0.048205
35441	-9.557777	0.925622	-1.674104	-0.644694	-0.001739	-0.762915	-0.048253
35442	-9.658004	0.846904	-1.637998	-0.644835	-0.001711	-0.762795	-0.048268
35443	-9.700270	0.892987	-1.446356	-0.645073	-0.001589	-0.762586	-0.048378
35444	-9.611139	0.914698	-1.374212	-0.645430	-0.001493	-0.762285	-0.048366
35445	-9.639431	0.868316	-1.265461	-0.645880	-0.001423	-0.761912	-0.048238
35446	-9.634139	0.801261	-1.405650	-0.646276	-0.001347	-0.761584	-0.048121
35447	-9.665085	0.982933	-1.511507	-0.646680	-0.001088	-0.761235	-0.048219
35448	-9.467460	1.137447	-1.591058	-0.647112	-0.000448	-0.760839	-0.048689
35449	-9.470354	1.131305	-1.541012	-0.647392	0.000405	-0.760569	-0.049177
35450	-9.434961	1.029163	-1.499708	-0.647532	0.001326	-0.760420	-0.049619
35451	-9.517520	0.873984	-1.375077	-0.647525	0.002304	-0.760387	-0.050182
35452	-9.523173	0.693554	-1.523326	-0.647450	0.003403	-0.760391	-0.051015
35453	-9.422057	0.713183	-1.514924	-0.647054	0.004379	-0.760669	-0.051813
35454	-9.561987	0.683191	-1.554653	-0.646401	0.005409	-0.761163	-0.052603
35455	-9.568531	0.612186	-1.714120	-0.645576	0.006396	-0.761816	-0.053165
35456	-9.444493	0.757563	-1.740931	-0.644757	0.007360	-0.762471	-0.053593
35457	-9.400208	0.945513	-1.504095	-0.644099	0.008189	-0.762983	-0.054091
35458	-9.535169	0.765236	-1.477805	-0.643407	0.008891	-0.763516	-0.054690
35459	-9.562614	0.511212	-1.714694	-0.642758	0.009559	-0.764009	-0.055323
35460	-9.475575	0.359191	-1.939873	-0.642051	0.010014	-0.764563	-0.055794
35461	-9.522863	0.337022	-1.930617	-0.641418	0.010087	-0.765087	-0.055883
35462	-9.511829	0.502633	-1.912232	-0.640831	0.010047	-0.765581	-0.055869
35463	-9.614817	0.680589	-1.834208	-0.640319	0.009849	-0.766031	-0.055593
35464	-9.620468	0.937042	-1.929979	-0.639977	0.009663	-0.766338	-0.055339
35465	-9.568416	0.937234	-1.935595	-0.639858	0.009515	-0.766453	-0.055148
35466	-9.588126	0.806644	-1.920159	-0.639827	0.009340	-0.766494	-0.054967
35467	-9.610237	0.712743	-1.898445	-0.639963	0.009129	-0.766390	-0.054872
35468	-9.633475	0.794256	-2.033803	-0.640366	0.008774	-0.766075	-0.054628
35469	-9.515600	0.961832	-2.037437	-0.640850	0.008269	-0.765707	-0.054194
35470	-9.416931	1.021702	-2.071188	-0.641311	0.007895	-0.765350	-0.053817
35471	-9.461694	1.067417	-2.103551	-0.641643	0.007878	-0.765083	-0.053675
35472	-9.423951	1.107114	-2.081229	-0.642032	0.007950	-0.764758	-0.053640
35473	-9.384190	1.036546	-2.171250	-0.642348	0.008159	-0.764478	-0.053814
35474	-9.399146	0.860482	-2.242634	-0.642555	0.008487	-0.764282	-0.054075
35475	-9.367595	0.792310	-2.138836	-0.642756	0.008700	-0.764107	-0.054116
35476	-9.471517	0.760345	-2.070906	-0.642826	0.008817	-0.764053	-0.054035
35477	-9.578169	0.879827	-2.097382	-0.642848	0.008894	-0.764035	-0.054014
35478	-9.532051	1.105727	-2.056261	-0.642985	0.008919	-0.763916	-0.054059
35479	-9.466794	1.128566	-1.841627	-0.643128	0.009091	-0.763776	-0.054318
35480	-9.588162	0.976275	-1.813633	-0.643330	0.009555	-0.763568	-0.054765
35481	-9.614091	0.745075	-1.952172	-0.643658	0.010106	-0.763255	-0.055164
35482	-9.540884	0.744626	-1.919650	-0.644094	0.010551	-0.762863	-0.055420
35483	-9.537011	0.864817	-1.795999	-0.644482	0.010827	-0.762521	-0.055560
35484	-9.555696	0.854978	-1.778611	-0.644854	0.011097	-0.762187	-0.055778
35485	-9.504500	0.861623	-1.830011	-0.645230	0.011477	-0.761837	-0.056127
35486	-9.542615	0.899586	-1.809086	-0.645599	0.011798	-0.761499	-0.056402
35487	-9.528575	0.767518	-1.812337	-0.645931	0.012034	-0.761202	-0.056559
35488	-9.537067	0.734578	-1.798613	-0.646230	0.012088	-0.760947	-0.056575
35489	-9.518970	0.759628	-1.665285	-0.646510	0.012135	-0.760701	-0.056670
35490	-9.555608	0.779688	-1.638867	-0.646737	0.012336	-0.760485	-0.056934
35491	-9.609679	0.892895	-1.729837	-0.646981	0.012541	-0.760259	-0.057144
35492	-9.523355	1.011899	-1.741569	-0.647318	0.012723	-0.759962	-0.057232
35493	-9.461033	0.914977	-1.721070	-0.647585	0.012987	-0.759725	-0.057295
35494	-9.421191	0.656611	-1.531205	-0.647717	0.013182	-0.759612	-0.057269
35495	-9.507510	0.338226	-1.490702	-0.647622	0.013102	-0.759706	-0.057104
35496	-9.605851	0.264039	-1.693127	-0.647431	0.012773	-0.759895	-0.056837
35497	-9.654120	0.576511	-1.735521	-0.647325	0.012179	-0.760027	-0.056396
35498	-9.626246	0.906281	-1.575023	-0.647333	0.011423	-0.760077	-0.055785
35499	-9.554982	1.113639	-1.505248	-0.647448	0.010761	-0.760031	-0.055199
35500	-9.539487	1.034542	-1.356068	-0.647543	0.010350	-0.759987	-0.054779
35501	-9.669721	0.847924	-1.469626	-0.647603	0.010216	-0.759950	-0.054598
35502	-9.674467	0.821729	-1.543617	-0.647786	0.010107	-0.759805	-0.054481
35503	-9.617575	0.874520	-1.574631	-0.648100	0.009999	-0.759543	-0.054412
35504	-9.588995	0.899558	-1.491429	-0.648516	0.009898	-0.759190	-0.054403
35505	-9.687356	0.864445	-1.570646	-0.648990	0.009997	-0.758774	-0.054536
35506	-9.613007	0.805402	-1.468401	-0.649515	0.010029	-0.758330	-0.054446
35507	-9.502392	0.923386	-1.475800	-0.650003	0.010116	-0.757920	-0.054313
35508	-9.468622	1.117853	-1.604979	-0.650459	0.010249	-0.757536	-0.054196
35509	-9.435258	1.206316	-1.526598	-0.650750	0.010519	-0.757276	-0.054289
35510	-9.416028	1.001499	-1.539044	-0.650823	0.010800	-0.757199	-0.054428
35511	-9.467212	0.658675	-1.456390	-0.650650	0.010809	-0.757355	-0.054322
35512	-9.532762	0.606118	-1.417226	-0.650435	0.010584	-0.757570	-0.053948
35513	-9.625251	0.807990	-1.515845	-0.650200	0.010089	-0.757826	-0.053269
35514	-9.701609	1.067665	-1.424144	-0.649937	0.009595	-0.758104	-0.052617
35515	-9.585944	1.204264	-1.295992	-0.649649	0.009374	-0.758383	-0.052197
35516	-9.539677	1.114052	-1.249932	-0.649292	0.009340	-0.758713	-0.051848
35517	-9.569615	1.058725	-1.266825	-0.648903	0.009306	-0.759074	-0.051432
35518	-9.608977	0.869938	-1.273473	-0.648516	0.009254	-0.759430	-0.051072
35519	-9.743079	0.649274	-1.409743	-0.648153	0.009199	-0.759762	-0.050745
35520	-9.683109	0.502714	-1.407918	-0.647869	0.009094	-0.760033	-0.050331
35521	-9.592149	0.523089	-1.371049	-0.647581	0.009029	-0.760309	-0.049880
35522	-9.636348	0.561550	-1.378837	-0.647339	0.008950	-0.760547	-0.049403
35523	-9.650853	0.728284	-1.479071	-0.647187	0.008750	-0.760715	-0.048843
35524	-9.625099	0.861842	-1.484703	-0.647121	0.008523	-0.760806	-0.048330
35525	-9.633253	0.744410	-1.528376	-0.647033	0.008501	-0.760899	-0.048044
35526	-9.525503	0.676581	-1.574686	-0.646929	0.008632	-0.761000	-0.047825
35527	-9.475629	0.572732	-1.596214	-0.646687	0.008910	-0.761210	-0.047705
35528	-9.493430	0.477189	-1.622137	-0.646391	0.009039	-0.761469	-0.047555
35529	-9.537876	0.378590	-1.608670	-0.646084	0.009001	-0.761744	-0.047343
35530	-9.560002	0.376533	-1.660459	-0.645806	0.008844	-0.761998	-0.047069
35531	-9.597989	0.428236	-1.626281	-0.645511	0.008581	-0.762273	-0.046704
35532	-9.561548	0.581971	-1.510969	-0.645155	0.008188	-0.762609	-0.046209
35533	-9.539256	0.672011	-1.546975	-0.644789	0.007850	-0.762948	-0.045777
35534	-9.590013	0.661358	-1.686486	-0.644405	0.007512	-0.763300	-0.045381
35535	-9.660646	0.699901	-1.657912	-0.644024	0.007273	-0.763640	-0.045104
35536	-9.629488	0.747067	-1.643156	-0.643757	0.007133	-0.763873	-0.044979
35537	-9.587734	0.672711	-1.684514	-0.643558	0.007162	-0.764040	-0.044996
35538	-9.601935	0.546976	-1.729993	-0.643407	0.007178	-0.764165	-0.045025
35539	-9.588761	0.444907	-1.843482	-0.643362	0.007073	-0.764211	-0.044924
35540	-9.587037	0.506388	-1.790008	-0.643381	0.006823	-0.764211	-0.044688
35541	-9.551160	0.602908	-1.784362	-0.643379	0.006502	-0.764232	-0.044402
35542	-9.519536	0.690504	-1.843195	-0.643305	0.006251	-0.764311	-0.044151
35543	-9.515894	0.730259	-1.949550	-0.643168	0.005972	-0.764444	-0.043866
35544	-9.500808	0.752824	-1.931694	-0.643079	0.005730	-0.764530	-0.043710
35545	-9.459129	0.697912	-1.998626	-0.643040	0.005464	-0.764578	-0.043477
35546	-9.437394	0.651436	-2.023719	-0.643019	0.005156	-0.764609	-0.043274
35547	-9.403694	0.565123	-2.061086	-0.642939	0.004816	-0.764689	-0.043079
35548	-9.401208	0.470532	-1.978566	-0.642693	0.004293	-0.764922	-0.042690
35549	-9.391302	0.406697	-1.907307	-0.642390	0.003445	-0.765216	-0.042044
35550	-9.459444	0.474786	-1.804938	-0.641971	0.002470	-0.765610	-0.041344
35551	-9.488730	0.663334	-1.770240	-0.641501	0.001432	-0.766045	-0.040610
35552	-9.570075	0.829274	-1.689398	-0.641029	0.000350	-0.766480	-0.039880
35553	-9.707428	0.944100	-1.614332	-0.640601	-0.000654	-0.766875	-0.039147
35554	-9.745552	0.925493	-1.506234	-0.640262	-0.001517	-0.767194	-0.038416
35555	-9.779812	0.834804	-1.397487	-0.640057	-0.002196	-0.767392	-0.037832
35556	-9.758834	0.816788	-1.569047	-0.640012	-0.002615	-0.767444	-0.037510
35557	-9.608247	0.917567	-1.631334	-0.640072	-0.003009	-0.767408	-0.037190
35558	-9.464761	0.932542	-1.632773	-0.640166	-0.003258	-0.767335	-0.037068
35559	-9.470894	0.710346	-1.848852	-0.640168	-0.003400	-0.767336	-0.036996
35560	-9.506785	0.629543	-1.867291	-0.640064	-0.003571	-0.767430	-0.036824
35561	-9.490335	0.698724	-1.786548	-0.639883	-0.003689	-0.767586	-0.036705
35562	-9.543139	0.729526	-1.775897	-0.639597	-0.003848	-0.767831	-0.036566
35563	-9.585926	0.791958	-1.817102	-0.639310	-0.003997	-0.768078	-0.036376
35564	-9.621080	0.765366	-1.890558	-0.639120	-0.004150	-0.768243	-0.036197
35565	-9.596785	0.745304	-1.844958	-0.638891	-0.004255	-0.768443	-0.036006
35566	-9.533341	0.751143	-1.775466	-0.638682	-0.004386	-0.768624	-0.035823
35567	-9.532944	0.739232	-1.886508	-0.638506	-0.004586	-0.768782	-0.035550
35568	-9.539339	0.732955	-2.028072	-0.638376	-0.004815	-0.768903	-0.035229
35569	-9.618201	0.677370	-2.060428	-0.638302	-0.005086	-0.768978	-0.034899
35570	-9.631608	0.732253	-2.042003	-0.638342	-0.005465	-0.768965	-0.034379
35571	-9.575897	0.917212	-2.045106	-0.638439	-0.005954	-0.768908	-0.033771
35572	-9.455750	1.057339	-1.960294	-0.638635	-0.006381	-0.768764	-0.033259
35573	-9.433742	0.897244	-2.137275	-0.638767	-0.006520	-0.768660	-0.033106
35574	-9.521000	0.728813	-2.197487	-0.638889	-0.006505	-0.768561	-0.033070
35575	-9.520222	0.663798	-2.031466	-0.639011	-0.006568	-0.768465	-0.032896
35576	-9.552377	0.639261	-1.918693	-0.639135	-0.006552	-0.768366	-0.032829
35577	-9.645045	0.643542	-1.942960	-0.639360	-0.006454	-0.768177	-0.032872
35578	-9.748181	0.699659	-1.870050	-0.639731	-0.006320	-0.767867	-0.032924
35579	-9.623362	0.687843	-1.841833	-0.640255	-0.006087	-0.767426	-0.033070
35580	-9.544108	0.674512	-1.897672	-0.640791	-0.005762	-0.766972	-0.033286
35581	-9.543658	0.655546	-1.915879	-0.641411	-0.005463	-0.766445	-0.033517
35582	-9.672693	0.534904	-2.066775	-0.642130	-0.005293	-0.765837	-0.033685
35583	-9.698651	0.670755	-2.119128	-0.643005	-0.005124	-0.765102	-0.033728
35584	-9.508918	0.788379	-2.083076	-0.644016	-0.004980	-0.764255	-0.033677
35585	-9.387021	0.766179	-1.886718	-0.645061	-0.004870	-0.763374	-0.033646
35586	-9.377495	0.686464	-1.875174	-0.646019	-0.004693	-0.762562	-0.033707
35587	-9.449430	0.553337	-1.850442	-0.646897	-0.004652	-0.761818	-0.033700
35588	-9.415587	0.548994	-1.902679	-0.647676	-0.004811	-0.761164	-0.033486
35589	-9.393592	0.556882	-1.720217	-0.648292	-0.005181	-0.760653	-0.033121
35590	-9.425805	0.532230	-1.576427	-0.648732	-0.005666	-0.760294	-0.032671
35591	-9.541007	0.646762	-1.479512	-0.648979	-0.006144	-0.760099	-0.032217
35592	-9.564325	0.727651	-1.475567	-0.649189	-0.006527	-0.759930	-0.031891
35593	-9.626485	0.727573	-1.423780	-0.649365	-0.006749	-0.759785	-0.031715
35594	-9.627053	0.708120	-1.390314	-0.649567	-0.006855	-0.759616	-0.031627
35595	-9.618553	0.665061	-1.334959	-0.649819	-0.006831	-0.759398	-0.031673
35596	-9.589917	0.631061	-1.369542	-0.650190	-0.006673	-0.759074	-0.031855
35597	-9.633081	0.556839	-1.448426	-0.650504	-0.006596	-0.758801	-0.031964
35598	-9.585994	0.493228	-1.472942	-0.650776	-0.006697	-0.758574	-0.031802
35599	-9.563848	0.537605	-1.281225	-0.650933	-0.007019	-0.758452	-0.031424
35600	-9.565059	0.617864	-1.194991	-0.651103	-0.007203	-0.758315	-0.031157
35601	-9.565436	0.689286	-1.316917	-0.651190	-0.007179	-0.758242	-0.031123
35602	-9.573913	0.794032	-1.295871	-0.651163	-0.007117	-0.758269	-0.031060
35603	-9.597275	0.818711	-1.185465	-0.651080	-0.007002	-0.758338	-0.031127
35604	-9.663512	0.751952	-1.109654	-0.651019	-0.006811	-0.758384	-0.031344
35605	-9.719695	0.616467	-1.157251	-0.651074	-0.006560	-0.758326	-0.031656
35606	-9.711264	0.601460	-1.332765	-0.651179	-0.006267	-0.758225	-0.031963
35607	-9.645054	0.666598	-1.409724	-0.651343	-0.006032	-0.758077	-0.032164
35608	-9.568968	0.689683	-1.454532	-0.651572	-0.005861	-0.757876	-0.032306
35609	-9.552849	0.750907	-1.553090	-0.651720	-0.005555	-0.757742	-0.032504
35610	-9.501065	0.772041	-1.621509	-0.651805	-0.005233	-0.757661	-0.032737
35611	-9.491934	0.783730	-1.662576	-0.651806	-0.004945	-0.757654	-0.032931
35612	-9.503052	0.684542	-1.626991	-0.651648	-0.004750	-0.757787	-0.033050
35613	-9.475117	0.685255	-1.673619	-0.651423	-0.004598	-0.757979	-0.033077
35614	-9.499127	0.662636	-1.652067	-0.651134	-0.004436	-0.758226	-0.033141
35615	-9.630326	0.685335	-1.583223	-0.650839	-0.004342	-0.758479	-0.033150
35616	-9.657666	0.762707	-1.466300	-0.650630	-0.004168	-0.758657	-0.033207
35617	-9.584805	0.718449	-1.492225	-0.650385	-0.004098	-0.758867	-0.033222
35618	-9.586769	0.669002	-1.542372	-0.650180	-0.004075	-0.759046	-0.033142
35619	-9.506224	0.591177	-1.672782	-0.649894	-0.003994	-0.759290	-0.033161
35620	-9.516998	0.611656	-1.639938	-0.649639	-0.003955	-0.759511	-0.033127
35621	-9.508710	0.659023	-1.689146	-0.649311	-0.003823	-0.759790	-0.033180
35622	-9.506063	0.722082	-1.646282	-0.648943	-0.003789	-0.760106	-0.033115
35623	-9.406750	0.679543	-1.675501	-0.648456	-0.003713	-0.760524	-0.033086
35624	-9.341945	0.603319	-1.637750	-0.647808	-0.003568	-0.761075	-0.033130
35625	-9.395159	0.503016	-1.725572	-0.646930	-0.003465	-0.761818	-0.033217
35626	-9.444443	0.516110	-1.720887	-0.646014	-0.003433	-0.762592	-0.033292
35627	-9.468971	0.549707	-1.726629	-0.644998	-0.003416	-0.763448	-0.033368
35628	-9.471057	0.565876	-1.660998	-0.643914	-0.003556	-0.764364	-0.033312
35629	-9.454868	0.589834	-1.627117	-0.642759	-0.003839	-0.765343	-0.033110
35630	-9.582465	0.614966	-1.605718	-0.641471	-0.004059	-0.766428	-0.032967
35631	-9.625720	0.632917	-1.455541	-0.640227	-0.004275	-0.767471	-0.032848
35632	-9.673693	0.610934	-1.440767	-0.639012	-0.004589	-0.768490	-0.032657
35633	-9.736871	0.625754	-1.592073	-0.637855	-0.004919	-0.769459	-0.032410
35634	-9.739030	0.697085	-1.600555	-0.636810	-0.005184	-0.770329	-0.032236
35635	-9.839551	0.736771	-1.530368	-0.635990	-0.005349	-0.771006	-0.032212
35636	-9.981256	0.589067	-1.616952	-0.635419	-0.005291	-0.771473	-0.032310
35637	-9.941619	0.548982	-1.637180	-0.635160	-0.005167	-0.771685	-0.032347
35638	-9.823301	0.579657	-1.651989	-0.635177	-0.005154	-0.771676	-0.032247
35639	-9.782507	0.610279	-1.760005	-0.635483	-0.005191	-0.771434	-0.031995
35640	-9.740929	0.724614	-1.860562	-0.635965	-0.005033	-0.771038	-0.031986
35641	-9.773307	0.696771	-1.974314	-0.636719	-0.004801	-0.770412	-0.032118
35642	-9.653602	0.717650	-2.130463	-0.637673	-0.004506	-0.769617	-0.032271
35643	-9.623500	0.646085	-2.166132	-0.638830	-0.004140	-0.768652	-0.032438
35644	-9.545885	0.616784	-1.996504	-0.640058	-0.003686	-0.767627	-0.032583
35645	-9.542818	0.653653	-1.912998	-0.641363	-0.003392	-0.766539	-0.032570
35646	-9.521393	0.614163	-1.880182	-0.642717	-0.003126	-0.765407	-0.032507
35647	-9.629267	0.628909	-1.761634	-0.644053	-0.002910	-0.764289	-0.032409
35648	-9.736077	0.753289	-1.783331	-0.645581	-0.002756	-0.763008	-0.032199
35649	-9.816862	0.909258	-1.466044	-0.647229	-0.002619	-0.761625	-0.031847
35650	-9.906404	1.030435	-1.072718	-0.649072	-0.002191	-0.760071	-0.031503
35651	-9.976635	1.016771	-0.631542	-0.651257	-0.001635	-0.758218	-0.031101
35652	-10.109068	0.812142	-0.424798	-0.653873	-0.001074	-0.755988	-0.030512
35653	-10.226179	0.248435	-0.392817	-0.657314	-0.000918	-0.753044	-0.029343
35654	-10.161674	-0.116604	0.150972	-0.661621	-0.001520	-0.749341	-0.027280
35655	-10.008723	-0.068008	0.066097	-0.667012	-0.002891	-0.744645	-0.024294
35656	-9.685642	0.383842	0.089095	-0.672532	-0.005077	-0.739775	-0.020181
35657	-9.461868	1.116883	-0.468840	-0.678340	-0.007433	-0.734544	-0.015641
35658	-9.013505	1.489317	-1.320781	-0.683576	-0.009529	-0.729722	-0.011737
35659	-8.963585	1.801146	-0.962099	-0.688351	-0.011913	-0.725237	-0.007874
35660	-8.959141	1.885805	-1.342665	-0.692975	-0.013627	-0.720819	-0.004540
35661	-9.434776	1.743447	-1.011321	-0.696677	-0.015874	-0.717209	-0.000744
35662	-9.562651	1.537960	-1.920904	-0.700321	-0.017989	-0.713595	0.003010
35663	-9.151096	1.664828	-2.142180	-0.703223	-0.019827	-0.710658	0.007040
35664	-9.263731	2.229777	-1.745185	-0.705308	-0.021209	-0.708501	0.010793
35665	-9.614836	1.650697	-1.400559	-0.706897	-0.022161	-0.706823	0.014405
35666	-10.275576	1.029777	-0.873536	-0.708145	-0.022676	-0.705474	0.017969
35667	-10.253273	1.006050	-0.993009	-0.709420	-0.022365	-0.704108	0.021319
35668	-9.786781	1.009628	-1.437956	-0.710456	-0.021427	-0.702981	0.024721
35669	-9.298909	0.318711	-1.754430	-0.710714	-0.020336	-0.702609	0.028499
35670	-9.295483	0.040476	-1.662936	-0.710314	-0.019280	-0.702867	0.032577
35671	-10.088882	-0.529338	-1.229298	-0.709994	-0.018336	-0.703014	0.036651
35672	-10.545540	-1.047632	-0.765875	-0.709811	-0.018197	-0.702954	0.041143
35673	-9.939704	-0.791231	-0.802400	-0.709289	-0.019669	-0.703090	0.046764
35674	-9.566459	-0.687160	-0.615617	-0.708486	-0.021488	-0.703439	0.052536
35675	-9.616669	-0.353947	-0.052660	-0.707769	-0.022925	-0.703692	0.057928
35676	-9.466282	-0.476969	0.545691	-0.707309	-0.023703	-0.703704	0.062867
35677	-9.533994	-1.110960	1.084010	-0.706917	-0.023741	-0.703692	0.067251
35678	-9.692756	-2.110624	0.661840	-0.706335	-0.022943	-0.703947	0.070866
35679	-9.838493	-1.966875	0.125741	-0.705982	-0.021688	-0.704036	0.073836
35680	-9.363723	-1.259094	0.236087	-0.705503	-0.020759	-0.704234	0.076746
35681	-9.222252	-1.208194	0.216727	-0.704618	-0.019502	-0.704883	0.079207
35682	-9.604911	-1.646363	0.338887	-0.703357	-0.018140	-0.705929	0.081386
35683	-9.670721	-2.026506	0.057825	-0.702044	-0.016887	-0.707014	0.083547
35684	-9.730940	-1.975968	-0.089592	-0.700591	-0.016012	-0.708161	0.086159
35685	-9.681198	-1.491693	-0.405789	-0.699321	-0.015812	-0.709031	0.089298
35686	-9.656400	-0.971597	-0.377626	-0.698020	-0.016382	-0.709851	0.092802
35687	-9.521968	-0.852033	-0.086570	-0.696484	-0.016990	-0.710902	0.096127
35688	-9.577715	-0.757312	0.023305	-0.694700	-0.016668	-0.712307	0.098660
35689	-9.841429	-0.399094	0.518561	-0.692848	-0.015913	-0.713835	0.100739
35690	-9.743097	0.235027	0.668230	-0.690941	-0.013984	-0.715590	0.101662
35691	-9.859632	0.620180	0.572949	-0.689086	-0.010534	-0.717520	0.101068
35692	-9.943681	-0.290935	-0.064541	-0.687161	-0.005708	-0.719619	0.099622
35693	-9.382961	-1.859370	-0.614086	-0.684790	-0.000588	-0.722031	0.098656
35694	-9.291784	-3.487996	-0.912157	-0.681886	0.003177	-0.724711	0.099073
35695	-9.606381	-3.838001	-1.204206	-0.678451	0.005315	-0.727648	0.101015
35696	-9.857701	-2.781348	-1.215389	-0.674833	0.006520	-0.730563	0.104093
35697	-10.068356	-1.013021	-0.827956	-0.670754	0.008377	-0.733758	0.107787
35698	-10.295451	0.987754	-0.221170	-0.666919	0.012294	-0.736801	0.110418
35699	-10.100706	1.455477	0.502582	-0.663063	0.018406	-0.739956	0.111686
35700	-9.779899	-0.494990	-0.086669	-0.659137	0.026868	-0.743338	0.110750
35701	-9.691501	-3.288334	-0.884394	-0.655435	0.035646	-0.746390	0.109712
35702	-9.469402	-4.630783	-1.561700	-0.652496	0.043396	-0.748553	0.109701
35703	-9.253077	-4.392602	-1.519421	-0.650319	0.049225	-0.749809	0.111573
35704	-9.280222	-2.892049	-0.848711	-0.648784	0.053588	-0.750362	0.114737
35705	-9.277373	-1.724782	-0.617832	-0.647241	0.057471	-0.750992	0.117418
35706	-8.989082	-1.779556	-0.925684	-0.645427	0.061490	-0.751959	0.119171
35707	-8.729843	-3.250294	-1.794579	-0.643450	0.064972	-0.753146	0.120507
35708	-8.889778	-3.531597	-2.308218	-0.641690	0.067661	-0.754150	0.122126
35709	-8.793242	-2.353406	-2.034576	-0.640358	0.069115	-0.754781	0.124379
35710	-9.497830	-0.589138	-1.221960	-0.639759	0.070721	-0.754937	0.125609
35711	-9.242166	-0.979841	-1.101157	-0.639810	0.073241	-0.754775	0.124871
35712	-8.715164	-3.107027	-1.539495	-0.640220	0.076149	-0.754522	0.122540
35713	-7.979878	-4.729733	-1.931896	-0.640789	0.077861	-0.754131	0.120891
35714	-7.932782	-4.147679	-2.294412	-0.641300	0.078659	-0.753727	0.120175
35715	-8.397767	-3.091980	-2.340268	-0.641658	0.078983	-0.753480	0.119601
35716	-8.586495	-2.896683	-1.922762	-0.641859	0.079104	-0.753448	0.118642
35717	-8.367567	-3.181851	-1.894868	-0.641714	0.078980	-0.753771	0.117448
35718	-8.778193	-3.413293	-1.567084	-0.641359	0.078207	-0.754337	0.116271
35719	-9.083377	-3.444171	-1.592783	-0.640984	0.076773	-0.754936	0.115398
35720	-9.302344	-3.029780	-1.278602	-0.640845	0.074525	-0.755379	0.114748
35721	-9.593714	-2.587826	-1.143868	-0.641060	0.072080	-0.755560	0.113912
35722	-9.488758	-1.997267	-1.093702	-0.641690	0.069632	-0.755348	0.113290
35723	-9.547836	-2.195469	-1.226248	-0.642093	0.067665	-0.755372	0.112032
35724	-9.225499	-2.434311	-1.732399	-0.642440	0.065562	-0.755444	0.110800
35725	-9.097112	-3.067541	-1.441546	-0.642234	0.063074	-0.756009	0.109578
35726	-8.871539	-3.617311	-1.511016	-0.641863	0.060696	-0.756666	0.108556
35727	-9.398228	-3.322843	-1.273525	-0.641208	0.058005	-0.757495	0.108116
35728	-9.190850	-1.827900	-1.141413	-0.640999	0.055008	-0.757897	0.108102
35729	-9.639592	-1.570001	-0.871569	-0.640704	0.051760	-0.758448	0.107590
35730	-9.315546	-2.470617	-1.230974	-0.640358	0.048065	-0.759131	0.106545
35731	-9.520552	-3.016016	-1.603187	-0.639913	0.044240	-0.759831	0.105882
35732	-9.252424	-2.188075	-1.376734	-0.639372	0.041231	-0.760441	0.105988
35733	-8.991775	-2.030264	-1.011073	-0.638133	0.039211	-0.761616	0.105782
35734	-9.627876	-2.632477	-1.436688	-0.637182	0.036475	-0.762587	0.105493
35735	-9.709859	-2.824088	-1.560631	-0.636461	0.032249	-0.763326	0.105882
35736	-10.105987	-2.558186	-1.916386	-0.635950	0.027401	-0.763778	0.107048
35737	-9.467649	-1.669914	-1.708194	-0.635675	0.023639	-0.763916	0.108582
35738	-8.871929	-1.210472	-1.484792	-0.635068	0.021733	-0.764416	0.109016
35739	-8.976628	-1.949500	-1.917840	-0.634260	0.020927	-0.765252	0.108004
35740	-9.264204	-2.788294	-1.929977	-0.633369	0.019502	-0.766202	0.106764
35741	-9.588266	-2.794534	-2.293634	-0.632672	0.017314	-0.766984	0.105649
35742	-9.812830	-2.677727	-2.109342	-0.632069	0.014782	-0.767557	0.105484
35743	-9.350263	-2.110487	-1.612196	-0.631626	0.013022	-0.767965	0.105399
35744	-8.998260	-1.868385	-1.236315	-0.631197	0.012115	-0.768433	0.104665
35745	-9.266113	-2.239079	-1.403607	-0.630773	0.011667	-0.769025	0.102909
35746	-10.017830	-2.497397	-1.738065	-0.631067	0.010215	-0.769038	0.101147
35747	-9.530367	-1.965507	-1.841251	-0.631873	0.007868	-0.768583	0.099776
35748	-9.553522	-2.274312	-1.812345	-0.632742	0.005499	-0.767995	0.098947
35749	-9.762407	-2.295117	-1.298066	-0.633810	0.003476	-0.767180	0.098526
35750	-9.324296	-1.757429	-1.072088	-0.634922	0.002184	-0.766402	0.097460
35751	-9.923696	-1.607561	-1.009225	-0.636301	0.000867	-0.765475	0.095753
35752	-10.262065	-1.155770	-0.638398	-0.638756	-0.001063	-0.763687	0.093661
35753	-10.234377	-0.875195	-0.125667	-0.642258	-0.003213	-0.761012	0.091406
35754	-10.209960	-0.364513	-0.184332	-0.646730	-0.005198	-0.757466	0.089211
35755	-9.530789	-0.395285	-0.638722	-0.651796	-0.005750	-0.753441	0.086351
35756	-8.971964	-2.086302	-1.834780	-0.656460	-0.005357	-0.749721	0.083362
35757	-8.849415	-3.140068	-2.418329	-0.660557	-0.006393	-0.746238	0.082181
35758	-9.174690	-1.876989	-2.665350	-0.664100	-0.009343	-0.743038	0.082336
35759	-9.290812	0.235007	-2.263134	-0.667044	-0.014199	-0.740143	0.083894
35760	-9.544197	2.338076	-1.964898	-0.668992	-0.018326	-0.738252	0.084249
35761	-9.929924	3.152105	-2.450470	-0.670517	-0.019575	-0.737066	0.082199
35762	-9.509939	2.149381	-2.070315	-0.671523	-0.018855	-0.736535	0.078850
35763	-9.135429	0.079246	-2.391880	-0.671855	-0.016792	-0.736745	0.074403
35764	-9.393421	-1.409498	-2.518895	-0.671752	-0.015481	-0.737226	0.070762
35765	-9.515778	-1.285503	-1.767940	-0.672093	-0.015567	-0.737117	0.068607
35766	-9.703642	-0.277224	-1.491027	-0.672429	-0.016303	-0.736933	0.067109
35767	-9.430383	0.278705	-1.267376	-0.672958	-0.017259	-0.736549	0.065762
35768	-9.422549	-0.350476	-1.112948	-0.672895	-0.017671	-0.736762	0.063882
35769	-9.629974	-1.622936	-1.376698	-0.672258	-0.017589	-0.737528	0.061745
35770	-9.742763	-2.697440	-1.652169	-0.671497	-0.018018	-0.738332	0.060284
35771	-9.689039	-1.982411	-1.418305	-0.671019	-0.019078	-0.738804	0.059485
35772	-9.550076	-0.670973	-1.163060	-0.670248	-0.020063	-0.739547	0.058609
35773	-9.575873	0.357148	-1.055857	-0.669170	-0.020297	-0.740629	0.057168
35774	-9.513782	1.033123	-1.107555	-0.667876	-0.019407	-0.742015	0.054576
35775	-9.590803	1.191893	-1.307912	-0.666417	-0.017555	-0.743643	0.050747
35776	-9.582712	0.602998	-1.084806	-0.664869	-0.015064	-0.745389	0.046013
35777	-9.688654	-0.071233	-1.097815	-0.663369	-0.012112	-0.747084	0.040748
35778	-9.466968	-0.405138	-1.000125	-0.661916	-0.009081	-0.748672	0.035700
35779	-9.426991	-0.635954	-1.017676	-0.660622	-0.006144	-0.750056	0.030944
35780	-9.476905	-1.102658	-1.020739	-0.659479	-0.003522	-0.751242	0.026638
35781	-9.690956	-1.307747	-0.912205	-0.658284	-0.001818	-0.752414	0.023077
35782	-10.190889	-1.334499	-1.079084	-0.657447	-0.001143	-0.753235	0.019997
35783	-10.210199	-0.955759	-0.871163	-0.657474	-0.001582	-0.753265	0.017794
35784	-9.735423	-0.271388	-0.877284	-0.658163	-0.002594	-0.752699	0.016092
35785	-9.358643	-0.293599	-0.888236	-0.658931	-0.003824	-0.752049	0.014756
35786	-9.452417	-0.792843	-0.996220	-0.659199	-0.005250	-0.751824	0.013775
35787	-9.870258	-1.104960	-0.889122	-0.659455	-0.006987	-0.751603	0.012789
35788	-9.847890	-0.973042	-0.653031	-0.660142	-0.009518	-0.750981	0.012260
35789	-9.857639	-0.777883	0.184858	-0.661422	-0.012927	-0.749802	0.012266
35790	-9.843922	-1.002903	0.808203	-0.663115	-0.016787	-0.748226	0.012393
35791	-10.184339	-1.238195	1.213324	-0.665164	-0.020908	-0.746304	0.012249
35792	-10.779065	-1.081267	1.475529	-0.668035	-0.024934	-0.743622	0.011548
35793	-11.082544	-0.759443	1.644947	-0.672274	-0.028203	-0.739696	0.010139
35794	-11.415171	-0.207003	1.726669	-0.678066	-0.030453	-0.734329	0.007752
35795	-12.305412	0.355086	1.734538	-0.685338	-0.031736	-0.727522	0.003916
35796	-14.393729	0.692871	1.803365	-0.693967	-0.032401	-0.719276	-0.001118
35797	-16.294549	1.182321	2.253194	-0.704788	-0.033843	-0.708589	-0.005580
35798	-17.236671	1.908443	2.839701	-0.718499	-0.037601	-0.694462	-0.008215
35799	-16.323053	2.984384	2.900367	-0.734940	-0.044736	-0.676593	-0.009180
35800	-15.551200	3.854525	3.326270	-0.753104	-0.053986	-0.655595	-0.010731
35801	-14.457025	3.385162	3.947990	-0.771416	-0.064732	-0.632892	-0.013215
35802	-13.050132	2.940616	3.732900	-0.788294	-0.076656	-0.610303	-0.015720
35803	-12.164056	2.641769	2.708246	-0.803059	-0.087330	-0.589172	-0.018632
35804	-12.089379	2.067268	1.233167	-0.816124	-0.097989	-0.569153	-0.020116
35805	-11.839977	2.783880	-0.171970	-0.829365	-0.108361	-0.547704	-0.020775
35806	-12.390732	1.955041	0.886130	-0.843289	-0.118635	-0.523719	-0.022555
35807	-12.735778	0.652859	4.856718	-0.857359	-0.127759	-0.497885	-0.026917
35808	-11.708299	0.538508	4.661613	-0.870665	-0.139314	-0.470703	-0.031179
35809	-10.652108	1.524428	3.267938	-0.881709	-0.154443	-0.444514	-0.033828
35810	-9.840484	1.653016	3.210782	-0.891026	-0.171933	-0.418706	-0.034586
35811	-8.726619	2.363832	4.214803	-0.898675	-0.192100	-0.392841	-0.034008
35812	-7.879951	3.618634	3.743574	-0.905105	-0.212718	-0.366546	-0.034347
35813	-7.040300	4.774573	4.233339	-0.910396	-0.232166	-0.340495	-0.036610
35814	-7.688414	5.050413	4.390950	-0.915536	-0.247738	-0.314234	-0.040948
35815	-7.713523	5.024049	4.156417	-0.920804	-0.260312	-0.286853	-0.045519
35816	-6.529335	4.702505	4.432277	-0.925200	-0.272365	-0.259611	-0.049236
35817	-4.624540	4.803676	4.366663	-0.928910	-0.283200	-0.232706	-0.052649
35818	-3.976128	4.116935	4.763460	-0.931937	-0.293119	-0.206079	-0.055736
35819	-3.194284	3.740017	5.025151	-0.934496	-0.301718	-0.179585	-0.058584
35820	-3.334301	3.081332	4.629452	-0.936228	-0.310011	-0.153712	-0.061179
35821	-2.530301	2.999034	4.752997	-0.936731	-0.319360	-0.128693	-0.063111
35822	-1.744720	3.194909	4.633101	-0.936169	-0.329074	-0.105335	-0.064834
35823	-0.817281	3.780640	4.110783	-0.935006	-0.338427	-0.082810	-0.066139
35824	-0.462699	4.783795	4.296420	-0.933290	-0.347348	-0.061705	-0.067164
35825	0.141014	5.233440	4.084339	-0.931264	-0.355506	-0.041623	-0.068043
35826	0.955535	5.193071	4.353128	-0.929140	-0.362445	-0.023063	-0.069282
35827	1.285135	5.148298	4.035296	-0.926917	-0.368490	-0.005965	-0.070739
35828	1.158881	5.607224	4.291643	-0.924660	-0.373712	0.009169	-0.072517
35829	1.033000	5.842587	4.110971	-0.922484	-0.378197	0.022931	-0.073924
35830	1.193119	5.718633	4.165415	-0.920525	-0.381831	0.035234	-0.074823
35831	1.793054	5.618750	4.100206	-0.918624	-0.385149	0.046099	-0.075267
35832	2.715370	5.481533	4.127221	-0.917115	-0.387457	0.055462	-0.075505
35833	2.901838	5.335474	4.059308	-0.915816	-0.389383	0.062881	-0.075555
35834	3.484084	5.347441	3.561383	-0.914753	-0.391038	0.068213	-0.075250
35835	3.911718	4.946044	3.102043	-0.914066	-0.392219	0.071271	-0.074623
35836	3.437171	5.114316	4.140646	-0.914004	-0.392492	0.071295	-0.073924
35837	1.909729	5.716462	2.827251	-0.914216	-0.392656	0.068930	-0.072660
35838	2.456639	5.125141	2.626742	-0.915144	-0.391464	0.065486	-0.070563
35839	3.650864	5.136887	4.225316	-0.916602	-0.389402	0.059606	-0.068219
35840	3.414132	6.308664	3.676819	-0.917853	-0.388212	0.050052	-0.065822
35841	2.390803	6.849252	3.638768	-0.919640	-0.385756	0.038179	-0.063225
35842	1.106666	6.506941	4.576606	-0.922223	-0.381070	0.025255	-0.060438
35843	0.365932	6.412424	4.883324	-0.925084	-0.375187	0.011365	-0.057658
35844	0.813493	6.163902	4.745777	-0.927738	-0.369143	-0.003740	-0.054964
35845	1.318856	5.323674	5.318823	-0.930113	-0.362868	-0.020963	-0.052698
35846	1.014771	5.094481	5.441641	-0.931355	-0.358186	-0.040784	-0.051154
35847	-0.411473	5.001625	5.500723	-0.931753	-0.354175	-0.062085	-0.050411
35848	-1.929867	5.337054	5.658639	-0.931630	-0.350100	-0.083619	-0.050033
35849	-2.179978	5.710670	5.215718	-0.931070	-0.345967	-0.104809	-0.049295
35850	-1.820961	6.019464	5.936805	-0.930503	-0.340161	-0.126856	-0.048603
35851	-2.251688	6.652524	5.449494	-0.928854	-0.335544	-0.149680	-0.047290
35852	-3.036350	6.316137	5.949424	-0.927021	-0.329653	-0.172859	-0.045615
35853	-3.931686	5.184803	5.436009	-0.925033	-0.322588	-0.195757	-0.043938
35854	-5.198532	5.253505	5.166701	-0.923159	-0.314010	-0.217660	-0.042432
35855	-6.146628	6.285892	4.981105	-0.921318	-0.304304	-0.238541	-0.040871
35856	-6.024124	6.595752	5.966156	-0.919792	-0.292924	-0.258157	-0.039152
35857	-5.089492	4.545936	6.705702	-0.917049	-0.283346	-0.278168	-0.036854
35858	-5.164446	3.057335	6.485486	-0.912938	-0.274891	-0.299612	-0.034824
35859	-6.560928	3.518572	5.097032	-0.908079	-0.266954	-0.320971	-0.033244
35860	-6.816221	5.093688	3.698406	-0.902777	-0.260760	-0.340604	-0.031413
35861	-6.651201	6.699288	4.781318	-0.898010	-0.252472	-0.359063	-0.030148
35862	-6.117062	4.389963	6.216927	-0.891483	-0.247773	-0.378313	-0.027310
35863	-7.607455	3.856228	6.691806	-0.884100	-0.241145	-0.399455	-0.025525
35864	-9.456669	2.970581	4.193761	-0.876070	-0.234754	-0.420482	-0.024231
35865	-10.277980	4.513804	1.866236	-0.869013	-0.228446	-0.438248	-0.023812
35866	-8.857811	6.011065	3.205255	-0.862416	-0.221605	-0.454483	-0.023966
35867	-7.965917	5.775892	5.582994	-0.855672	-0.213639	-0.470773	-0.023582
35868	-7.826524	3.952288	5.797783	-0.847176	-0.207571	-0.488608	-0.021649
35869	-9.211569	2.949490	4.450436	-0.837127	-0.202051	-0.507929	-0.020070
35870	-10.997979	3.344348	2.364328	-0.827988	-0.193951	-0.525705	-0.021285
35871	-10.483467	4.020557	0.988462	-0.820348	-0.185982	-0.540275	-0.023315
35872	-9.345334	4.858558	2.193336	-0.813156	-0.178759	-0.553336	-0.025320
35873	-9.178468	4.498665	3.608856	-0.804982	-0.171996	-0.567173	-0.027139
35874	-10.125727	3.278537	3.614006	-0.795009	-0.167250	-0.582421	-0.027825
35875	-11.212386	3.401252	3.162989	-0.784605	-0.162837	-0.597545	-0.028622
35876	-11.118369	3.558217	1.600830	-0.775183	-0.156153	-0.611325	-0.031467
35877	-10.552722	3.680831	0.642479	-0.767318	-0.147646	-0.623042	-0.035259
35878	-9.699918	3.257046	1.431485	-0.760203	-0.139187	-0.633437	-0.038407
35879	-9.458918	2.738974	2.424832	-0.753588	-0.131127	-0.642848	-0.040719
35880	-8.994561	2.362079	2.715341	-0.746799	-0.124006	-0.652023	-0.042194
35881	-9.176899	2.281187	2.030479	-0.739096	-0.117604	-0.661844	-0.043236
35882	-10.048925	2.212026	1.193623	-0.731001	-0.111672	-0.671736	-0.044031
35883	-10.854324	2.144047	1.012956	-0.722928	-0.106509	-0.681222	-0.044355
35884	-10.584823	2.060766	1.293714	-0.715194	-0.101811	-0.690074	-0.043942
35885	-10.556605	2.073933	2.558412	-0.708135	-0.097321	-0.698029	-0.042767
35886	-11.206668	2.625646	3.238557	-0.701933	-0.093334	-0.704911	-0.040981
35887	-11.615373	4.076285	3.404905	-0.697552	-0.088962	-0.709872	-0.039874
35888	-11.020698	5.608220	2.668346	-0.695187	-0.083441	-0.712781	-0.041182
35889	-10.754708	6.001700	0.622104	-0.693758	-0.076223	-0.714707	-0.045646
35890	-10.543123	4.774021	-1.474158	-0.692785	-0.067751	-0.716145	-0.050939
35891	-10.477754	2.753162	-2.192483	-0.691624	-0.058888	-0.717732	-0.055225
35892	-10.326190	1.818277	-1.417461	-0.689670	-0.050479	-0.719965	-0.058797
35893	-9.702361	1.120543	-0.528898	-0.687315	-0.042064	-0.722440	-0.062526
35894	-9.152006	-0.276776	-0.691903	-0.684386	-0.035584	-0.725397	-0.064404
35895	-9.457385	-1.330247	-1.528636	-0.680584	-0.032003	-0.729208	-0.063530
35896	-11.205593	-1.236725	-2.200024	-0.675729	-0.030115	-0.733964	-0.061476
35897	-13.723518	-0.125913	-1.819974	-0.670993	-0.029595	-0.738483	-0.059460
35898	-13.591810	0.007941	-0.177480	-0.667327	-0.031216	-0.741983	-0.056216
35899	-11.145197	-0.412003	1.526448	-0.664232	-0.035203	-0.745027	-0.049905
35900	-9.175037	-0.386098	1.741434	-0.660830	-0.040465	-0.748291	-0.041560
35901	-8.536821	0.033311	0.274241	-0.657325	-0.044033	-0.751514	-0.034803
35902	-9.231319	-0.013798	-1.250039	-0.653972	-0.045108	-0.754536	-0.030991
35903	-9.917640	-0.611296	-1.847356	-0.651683	-0.045146	-0.756593	-0.028952
35904	-9.742790	-1.203276	-1.740008	-0.650224	-0.045834	-0.757894	-0.026558
35905	-9.731541	-1.303366	-1.215480	-0.649106	-0.048097	-0.758838	-0.022648
35906	-9.612749	-0.772617	-0.925650	-0.647958	-0.051122	-0.759740	-0.018206
35907	-9.665923	-0.118232	-1.157661	-0.646530	-0.053714	-0.760857	-0.014490
35908	-9.219975	0.210630	-1.618589	-0.644855	-0.055617	-0.762191	-0.011544
35909	-9.093502	0.509184	-2.312715	-0.642640	-0.057204	-0.763977	-0.008957
35910	-9.362216	0.815161	-2.994723	-0.640153	-0.058775	-0.765969	-0.006446
35911	-9.496379	1.306810	-2.900832	-0.638019	-0.060209	-0.767651	-0.004334
35912	-9.503150	1.473449	-2.103955	-0.636335	-0.061192	-0.768976	-0.003162
35913	-9.708572	1.157595	-1.516957	-0.634782	-0.061790	-0.770212	-0.002556
35914	-9.797549	1.037592	-1.165007	-0.633391	-0.061906	-0.771348	-0.002395
35915	-9.637912	0.988386	-1.130687	-0.632136	-0.061354	-0.772420	-0.002664
35916	-9.656391	0.851789	-1.320953	-0.630746	-0.060145	-0.773647	-0.003479
35917	-9.494932	0.810229	-1.603872	-0.629331	-0.058521	-0.774916	-0.004897
35918	-9.316735	0.713061	-1.897943	-0.627902	-0.056921	-0.776181	-0.006510
35919	-9.354782	0.447994	-2.144085	-0.626406	-0.055899	-0.777451	-0.007814
35920	-9.594275	0.141911	-2.167333	-0.624895	-0.055881	-0.778662	-0.008303
35921	-9.759260	0.082595	-2.005258	-0.623430	-0.056758	-0.779776	-0.007891
35922	-9.842432	0.245725	-1.862598	-0.622084	-0.058087	-0.780762	-0.006927
35923	-9.756608	0.644297	-1.853286	-0.620908	-0.059397	-0.781609	-0.005690
35924	-9.625108	1.096474	-1.935873	-0.619905	-0.060315	-0.782341	-0.004680
35925	-9.506065	1.450697	-2.111649	-0.619079	-0.060662	-0.782971	-0.004224
35926	-9.412349	1.373359	-2.224687	-0.618299	-0.060743	-0.783580	-0.004253
35927	-9.485462	1.213554	-2.429904	-0.617562	-0.060832	-0.784154	-0.004419
35928	-9.424669	1.040487	-2.555266	-0.616843	-0.061025	-0.784704	-0.004506
35929	-9.347011	0.874934	-2.582434	-0.616124	-0.061190	-0.785255	-0.004629
35930	-9.224216	0.698221	-2.568784	-0.615301	-0.061296	-0.785891	-0.004753
35931	-9.230323	0.498715	-2.548142	-0.614284	-0.061556	-0.786666	-0.004709
35932	-9.313266	0.363840	-2.692528	-0.613130	-0.062132	-0.787523	-0.004320
35933	-9.357778	0.429560	-2.602022	-0.611931	-0.063052	-0.788386	-0.003593
35934	-9.349094	0.599411	-2.557421	-0.610773	-0.064139	-0.789199	-0.002716
35935	-9.410525	0.796122	-2.518911	-0.609724	-0.065203	-0.789925	-0.001844
35936	-9.498737	1.026906	-2.489852	-0.608734	-0.066174	-0.790610	-0.001018
35937	-9.418843	1.185568	-2.502390	-0.607699	-0.066972	-0.791339	-0.000383
35938	-9.361900	1.115470	-2.627323	-0.606627	-0.067671	-0.792101	0.000167
35939	-9.382440	1.041346	-2.918323	-0.605529	-0.068228	-0.792893	0.000620
35940	-9.341417	1.016578	-3.054700	-0.604358	-0.068619	-0.793752	0.000906
35941	-9.288113	0.986601	-2.996143	-0.603122	-0.068775	-0.794678	0.000961
35942	-9.266631	0.907052	-3.019413	-0.602200	-0.068840	-0.795372	0.000944
35943	-9.353334	0.771431	-3.051194	-0.601578	-0.069139	-0.795815	0.001379
35944	-9.360323	0.807518	-2.946911	-0.601006	-0.069440	-0.796220	0.001912
35945	-9.291292	0.934323	-2.902115	-0.600468	-0.069501	-0.796620	0.002106
35946	-9.263778	0.968198	-2.915831	-0.599981	-0.069603	-0.796978	0.002185
35947	-9.294824	1.022355	-2.945428	-0.599500	-0.069874	-0.797315	0.002466
35948	-9.324083	0.987887	-3.034846	-0.599153	-0.070061	-0.797559	0.002635
35949	-9.318084	0.914633	-2.998484	-0.598982	-0.070092	-0.797684	0.002621
35950	-9.383139	0.851256	-2.921342	-0.599038	-0.070180	-0.797635	0.002726
35951	-9.339880	0.873353	-2.967799	-0.599182	-0.070268	-0.797518	0.002860
35952	-9.362103	0.902673	-2.879520	-0.599288	-0.070325	-0.797433	0.002963
35953	-9.349907	0.997116	-2.770849	-0.599497	-0.070356	-0.797273	0.003037
35954	-9.280124	1.036702	-2.787432	-0.599880	-0.070495	-0.796972	0.003188
35955	-9.299291	1.045406	-2.903080	-0.600326	-0.070692	-0.796618	0.003332
35956	-9.322347	1.022602	-2.874591	-0.600738	-0.070918	-0.796286	0.003558
35957	-9.317879	0.964142	-2.802757	-0.601130	-0.071236	-0.795960	0.003953
35958	-9.321182	0.891846	-2.731078	-0.601513	-0.071665	-0.795629	0.004532
35959	-9.283785	0.876551	-2.864509	-0.601820	-0.072007	-0.795362	0.005143
35960	-9.276130	1.054978	-2.844326	-0.602033	-0.072183	-0.795182	0.005629
35961	-9.225604	1.121919	-2.744909	-0.602173	-0.072164	-0.795076	0.005861
35962	-9.210075	1.054697	-2.719389	-0.602265	-0.072267	-0.794994	0.006216
35963	-9.157622	0.961319	-2.855235	-0.602256	-0.072507	-0.794976	0.006680
35964	-9.192548	0.836585	-2.976452	-0.602119	-0.072830	-0.795045	0.007242
35965	-9.224644	0.712652	-2.949221	-0.601879	-0.073201	-0.795187	0.007855
35966	-9.268170	0.613385	-2.877120	-0.601539	-0.073801	-0.795378	0.008769
35967	-9.299406	0.693914	-2.844209	-0.601205	-0.074574	-0.795545	0.009979
35968	-9.273408	0.840384	-2.820267	-0.600907	-0.075311	-0.795684	0.011199
35969	-9.340640	0.940628	-2.831910	-0.600600	-0.075974	-0.795836	0.012344
35970	-9.319022	0.933544	-2.815833	-0.600255	-0.076568	-0.796021	0.013482
35971	-9.288179	0.907321	-2.676937	-0.599815	-0.077137	-0.796278	0.014601
35972	-9.308145	0.807148	-2.635011	-0.599340	-0.077699	-0.796561	0.015657
35973	-9.391171	0.710484	-2.661560	-0.598949	-0.078305	-0.796775	0.016693
35974	-9.376875	0.672793	-2.716910	-0.598632	-0.078878	-0.796934	0.017710
35975	-9.407398	0.712586	-2.795774	-0.598397	-0.079440	-0.797029	0.018845
35976	-9.339688	0.829184	-2.800944	-0.598131	-0.080062	-0.797132	0.020229
35977	-9.327917	0.891882	-2.810476	-0.597853	-0.080669	-0.797242	0.021682
35978	-9.269985	0.891752	-2.808151	-0.597541	-0.081213	-0.797383	0.023015
35979	-9.192967	0.861835	-2.839360	-0.597183	-0.081666	-0.797568	0.024251
35980	-9.169560	0.745238	-2.866785	-0.596781	-0.082061	-0.797792	0.025421
35981	-9.146637	0.627534	-2.927877	-0.596285	-0.082492	-0.798079	0.026621
35982	-9.207913	0.596185	-2.996561	-0.595734	-0.082884	-0.798410	0.027793
35983	-9.173749	0.629658	-3.013107	-0.595132	-0.083267	-0.798779	0.028935
35984	-9.201922	0.635316	-2.974763	-0.594516	-0.083690	-0.799146	0.030210
35985	-9.164986	0.583129	-2.930541	-0.593831	-0.084203	-0.799547	0.031596
35986	-9.148992	0.470782	-2.957105	-0.593000	-0.084768	-0.800047	0.033019
35987	-9.156576	0.367689	-3.070696	-0.592077	-0.085323	-0.800612	0.034435
35988	-9.252057	0.307438	-3.086665	-0.591120	-0.085944	-0.801187	0.035917
35989	-9.210220	0.332392	-3.130265	-0.590189	-0.086586	-0.801732	0.037488
35990	-9.169589	0.443590	-3.171710	-0.589284	-0.087209	-0.802258	0.039010
35991	-9.073813	0.519325	-3.245109	-0.588386	-0.087786	-0.802781	0.040465
35992	-9.212522	0.448944	-3.293442	-0.587357	-0.088357	-0.803405	0.041775
35993	-9.087769	0.318500	-3.420798	-0.586443	-0.089041	-0.803935	0.042946
35994	-8.936523	0.247724	-3.466174	-0.585408	-0.089661	-0.804553	0.044191
