// Start Time: Unknown
// Update Rate: 60.0Hz
// Filter Profile: human (46.1)
// Option Flags: AHS Disabled ICC Disabled 
// Firmware Version: 4.3.5
PacketCounter	Acc_X	Acc_Y	Acc_Z	Quat_q0	Quat_q1	Quat_q2	Quat_q3
34999	-0.152851	-0.474354	9.360349	0.665723	-0.018213	0.033991	-0.745202
35000	-0.161018	-0.145135	9.390075	0.665265	-0.016734	0.033637	-0.745661
35001	-0.374667	0.090564	9.493134	0.664955	-0.015746	0.033976	-0.745944
35002	-0.322749	0.087911	9.556763	0.664827	-0.015327	0.034704	-0.746034
35003	-0.216635	-0.227497	9.759743	0.664746	-0.014881	0.035464	-0.746078
35004	-0.249189	-0.225025	10.009995	0.664800	-0.014156	0.036176	-0.746011
35005	-0.374540	-0.422137	10.121274	0.664844	-0.013610	0.036644	-0.745959
35006	-0.327348	-0.790196	9.989362	0.665026	-0.012816	0.036464	-0.745820
35007	-0.146498	-1.086355	10.112785	0.665192	-0.011417	0.035723	-0.745730
35008	-0.069650	-1.348185	10.228442	0.665293	-0.009723	0.035008	-0.745697
35009	-0.182796	-1.424815	10.274237	0.665303	-0.007974	0.033939	-0.745759
35010	-0.197604	-1.241513	10.284029	0.665130	-0.006845	0.032874	-0.745972
35011	-0.341717	-1.374228	9.870665	0.664981	-0.006592	0.032034	-0.746144
35012	-0.194136	-1.549683	9.588380	0.664525	-0.006353	0.031025	-0.746595
35013	-0.187793	-1.450402	9.354987	0.663769	-0.005549	0.030035	-0.747314
35014	-0.024480	-0.814041	9.308747	0.662808	-0.004529	0.029239	-0.748204
35015	-0.283412	-0.370511	9.350282	0.661707	-0.003960	0.029097	-0.749187
35016	-0.352537	0.028354	9.409260	0.660886	-0.004110	0.029723	-0.749887
35017	-0.398035	0.043912	9.444483	0.660278	-0.004977	0.031136	-0.750359
35018	-0.396833	-0.533055	9.284950	0.659853	-0.005784	0.032210	-0.750682
35019	-0.121384	-0.257647	9.301815	0.659341	-0.005693	0.032500	-0.751119
35020	-0.136995	-0.089038	9.451974	0.658845	-0.004994	0.032607	-0.751555
35021	-0.321207	0.598388	9.545900	0.658279	-0.004334	0.033002	-0.752038
35022	-0.426544	0.645446	9.634226	0.657807	-0.003971	0.033567	-0.752428
35023	-0.296258	1.218688	9.786928	0.657525	-0.003914	0.034614	-0.752627
35024	-0.484506	1.271397	10.060066	0.657505	-0.004038	0.036043	-0.752576
35025	-0.685269	1.497646	10.332757	0.657903	-0.004242	0.037472	-0.752158
35026	-0.813510	1.382098	10.459146	0.658797	-0.004392	0.038352	-0.751329
35027	-0.706507	1.122013	10.570092	0.660159	-0.004383	0.038703	-0.750115
35028	-0.621590	0.967121	10.781135	0.661790	-0.004443	0.039145	-0.748654
35029	-0.671645	0.401173	10.852176	0.663607	-0.004753	0.039532	-0.747021
35030	-0.742495	-0.038222	10.753111	0.665648	-0.004807	0.038789	-0.745241
35031	-0.724957	-0.081945	10.467691	0.667784	-0.004592	0.036977	-0.743422
35032	-0.524479	-0.141208	10.201738	0.669936	-0.004380	0.035052	-0.741578
35033	-0.508049	-0.194957	10.216003	0.671951	-0.004481	0.034177	-0.739793
35034	-0.713866	-1.332033	10.187957	0.674248	-0.004722	0.033438	-0.737732
35035	-0.838975	-2.896328	9.909076	0.676705	-0.004116	0.030824	-0.735598
35036	-0.107486	-3.668612	9.556461	0.679029	-0.001806	0.025666	-0.733660
35037	0.154827	-3.496808	9.197065	0.680488	0.001071	0.020357	-0.732476
35038	0.081167	-3.220832	8.739419	0.680946	0.003222	0.016484	-0.732141
35039	0.074434	-2.797189	8.457914	0.680346	0.004466	0.014177	-0.732740
35040	0.040998	-2.112248	8.596199	0.679035	0.005468	0.013092	-0.733969
35041	-0.115750	-1.202405	9.160918	0.677514	0.006219	0.013736	-0.735355
35042	-0.360238	-0.783149	9.635172	0.675990	0.005847	0.016003	-0.736714
35043	-0.345834	-0.831767	10.129419	0.674547	0.004732	0.018362	-0.737988
35044	-0.003389	-0.355666	11.209160	0.673308	0.003227	0.021236	-0.739050
35045	0.169160	-0.361723	12.250861	0.672504	0.000559	0.025806	-0.739643
35046	-0.198762	-0.838483	12.669742	0.671916	-0.003429	0.031125	-0.739965
35047	-0.530511	-1.404574	12.851026	0.670998	-0.008450	0.034826	-0.740592
35048	-0.498770	-2.200266	12.409559	0.669746	-0.013093	0.035453	-0.741628
35049	-0.074357	-1.755794	11.858503	0.668191	-0.016082	0.033163	-0.743076
35050	-0.122169	-0.882527	11.419364	0.666413	-0.018090	0.029948	-0.744761
35051	-0.097060	-0.162517	10.905851	0.664668	-0.020614	0.027300	-0.746355
35052	-0.367322	0.394268	10.354939	0.662895	-0.024797	0.026223	-0.747842
35053	-0.716208	0.047951	9.289700	0.661106	-0.030541	0.025507	-0.749236
35054	-0.692710	-0.014150	8.052493	0.659134	-0.036179	0.022930	-0.750805
35055	-0.422253	0.089113	6.818666	0.657236	-0.039771	0.017819	-0.752424
35056	0.130705	0.601215	6.147037	0.656022	-0.040798	0.011932	-0.753544
35057	0.505066	1.429062	6.300934	0.655898	-0.040090	0.008215	-0.753740
35058	0.501628	1.018514	6.809520	0.656648	-0.039774	0.008060	-0.753105
35059	0.437881	0.048342	7.259382	0.657684	-0.041300	0.010904	-0.752082
35060	0.459345	-1.007367	7.618471	0.658461	-0.043482	0.014609	-0.751216
35061	0.487900	-1.295234	7.866842	0.658309	-0.045118	0.017336	-0.751195
35062	0.297348	-1.331292	8.246880	0.657753	-0.045080	0.018474	-0.751657
35063	0.611109	-0.954297	8.685632	0.657422	-0.043395	0.018831	-0.752037
35064	0.282584	-0.485138	9.096158	0.657236	-0.041111	0.019363	-0.752313
35065	0.190172	-0.388716	9.469190	0.657102	-0.039776	0.020735	-0.752466
35066	0.291077	-0.448197	9.773382	0.656924	-0.039693	0.023102	-0.752557
35067	0.331801	-0.727590	9.968766	0.656655	-0.040378	0.025897	-0.752664
35068	0.221867	-0.908840	10.011508	0.656371	-0.040863	0.028190	-0.752803
35069	0.133330	-1.163669	9.949952	0.656073	-0.040110	0.028914	-0.753076
35070	0.191006	-0.766239	10.082560	0.655945	-0.037852	0.028353	-0.753326
35071	0.076759	-0.188898	10.113747	0.655979	-0.035656	0.027922	-0.753419
35072	-0.051337	-0.060818	10.155083	0.656086	-0.034878	0.028303	-0.753349
35073	0.158641	-0.490700	10.116619	0.656268	-0.035260	0.029547	-0.753124
35074	0.261426	-0.795251	10.113073	0.656436	-0.035538	0.030913	-0.752910
35075	0.137112	-0.992253	10.221053	0.656627	-0.035114	0.031625	-0.752734
35076	-0.014406	-0.988367	10.172057	0.656873	-0.034265	0.031429	-0.752566
35077	0.136603	-0.902021	10.053210	0.657049	-0.033190	0.030718	-0.752491
35078	0.220244	-0.958523	9.937056	0.657109	-0.032256	0.030047	-0.752505
35079	0.092846	-0.849215	9.935421	0.657068	-0.031844	0.029867	-0.752566
35080	0.066932	-1.077095	9.908133	0.657021	-0.031693	0.030048	-0.752606
35081	0.169736	-1.038320	9.893406	0.656915	-0.031272	0.030003	-0.752718
35082	0.091642	-1.193032	9.841459	0.656770	-0.030468	0.029367	-0.752902
35083	0.119026	-0.839616	9.827113	0.656597	-0.029762	0.028697	-0.753108
35084	0.198672	-1.009182	9.740184	0.656372	-0.029388	0.028367	-0.753331
35085	0.171218	-0.976279	9.603361	0.655926	-0.028988	0.028148	-0.753743
35086	0.100226	-0.795001	9.635697	0.655386	-0.028332	0.027934	-0.754245
35087	0.001118	-0.557205	9.658189	0.654974	-0.027717	0.027783	-0.754632
35088	-0.084754	-0.768408	9.644079	0.654809	-0.027066	0.027311	-0.754816
35089	0.041904	-0.765328	9.549964	0.654613	-0.026369	0.026640	-0.755034
35090	0.193655	-0.665497	9.546234	0.654151	-0.025658	0.026233	-0.755473
35091	0.070171	-0.674333	9.530134	0.653528	-0.024912	0.026155	-0.756040
35092	-0.026880	-0.328565	9.549059	0.652934	-0.024000	0.026087	-0.756585
35093	-0.109306	-0.189547	9.585643	0.652398	-0.022976	0.025938	-0.757084
35094	-0.057457	0.201753	9.767247	0.652021	-0.021992	0.026035	-0.757435
35095	-0.116515	0.156902	9.847064	0.651780	-0.021378	0.026419	-0.757646
35096	-0.094616	0.307256	9.988842	0.651774	-0.020834	0.026756	-0.757655
35097	-0.193675	0.261261	10.065727	0.651946	-0.020414	0.026675	-0.757521
35098	-0.003378	0.466297	10.060477	0.652373	-0.019896	0.026301	-0.757181
35099	0.008953	0.371575	9.989400	0.652927	-0.019136	0.025764	-0.756741
35100	-0.111887	0.736746	9.895171	0.653523	-0.018252	0.025195	-0.756267
35101	-0.354575	1.122295	9.833318	0.654134	-0.017379	0.024639	-0.755777
35102	-0.415104	1.687351	9.735453	0.655107	-0.016652	0.024112	-0.754968
35103	-0.402381	1.811554	9.848910	0.656727	-0.016211	0.023751	-0.753580
35104	-0.295978	1.753541	9.879789	0.658989	-0.016236	0.023839	-0.751600
35105	-0.352756	1.417003	9.918881	0.661558	-0.016471	0.024238	-0.749321
35106	-0.417527	1.425476	9.943030	0.664248	-0.016954	0.024796	-0.746908
35107	-0.404346	1.335402	9.928911	0.667180	-0.017193	0.025018	-0.744278
35108	-0.398159	1.707396	9.999869	0.670365	-0.016558	0.024719	-0.741434
35109	-0.588652	2.158992	10.358212	0.674088	-0.015569	0.024303	-0.738087
35110	-0.774580	2.539198	10.549882	0.678522	-0.015437	0.024496	-0.734009
35111	-0.861926	2.138876	10.541742	0.683576	-0.016559	0.024801	-0.729270
35112	-0.863311	1.935793	10.415229	0.689045	-0.018375	0.024933	-0.724057
35113	-0.862774	1.646237	10.363108	0.694772	-0.020163	0.024825	-0.718519
35114	-0.762141	1.840837	10.455188	0.700820	-0.021836	0.025022	-0.712564
35115	-0.946779	1.540276	10.710567	0.707441	-0.023611	0.025426	-0.705920
35116	-0.803492	1.201397	10.816812	0.714628	-0.025951	0.025832	-0.698546
35117	-0.905403	0.578161	10.649916	0.721857	-0.029074	0.025871	-0.690947
35118	-0.796147	0.285750	10.223746	0.728920	-0.032602	0.025475	-0.683348
35119	-1.028988	0.243900	9.967313	0.735827	-0.035559	0.024440	-0.675794
35120	-0.730323	0.291296	10.052043	0.743003	-0.037672	0.023489	-0.667815
35121	-0.842633	0.107141	10.100917	0.750419	-0.039575	0.022864	-0.659380
35122	-0.760598	-0.662988	10.112452	0.757910	-0.041196	0.021670	-0.650697
35123	-0.860302	-0.800683	9.878067	0.765198	-0.042521	0.019501	-0.642093
35124	-0.617309	-0.880559	9.714386	0.772344	-0.043394	0.016728	-0.633500
35125	-0.627133	-0.541003	9.692353	0.779356	-0.044438	0.014647	-0.624832
35126	-0.646312	-0.726481	9.596226	0.786251	-0.045744	0.013163	-0.616071
35127	-0.809891	-0.756757	9.472499	0.793015	-0.046926	0.011433	-0.607284
35128	-0.671463	-0.689190	9.388162	0.799807	-0.048068	0.009602	-0.598252
35129	-0.672293	-0.753800	9.243571	0.806518	-0.049499	0.007984	-0.589079
35130	-0.707871	-0.812925	9.114346	0.813036	-0.051337	0.006739	-0.579907
35131	-0.686005	-0.781968	8.935396	0.819261	-0.053358	0.005687	-0.570904
35132	-0.684850	-0.679397	8.853576	0.825426	-0.054473	0.004495	-0.561859
35133	-0.835945	-0.242420	8.867087	0.831650	-0.054594	0.003271	-0.552601
35134	-0.723601	0.049408	9.256029	0.838070	-0.054349	0.002431	-0.542843
35135	-0.854074	0.244540	9.479060	0.844571	-0.054743	0.002130	-0.532634
35136	-0.981238	0.075725	9.585190	0.851024	-0.056158	0.001994	-0.522112
35137	-0.980783	-0.300973	9.400659	0.857328	-0.058030	0.001648	-0.511486
35138	-0.941570	-0.400263	9.370228	0.863657	-0.058794	0.000840	-0.500638
35139	-0.596984	-0.520203	9.623517	0.870215	-0.058483	-0.000060	-0.489188
35140	-0.640122	-0.673613	9.731347	0.876685	-0.057344	-0.001097	-0.477634
35141	-0.806920	-0.545588	9.769636	0.882972	-0.056256	-0.002133	-0.466038
35142	-0.974332	-0.300863	9.661837	0.888877	-0.056681	-0.003001	-0.454616
35143	-0.566221	-0.645239	9.858842	0.894726	-0.058363	-0.003347	-0.442773
35144	-0.808173	-0.792508	9.680204	0.900386	-0.060770	-0.003395	-0.430813
35145	-0.745917	-1.270413	9.682800	0.905910	-0.062545	-0.003531	-0.418810
35146	-0.820069	-1.042612	9.916375	0.911272	-0.063816	-0.003492	-0.406815
35147	-0.969397	-1.363719	10.076717	0.916537	-0.064669	-0.003808	-0.394668
35148	-0.739632	-1.731196	10.120947	0.921667	-0.064468	-0.004844	-0.382557
35149	-0.722654	-1.575770	9.906703	0.926638	-0.062689	-0.006586	-0.370632
35150	-0.778706	-1.152768	9.574091	0.931411	-0.060535	-0.008591	-0.358798
35151	-0.484953	-0.806339	9.528565	0.935998	-0.059835	-0.009924	-0.346742
35152	-0.599926	-1.127583	9.475551	0.940329	-0.060947	-0.010313	-0.334606
35153	-0.447212	-1.753138	9.639938	0.944394	-0.062657	-0.010108	-0.322632
35154	-0.679636	-2.261633	9.623438	0.948277	-0.062830	-0.010540	-0.310985
35155	-0.451930	-2.188827	9.780428	0.952084	-0.060569	-0.011768	-0.299549
35156	-0.509658	-1.069989	9.990945	0.955723	-0.057996	-0.012927	-0.288207
35157	-0.492299	-1.129664	10.041915	0.959119	-0.057414	-0.013657	-0.276783
35158	-0.351469	-1.974255	9.957491	0.962346	-0.057433	-0.014599	-0.265291
35159	-0.159327	-2.597160	9.909856	0.965476	-0.055163	-0.016020	-0.254080
35160	-0.276915	-1.767825	10.069596	0.968385	-0.051145	-0.017556	-0.243530
35161	-0.589023	-0.691834	9.977692	0.971006	-0.048412	-0.018635	-0.233357
35162	-0.435870	-0.766386	9.980081	0.973518	-0.047438	-0.019669	-0.222768
35163	-0.148956	-1.405025	9.967267	0.976008	-0.047110	-0.020506	-0.211588
35164	-0.160992	-2.012790	9.964730	0.978395	-0.046402	-0.021370	-0.200333
35165	-0.289294	-1.708545	9.971960	0.980460	-0.046972	-0.022126	-0.189745
35166	-0.364324	-1.695059	9.865664	0.982179	-0.049850	-0.023047	-0.179743
35167	-0.214088	-1.834760	9.938260	0.983655	-0.053965	-0.023732	-0.170139
35168	-0.375034	-2.756047	9.733431	0.985122	-0.056041	-0.024726	-0.160571
35169	-0.113658	-2.534988	9.672927	0.986660	-0.054059	-0.026317	-0.151284
35170	-0.112699	-1.576558	9.685200	0.988158	-0.050346	-0.027754	-0.142265
35171	-0.381404	-1.228323	9.332076	0.989525	-0.047229	-0.029150	-0.133268
35172	-0.141077	-1.646144	9.000090	0.990802	-0.043739	-0.030774	-0.124306
35173	0.443289	-1.395900	9.111644	0.992036	-0.039493	-0.031803	-0.115293
35174	0.270010	-1.157882	9.274385	0.993175	-0.036796	-0.032130	-0.105915
35175	-0.035560	-1.789571	9.218980	0.994091	-0.037152	-0.032779	-0.096583
35176	0.352848	-2.809659	9.174328	0.994775	-0.038772	-0.033852	-0.088168
35177	0.581452	-3.153154	9.306301	0.995391	-0.038996	-0.034489	-0.080542
35178	0.576671	-2.692329	9.626508	0.995991	-0.037603	-0.034478	-0.073480
35179	0.151520	-2.751885	9.542513	0.996550	-0.035267	-0.034555	-0.066713
35180	0.198031	-2.233421	9.367819	0.997014	-0.032801	-0.035095	-0.060460
35181	0.350985	-2.233154	9.126981	0.997383	-0.030961	-0.035771	-0.054678
35182	0.609843	-2.107417	9.140901	0.997696	-0.030052	-0.035893	-0.049111
35183	0.388208	-2.507445	9.187423	0.997967	-0.029779	-0.035388	-0.043860
35184	0.525409	-2.915560	9.364750	0.998201	-0.029260	-0.035001	-0.038904
35185	0.558907	-3.054359	9.468805	0.998384	-0.029096	-0.034717	-0.034306
35186	0.474670	-3.611500	9.355925	0.998491	-0.029839	-0.034839	-0.030186
35187	0.524529	-4.207314	9.102579	0.998524	-0.031298	-0.035293	-0.026919
35188	0.782020	-4.654711	9.041897	0.998521	-0.033012	-0.035555	-0.024553
35189	0.961169	-4.896715	9.265605	0.998500	-0.035000	-0.035236	-0.023063
35190	0.780797	-5.447901	9.525189	0.998463	-0.037160	-0.034515	-0.022349
35191	0.468990	-6.068109	9.619843	0.998398	-0.039169	-0.033932	-0.022690
35192	0.460361	-6.352418	9.579653	0.998321	-0.040267	-0.033681	-0.024496
35193	0.456887	-6.078349	9.786113	0.998214	-0.041047	-0.033237	-0.027906
35194	0.412587	-5.987015	9.724423	0.998023	-0.042449	-0.032745	-0.032787
35195	0.234679	-5.805566	9.735377	0.997742	-0.044298	-0.032310	-0.038792
35196	0.045154	-5.744859	9.712111	0.997334	-0.046823	-0.032032	-0.045890
35197	0.131006	-5.815004	9.677910	0.996809	-0.049237	-0.031911	-0.054118
35198	0.002401	-5.872042	9.595140	0.996185	-0.050848	-0.031825	-0.063386
35199	-0.007357	-5.340597	9.737664	0.995406	-0.052112	-0.031678	-0.073811
35200	-0.330327	-4.872506	9.708323	0.994370	-0.054266	-0.031178	-0.085509
35201	-0.561821	-4.587091	9.700862	0.993075	-0.056743	-0.030924	-0.098117
35202	-0.699171	-4.227984	9.577223	0.991549	-0.058825	-0.030724	-0.111470
35203	-0.593677	-3.987514	9.533761	0.989835	-0.060086	-0.030491	-0.125245
35204	-0.813282	-3.325028	9.611233	0.987849	-0.061584	-0.030010	-0.139507
35205	-0.869455	-3.152431	9.559436	0.985485	-0.064291	-0.029502	-0.154322
35206	-0.711981	-3.049540	9.545486	0.982805	-0.067506	-0.028978	-0.169401
35207	-0.895544	-3.228902	9.472256	0.979860	-0.070351	-0.028093	-0.184760
35208	-1.170903	-2.758988	9.601258	0.976582	-0.072837	-0.026916	-0.200644
35209	-1.451346	-2.534786	9.603263	0.972903	-0.075594	-0.026023	-0.216951
35210	-1.291517	-2.310695	9.480570	0.968894	-0.077930	-0.025384	-0.233509
35211	-1.295416	-2.205164	9.283897	0.964747	-0.078500	-0.024633	-0.249988
35212	-1.601472	-1.707267	9.170277	0.960434	-0.077900	-0.023915	-0.266320
35213	-1.728508	-0.823155	9.356346	0.955696	-0.078648	-0.022886	-0.282728
35214	-1.526589	-0.885989	9.529468	0.950489	-0.081697	-0.020993	-0.299090
35215	-1.197231	-1.310510	9.716751	0.945068	-0.084475	-0.018587	-0.315223
35216	-1.435193	-1.646966	9.524092	0.939665	-0.084401	-0.017029	-0.331083
35217	-1.791733	-1.067062	9.485302	0.934294	-0.082360	-0.016905	-0.346446
35218	-1.508202	-0.388846	9.504506	0.928628	-0.081112	-0.016505	-0.361661
35219	-1.273773	-0.467969	9.451790	0.922597	-0.081889	-0.015242	-0.376664
35220	-1.121762	-0.969644	9.407385	0.916291	-0.083152	-0.013586	-0.391550
35221	-1.230385	-1.175763	9.605381	0.909912	-0.083225	-0.011771	-0.406197
35222	-1.563038	-0.422136	10.069247	0.903223	-0.083230	-0.009713	-0.420911
35223	-1.517639	-0.439765	10.215900	0.896219	-0.083456	-0.007842	-0.435621
35224	-1.269487	-0.180339	10.263826	0.889336	-0.082493	-0.006775	-0.449701
35225	-1.346256	-0.321963	9.839214	0.882811	-0.079764	-0.006946	-0.462854
35226	-1.200389	-0.066617	9.633679	0.876561	-0.076678	-0.007809	-0.475078
35227	-0.939163	-0.047885	9.366162	0.870132	-0.075351	-0.007864	-0.486961
35228	-0.688933	-0.244819	9.476369	0.863295	-0.076325	-0.006054	-0.498859
35229	-0.775960	-1.249277	9.621348	0.856040	-0.078046	-0.002915	-0.510975
35230	-0.996181	-1.362793	9.987215	0.848351	-0.077803	-0.000304	-0.523686
35231	-1.359579	-1.006431	9.996574	0.840728	-0.074818	0.000222	-0.536264
35232	-1.430370	0.123835	9.843061	0.833251	-0.070951	-0.000671	-0.548323
35233	-1.222248	0.316961	9.352217	0.826068	-0.067534	-0.001994	-0.559505
35234	-0.675553	0.820260	9.330110	0.819020	-0.065612	-0.001775	-0.569998
35235	-0.604873	0.262041	9.524571	0.811943	-0.065703	0.000486	-0.580027
35236	-0.663511	-0.806473	9.925732	0.804756	-0.065772	0.003390	-0.589941
35237	-0.844453	-1.046067	10.166435	0.797381	-0.064003	0.005000	-0.600052
35238	-1.008407	-0.334837	10.161321	0.789788	-0.061257	0.005205	-0.610292
35239	-0.764059	0.186210	10.110708	0.782226	-0.058909	0.005026	-0.620182
35240	-0.837370	0.154306	10.099468	0.774875	-0.057382	0.005440	-0.629481
35241	-0.624669	-0.777441	10.055593	0.767767	-0.055968	0.005878	-0.638253
35242	-0.052237	-0.726476	10.613913	0.760562	-0.054433	0.006651	-0.646946
35243	-0.206407	-0.915328	10.895465	0.753227	-0.054340	0.009123	-0.655449
35244	-0.910418	-1.583135	10.548737	0.745235	-0.055904	0.011666	-0.664352
35245	-0.536101	-2.227469	10.111785	0.736299	-0.056532	0.012065	-0.674182
35246	-0.384840	-1.426953	9.631970	0.726671	-0.054038	0.010416	-0.684778
35247	-0.956305	-0.034896	9.292990	0.716729	-0.048783	0.007053	-0.695608
35248	-1.439565	1.363252	8.693658	0.706574	-0.042672	0.001969	-0.706349
35249	-1.305011	2.788070	7.714732	0.696343	-0.035573	-0.003967	-0.716816
35250	-1.311777	4.609653	7.403991	0.686653	-0.029791	-0.008450	-0.726325
35251	-0.832925	5.422605	7.287101	0.678119	-0.026683	-0.008849	-0.734415
35252	-0.416932	4.930192	7.918773	0.671340	-0.025244	-0.005591	-0.740698
35253	-0.511876	4.645074	8.601151	0.665685	-0.024593	0.000030	-0.745827
35254	-0.644980	3.581975	9.027578	0.660778	-0.023951	0.005703	-0.750178
35255	-0.484965	3.192241	9.441999	0.656760	-0.022612	0.009709	-0.753698
35256	-0.348098	3.166140	9.725619	0.653340	-0.020419	0.012121	-0.756692
35257	-0.217074	3.315492	10.141461	0.650524	-0.017888	0.014327	-0.759140
35258	-0.373656	3.453282	10.424579	0.648343	-0.015653	0.017018	-0.760997
35259	-0.469768	2.953514	10.555935	0.646934	-0.013901	0.019955	-0.762158
35260	-0.552187	2.527689	10.433778	0.646181	-0.012270	0.022172	-0.762763
35261	-0.349922	2.040027	10.433240	0.646069	-0.010290	0.023435	-0.762850
35262	-0.216837	2.071913	10.621429	0.646326	-0.008222	0.024742	-0.762616
35263	-0.224871	2.040459	10.898796	0.646943	-0.006960	0.027257	-0.762019
35264	-0.227915	1.373188	11.031560	0.648014	-0.006774	0.030732	-0.760978
35265	-0.400037	0.543011	10.839363	0.649368	-0.006687	0.033602	-0.759702
35266	-0.424062	0.071063	10.689623	0.650818	-0.005908	0.034682	-0.758418
35267	-0.204876	0.307777	10.751636	0.652545	-0.004499	0.034886	-0.756933
35268	-0.314898	0.179918	10.600482	0.654546	-0.003427	0.035079	-0.755200
35269	-0.311005	-0.112543	10.412960	0.656586	-0.003118	0.035378	-0.753415
35270	-0.216253	-0.409615	10.293633	0.658591	-0.003305	0.035837	-0.751640
35271	-0.206293	-0.574448	10.140919	0.660592	-0.003629	0.036593	-0.749844
35272	-0.151409	-0.773679	10.012908	0.662531	-0.003962	0.037275	-0.748096
35273	-0.023511	-0.898588	10.074978	0.664342	-0.004073	0.037825	-0.746460
35274	-0.095384	-0.895105	10.080975	0.666095	-0.003842	0.038221	-0.744877
35275	-0.097544	-0.766208	10.135118	0.667774	-0.003401	0.038522	-0.743359
35276	-0.406778	-0.548680	10.052360	0.669324	-0.003065	0.038572	-0.741963
35277	-0.356074	-0.417642	9.947964	0.670845	-0.002919	0.038229	-0.740606
35278	-0.225056	-0.353751	9.803623	0.672611	-0.002731	0.037690	-0.739030
35279	-0.066210	-0.422627	9.743702	0.674526	-0.002732	0.037316	-0.737302
35280	-0.182851	-0.363254	9.661111	0.676352	-0.003225	0.037374	-0.735623
35281	-0.220755	-0.493832	9.423323	0.678039	-0.003891	0.037417	-0.734063
35282	-0.416390	-0.425333	9.092692	0.679703	-0.004087	0.036841	-0.732551
35283	-0.485128	-0.326971	8.803775	0.681417	-0.003334	0.035458	-0.731029
35284	-0.391890	0.007243	8.686420	0.683219	-0.001774	0.033976	-0.729421
35285	-0.282304	0.121999	8.952627	0.685228	0.000290	0.033103	-0.727576
35286	-0.614853	0.172706	9.276576	0.687286	0.002308	0.032882	-0.725639
35287	-0.969724	-0.009349	9.386308	0.689455	0.004019	0.032441	-0.723591
35288	-0.893367	-0.105546	9.359311	0.691826	0.005656	0.031530	-0.721354
35289	-1.027746	-0.053105	9.522315	0.694380	0.007026	0.031243	-0.718896
35290	-0.852380	-0.449697	9.921589	0.697086	0.007997	0.032345	-0.716213
35291	-0.519585	-0.763221	10.465908	0.699918	0.008427	0.034567	-0.713336
35292	-0.410392	-1.256657	10.925766	0.702690	0.008104	0.037509	-0.710461
35293	-0.388669	-1.754617	11.145299	0.705345	0.007637	0.040354	-0.707674
35294	-0.959282	-1.662688	11.352842	0.707519	0.006984	0.042573	-0.705376
35295	-0.779505	-1.874582	11.221207	0.709008	0.006126	0.043200	-0.703850
35296	-0.912347	-1.680761	10.916780	0.710315	0.006197	0.042106	-0.702596
35297	-0.744776	-1.084124	10.636742	0.711624	0.006455	0.040685	-0.701352
35298	-0.643128	-0.768582	10.471088	0.712882	0.005557	0.040165	-0.700111
35299	-0.821640	-1.148581	10.189378	0.713990	0.003605	0.040304	-0.698986
35300	-0.762455	-1.258087	9.938604	0.714731	0.001937	0.039914	-0.698257
35301	-0.885725	-0.887214	9.782719	0.715250	0.001218	0.038892	-0.697785
35302	-0.947064	-0.391383	9.704204	0.715905	0.000961	0.037593	-0.697184
35303	-0.705429	-0.421129	9.584877	0.716814	0.000622	0.036227	-0.696323
35304	-0.696489	-0.416173	9.453219	0.717626	0.000171	0.034811	-0.695558
35305	-0.873762	-0.416809	9.217519	0.718245	-0.000479	0.033339	-0.694991
35306	-0.655778	-0.176989	9.087749	0.718824	-0.001035	0.031824	-0.694463
35307	-0.708278	-0.111747	8.999783	0.719612	-0.001085	0.030449	-0.693708
35308	-0.680664	-0.032399	9.124708	0.720593	-0.000911	0.029436	-0.692733
35309	-0.784883	-0.249013	9.101892	0.721585	-0.000999	0.028918	-0.691720
35310	-0.725778	-0.365336	9.085092	0.722449	-0.001268	0.028503	-0.690835
35311	-0.654868	-0.421678	9.191538	0.723257	-0.001348	0.028265	-0.689999
35312	-0.613978	-0.420801	9.330077	0.724123	-0.001063	0.028096	-0.689098
35313	-0.635954	-0.575429	9.465000	0.724999	-0.000826	0.028164	-0.688173
35314	-0.499170	-0.603553	9.539341	0.725648	-0.000909	0.028632	-0.687470
35315	-0.657987	-0.692387	9.542974	0.726091	-0.001400	0.029440	-0.686967
35316	-0.551483	-0.737809	9.584902	0.726405	-0.001796	0.030124	-0.686604
35317	-0.485468	-0.801090	9.749610	0.726761	-0.001494	0.030349	-0.686218
35318	-0.611290	-0.678053	9.913497	0.727077	-0.000763	0.030328	-0.685886
35319	-0.632983	-0.635062	10.085694	0.727296	-0.000266	0.030349	-0.685652
35320	-0.606817	-0.713932	10.014450	0.727496	-0.000160	0.030355	-0.685441
35321	-0.376328	-0.647785	9.928123	0.727584	-0.000295	0.030383	-0.685345
35322	-0.459162	-0.695205	9.855961	0.727583	-0.000509	0.030454	-0.685343
35323	-0.485807	-0.619745	9.807971	0.727519	-0.000898	0.030655	-0.685402
35324	-0.405641	-0.838194	9.808570	0.727395	-0.001282	0.031026	-0.685516
35325	-0.552458	-0.859446	9.799906	0.727169	-0.001525	0.031322	-0.685742
35326	-0.518934	-1.090116	9.711051	0.726777	-0.001547	0.031232	-0.686162
35327	-0.474135	-0.971346	9.574133	0.726168	-0.001099	0.030556	-0.686837
35328	-0.404832	-0.510577	9.554144	0.725332	-0.000429	0.029922	-0.687748
35329	-0.476021	-0.300674	9.555135	0.724402	-0.000279	0.030094	-0.688721
35330	-0.520925	-0.396813	9.479594	0.723518	-0.000538	0.030620	-0.689625
35331	-0.524707	-0.396043	9.417532	0.722521	-0.000619	0.030872	-0.690659
35332	-0.509859	-0.166081	9.418489	0.721469	-0.000534	0.030975	-0.691753
35333	-0.513706	-0.087164	9.402058	0.720389	-0.000671	0.031492	-0.692855
35334	-0.372210	-0.345168	9.386222	0.719251	-0.000666	0.032016	-0.694012
35335	-0.309873	-0.163049	9.386731	0.717998	0.000036	0.032082	-0.695305
35336	-0.345679	0.257747	9.485525	0.716732	0.001165	0.031949	-0.696616
35337	-0.471388	0.473138	9.585937	0.715710	0.002102	0.032073	-0.697658
35338	-0.335754	0.371330	9.708922	0.714974	0.002775	0.032580	-0.698386
35339	-0.495559	0.042123	9.655757	0.714397	0.003334	0.032737	-0.698966
35340	-0.465807	0.128169	9.508826	0.713738	0.004030	0.032426	-0.699651
35341	-0.250943	0.431845	9.470830	0.713143	0.004762	0.032341	-0.700256
35342	-0.318117	0.453981	9.611820	0.712789	0.005279	0.033043	-0.700580
35343	-0.418561	0.047284	9.818282	0.712613	0.005777	0.034005	-0.700709
35344	-0.433867	0.120461	10.012539	0.712322	0.006205	0.034591	-0.700973
35345	-0.565095	0.275269	10.029203	0.712112	0.006242	0.035039	-0.701163
35346	-0.364380	0.252281	10.052614	0.712065	0.006139	0.035496	-0.701189
35347	-0.435204	-0.000182	10.094818	0.712240	0.006432	0.035872	-0.700990
35348	-0.437831	0.103635	10.254854	0.712637	0.006788	0.036145	-0.700568
35349	-0.476238	-0.140325	10.074529	0.713195	0.006909	0.036200	-0.699997
35350	-0.376442	0.024228	9.962088	0.713730	0.006669	0.036212	-0.699453
35351	-0.468944	-0.248435	9.869358	0.714384	0.005968	0.036503	-0.698775
35352	-0.414181	-0.532886	9.866984	0.715180	0.005364	0.036826	-0.697949
35353	-0.426939	-0.726609	9.840731	0.715965	0.004990	0.036979	-0.697138
35354	-0.522562	-0.739262	9.727076	0.716624	0.004383	0.036841	-0.696472
35355	-0.289567	-0.741534	9.492546	0.717146	0.003574	0.036744	-0.695944
35356	-0.289492	-0.936939	9.332933	0.717565	0.003140	0.036586	-0.695523
35357	-0.290928	-0.749424	9.296787	0.717818	0.003260	0.036463	-0.695268
35358	-0.439067	-0.516796	9.314309	0.717997	0.003491	0.036499	-0.695079
35359	-0.351102	-0.407546	9.257030	0.718114	0.003542	0.036717	-0.694947
35360	-0.311825	-0.287933	9.222253	0.718186	0.003515	0.037186	-0.694848
35361	-0.402720	-0.176165	9.206384	0.718180	0.003572	0.037763	-0.694822
35362	-0.536734	-0.004878	9.295635	0.718236	0.003997	0.038167	-0.694741
35363	-0.587665	0.197156	9.462601	0.718463	0.004537	0.038652	-0.694476
35364	-0.521784	0.192089	9.410219	0.718911	0.004668	0.039270	-0.693976
35365	-0.447662	-0.098115	9.202638	0.719382	0.004752	0.039672	-0.693465
35366	-0.351563	-0.057620	9.220125	0.719798	0.005389	0.040057	-0.693006
35367	-0.508583	0.135571	9.498765	0.720159	0.006354	0.040960	-0.692570
35368	-0.650251	0.115128	9.729066	0.720697	0.007283	0.042083	-0.691933
35369	-0.759942	0.009788	9.814217	0.721389	0.008352	0.042528	-0.691173
35370	-0.718663	0.127293	9.829131	0.722283	0.009410	0.042518	-0.690225
35371	-0.646769	-0.002331	9.849248	0.723325	0.009894	0.042978	-0.689098
35372	-0.435683	-0.542167	9.946836	0.724292	0.010118	0.044086	-0.688008
35373	-0.709638	-0.877989	10.085764	0.725030	0.010719	0.044975	-0.687164
35374	-0.838880	-0.782087	10.114755	0.725547	0.011638	0.045170	-0.686590
35375	-0.976341	-0.559836	9.985628	0.726073	0.012695	0.044741	-0.686043
35376	-0.854287	-0.478189	9.733955	0.726625	0.013773	0.044298	-0.685466
35377	-0.759600	-0.497039	9.708487	0.727186	0.014711	0.044261	-0.684854
35378	-0.872760	-0.565337	9.696799	0.727717	0.015301	0.044689	-0.684249
35379	-0.739785	-0.675834	9.749644	0.728164	0.015458	0.045490	-0.683717
35380	-0.854831	-0.913951	9.645992	0.728450	0.015346	0.046383	-0.683354
35381	-0.855540	-1.117199	9.534143	0.728534	0.015483	0.046709	-0.683240
35382	-0.782728	-0.814906	9.543702	0.728460	0.016012	0.046863	-0.683296
35383	-0.927894	-0.637189	9.386259	0.728334	0.016408	0.047434	-0.683382
35384	-0.849209	-0.684507	9.404191	0.728281	0.016509	0.048345	-0.683372
35385	-0.916103	-0.863647	9.323657	0.728130	0.016629	0.049308	-0.683461
35386	-1.082226	-0.764102	9.415903	0.727764	0.016913	0.050348	-0.683768
35387	-1.241073	-0.603091	9.481795	0.727339	0.017261	0.051417	-0.684132
35388	-1.396197	-0.580246	9.395181	0.727010	0.017715	0.052054	-0.684421
35389	-0.913764	-0.646892	9.156945	0.726866	0.018395	0.052115	-0.684552
35390	-0.868002	-0.723768	8.864866	0.726649	0.019199	0.052167	-0.684756
35391	-0.744613	-0.820222	8.767123	0.726307	0.019940	0.052941	-0.685039
35392	-0.868903	-0.939335	8.742379	0.725598	0.020533	0.054676	-0.685636
35393	-1.093510	-0.827618	8.760230	0.724401	0.021331	0.056927	-0.686693
35394	-1.171112	-0.570581	9.118555	0.723109	0.022934	0.058966	-0.687830
35395	-1.686758	-0.085459	9.398244	0.722057	0.025014	0.060646	-0.688716
35396	-1.724388	-0.028605	9.593433	0.721407	0.027006	0.061623	-0.689236
35397	-1.668853	-0.202941	9.473284	0.721030	0.028885	0.062015	-0.689519
35398	-1.583530	-0.221582	9.465676	0.720750	0.030973	0.062394	-0.689686
35399	-1.813064	-0.381519	9.372162	0.720461	0.033208	0.063251	-0.689807
35400	-1.805884	-0.592164	9.496113	0.720161	0.035519	0.064227	-0.689914
35401	-1.607115	-0.542440	9.846029	0.719825	0.038008	0.065417	-0.690021
35402	-1.799778	-0.230979	10.310938	0.719397	0.039614	0.067550	-0.690171
35403	-1.742954	-0.390885	10.761219	0.718938	0.039742	0.070432	-0.690354
35404	-1.469703	-0.610814	11.154269	0.718340	0.039286	0.073405	-0.690692
35405	-1.512739	-0.690995	11.639633	0.717569	0.039344	0.075801	-0.691231
35406	-1.841048	-0.179632	12.167948	0.716629	0.039773	0.077903	-0.691948
35407	-2.114591	0.161330	12.376557	0.715858	0.039774	0.079447	-0.692570
35408	-1.920587	0.271746	12.210048	0.715484	0.039017	0.080059	-0.692930
35409	-1.771905	0.126785	11.777659	0.715539	0.037845	0.079669	-0.692982
35410	-1.686651	-0.050659	11.126170	0.715829	0.036729	0.078270	-0.692902
35411	-1.681163	-0.091491	10.360490	0.716097	0.036096	0.075860	-0.692926
35412	-1.740166	-0.039332	9.599790	0.716399	0.036229	0.072647	-0.692952
35413	-1.801261	0.203117	8.942136	0.716841	0.037009	0.068916	-0.692835
35414	-1.481735	0.216031	8.463719	0.717582	0.038005	0.065396	-0.692355
35415	-1.536458	0.068519	8.174138	0.718612	0.039033	0.062445	-0.691501
35416	-1.358279	-0.225054	8.096235	0.719836	0.039772	0.060346	-0.690372
35417	-1.285994	-0.672179	7.939998	0.720942	0.040280	0.059201	-0.689286
35418	-1.234996	-0.996747	7.952026	0.721672	0.041370	0.058317	-0.688533
35419	-1.331522	-0.702909	8.136059	0.722112	0.042823	0.057816	-0.688025
35420	-1.329851	-0.458861	8.346925	0.722451	0.044171	0.057819	-0.687583
35421	-1.354476	-0.336604	8.684390	0.722830	0.045061	0.058496	-0.687069
35422	-1.460481	-0.535386	8.940035	0.723315	0.045697	0.059661	-0.686417
35423	-1.413936	-0.737713	9.376008	0.723769	0.046224	0.061051	-0.685781
35424	-1.255718	-1.051577	9.903423	0.724093	0.046758	0.062921	-0.685233
35425	-1.220033	-1.379776	10.426257	0.724191	0.047591	0.064593	-0.684916
35426	-1.454996	-1.276764	11.151595	0.723942	0.048500	0.066011	-0.684981
35427	-1.536479	-0.878992	11.838683	0.723441	0.048554	0.067569	-0.685354
35428	-1.815058	-0.484461	12.707796	0.722792	0.046988	0.069806	-0.685923
35429	-2.070417	-0.621726	13.763228	0.722378	0.044037	0.072442	-0.686282
35430	-1.548086	-0.819739	15.631881	0.722326	0.040058	0.075885	-0.686208
35431	-1.265788	-1.322721	17.224991	0.722861	0.034353	0.080987	-0.685370
35432	-1.663086	-2.440963	18.228873	0.723516	0.026664	0.086636	-0.684331
35433	-2.558626	-3.336190	18.723970	0.723614	0.016524	0.090222	-0.684083
35434	-2.902219	-4.500824	18.326866	0.722749	0.005648	0.088956	-0.685339
35435	-2.493535	-3.795171	17.633001	0.720836	-0.003841	0.082674	-0.688147
35436	-2.800401	-2.181563	16.819166	0.718317	-0.013023	0.073552	-0.691694
35437	-3.229152	-1.023971	15.915305	0.715904	-0.023607	0.063724	-0.694884
35438	-2.871508	-0.535652	15.246453	0.713650	-0.036017	0.053925	-0.697495
35439	-2.927488	-0.759299	14.412930	0.711466	-0.049350	0.043318	-0.699646
35440	-2.944914	-0.597538	13.656320	0.709294	-0.063283	0.031488	-0.701360
35441	-2.545712	-0.351428	12.929306	0.707093	-0.077919	0.018685	-0.702566
35442	-2.597718	-0.279188	11.989928	0.704684	-0.093120	0.004938	-0.703366
35443	-2.359070	-0.186255	10.990281	0.702119	-0.108071	-0.010279	-0.703736
35444	-2.574843	-0.036769	10.255371	0.699685	-0.122095	-0.027184	-0.703416
35445	-1.726194	0.506406	9.393964	0.697788	-0.135950	-0.044878	-0.701852
35446	-0.783643	-0.035509	8.396041	0.697068	-0.150316	-0.062991	-0.698236
35447	-0.090781	0.394671	7.986008	0.697181	-0.165824	-0.079811	-0.692872
35448	0.406969	-0.191773	7.448423	0.696477	-0.183751	-0.093228	-0.687360
35449	0.613590	-1.778512	7.020778	0.694858	-0.202270	-0.104501	-0.682157
35450	0.901656	-3.177362	6.202406	0.692614	-0.218162	-0.117180	-0.677467
35451	0.929449	-3.596212	5.017200	0.690642	-0.228682	-0.134811	-0.672714
35452	1.663378	-2.167766	3.917755	0.689209	-0.233986	-0.157303	-0.667455
35453	2.039737	0.386382	3.370440	0.687713	-0.238727	-0.179378	-0.661728
35454	3.114161	2.015349	3.289066	0.685832	-0.246486	-0.196089	-0.656070
35455	3.641888	1.730449	2.794622	0.683232	-0.259200	-0.206163	-0.650773
35456	4.889710	-0.513314	2.233752	0.680592	-0.273659	-0.212540	-0.645548
35457	5.436444	-1.749227	2.373992	0.678238	-0.286154	-0.217831	-0.640827
35458	5.700654	-2.321433	2.915596	0.676206	-0.296303	-0.222303	-0.636813
35459	5.564455	-2.493458	2.902427	0.673938	-0.305085	-0.226723	-0.633503
35460	5.890867	-2.132552	2.751637	0.671237	-0.312678	-0.232430	-0.630595
35461	6.225507	-1.398063	2.718599	0.668161	-0.319507	-0.238123	-0.628311
35462	6.299699	-0.988263	2.414041	0.665129	-0.325679	-0.242937	-0.626513
35463	6.442226	-0.504736	2.260188	0.662616	-0.330742	-0.247431	-0.624762
35464	6.535772	-0.211051	1.826798	0.660795	-0.335090	-0.252076	-0.622513
35465	7.005547	-0.345132	1.241858	0.659440	-0.339171	-0.257132	-0.619665
35466	7.878248	-0.533351	1.053011	0.658407	-0.342580	-0.261290	-0.617144
35467	8.099186	-0.461581	1.062284	0.657428	-0.345304	-0.262846	-0.616008
35468	8.180470	-1.122637	1.356095	0.656357	-0.347151	-0.261650	-0.616621
35469	7.940899	-1.516148	1.402389	0.655410	-0.347138	-0.259756	-0.618433
35470	7.355261	-1.108173	1.470489	0.655236	-0.344461	-0.259278	-0.620313
35471	7.657960	0.277043	2.008239	0.655297	-0.340842	-0.259306	-0.622232
35472	7.295039	0.952419	2.284667	0.655059	-0.337882	-0.257241	-0.624949
35473	7.292927	0.716286	2.459432	0.654719	-0.335263	-0.253269	-0.628329
35474	6.849352	0.544529	2.536959	0.655196	-0.331426	-0.248732	-0.631670
35475	6.457290	0.680510	2.632092	0.656625	-0.326185	-0.245007	-0.634365
35476	6.423935	0.598833	2.733932	0.658874	-0.319992	-0.241489	-0.636533
35477	6.584187	0.689882	3.076096	0.661706	-0.312974	-0.236722	-0.638870
35478	6.066332	0.749601	3.486525	0.664379	-0.306117	-0.229957	-0.641883
35479	5.598957	0.414170	3.715775	0.666748	-0.299863	-0.222039	-0.645157
35480	5.112534	-0.190469	3.498905	0.669224	-0.293476	-0.214821	-0.647968
35481	5.188133	-0.377984	3.327156	0.672480	-0.285378	-0.209134	-0.650072
35482	5.089436	0.012725	3.641538	0.676386	-0.275729	-0.203304	-0.652030
35483	4.829700	0.497642	4.304232	0.680303	-0.266114	-0.194932	-0.654501
35484	4.165382	-0.111768	4.721564	0.683641	-0.257498	-0.183773	-0.657690
35485	3.906965	-1.219279	5.007944	0.687014	-0.248261	-0.172236	-0.660842
35486	3.423600	-1.492787	5.220522	0.690704	-0.237196	-0.162395	-0.663546
35487	3.027824	-0.820061	5.448014	0.694383	-0.224658	-0.153771	-0.666119
35488	2.349823	-0.185341	5.731865	0.697835	-0.211818	-0.144656	-0.668756
35489	2.100564	0.256355	6.458303	0.701067	-0.199530	-0.133124	-0.671543
35490	1.376949	-0.675710	6.686515	0.704285	-0.187148	-0.120079	-0.674196
35491	1.259008	-0.977608	7.157904	0.707815	-0.173290	-0.108276	-0.676198
35492	1.106210	-0.300669	7.929660	0.711199	-0.158777	-0.097135	-0.677902
35493	0.037326	0.140495	8.497639	0.714136	-0.144887	-0.084821	-0.679575
35494	0.050798	0.159749	9.015264	0.716707	-0.132154	-0.070634	-0.681086
35495	-0.626925	-0.870330	9.070163	0.719327	-0.119470	-0.056302	-0.682001
35496	-1.012832	-0.696046	9.277116	0.721841	-0.105662	-0.042784	-0.682606
35497	-1.737312	-0.142977	8.671742	0.723982	-0.091481	-0.030445	-0.683048
35498	-2.141055	0.175738	8.884189	0.726295	-0.077567	-0.019042	-0.682727
35499	-1.608416	0.290299	9.542139	0.728949	-0.064181	-0.005773	-0.681528
35500	-2.052983	-0.412305	9.973398	0.731769	-0.051552	0.008944	-0.679541
35501	-3.309203	-1.381974	9.672609	0.734310	-0.038501	0.021776	-0.677372
35502	-3.502751	-0.958209	9.344056	0.736153	-0.023950	0.031293	-0.675667
35503	-3.197923	-0.716707	9.800628	0.738074	-0.008375	0.039854	-0.673489
35504	-3.071965	0.549628	9.541388	0.740126	0.005255	0.051769	-0.670452
35505	-3.283717	-1.127099	9.273173	0.742195	0.016233	0.065376	-0.666790
35506	-4.074167	-2.035773	8.921811	0.743627	0.026747	0.079190	-0.663349
35507	-5.207861	-2.815611	9.377480	0.743828	0.038870	0.091509	-0.660935
35508	-3.740690	-1.271798	10.977870	0.743520	0.051495	0.104369	-0.658508
35509	-4.487673	-1.161155	11.477122	0.742505	0.063701	0.118939	-0.656112
35510	-5.409452	-1.560973	11.160431	0.741139	0.075649	0.132123	-0.653861
35511	-7.577472	-2.173085	10.537227	0.739524	0.088299	0.141653	-0.652105
35512	-6.151492	-1.527568	11.463514	0.738016	0.101826	0.148498	-0.650317
35513	-5.335954	0.089620	11.277693	0.736153	0.113980	0.159007	-0.647923
35514	-5.517864	-0.149162	10.992377	0.734144	0.123090	0.171689	-0.645294
35515	-6.300857	-0.701811	10.657379	0.732232	0.130448	0.184612	-0.642447
35516	-7.678126	-1.633117	9.967155	0.729712	0.139438	0.193966	-0.640668
35517	-8.332461	-1.656557	9.679619	0.726115	0.152527	0.198055	-0.640521
35518	-6.834174	0.859491	10.059023	0.722018	0.167772	0.200819	-0.640480
35519	-6.660029	3.591001	10.673803	0.719597	0.177817	0.209221	-0.637800
35520	-7.019100	2.395080	10.446674	0.720088	0.179642	0.223804	-0.631754
35521	-7.327786	-0.892233	9.908327	0.722076	0.178002	0.239235	-0.624249
35522	-8.796922	-3.597212	9.236144	0.723119	0.179937	0.248202	-0.618965
35523	-8.303556	-2.792717	9.053725	0.721054	0.188392	0.250140	-0.618077
35524	-8.164593	0.008827	8.664024	0.716953	0.200212	0.249591	-0.619353
35525	-8.771874	3.283717	8.696698	0.713951	0.208420	0.251206	-0.619460
35526	-8.224792	2.497913	8.623101	0.714497	0.210104	0.255178	-0.616632
35527	-7.962619	-0.409742	7.972850	0.716633	0.211620	0.258972	-0.612035
35528	-6.598362	-1.776281	7.913772	0.717398	0.217683	0.259751	-0.608673
35529	-6.746930	-0.718978	8.144546	0.715655	0.227603	0.259741	-0.607099
35530	-7.593488	1.241990	7.908024	0.713676	0.234256	0.261579	-0.606108
35531	-7.223899	1.199811	8.039556	0.712824	0.237298	0.265239	-0.604334
35532	-7.314987	0.949235	8.294890	0.712885	0.238823	0.270203	-0.601456
35533	-7.346968	-0.175195	8.910549	0.714021	0.241292	0.274181	-0.597309
35534	-6.570512	-0.401672	10.090573	0.715006	0.245511	0.276772	-0.593202
35535	-6.193842	0.226758	10.957640	0.714937	0.249629	0.279700	-0.590185
35536	-5.578647	0.117917	11.694273	0.714483	0.251954	0.284258	-0.587563
35537	-5.691918	0.348447	11.905830	0.715049	0.252500	0.290523	-0.583562
35538	-5.246907	-0.502497	12.491268	0.716918	0.251541	0.297455	-0.578166
35539	-5.232518	-1.196674	12.908909	0.719128	0.250705	0.303859	-0.572426
35540	-5.350497	-1.134920	13.054521	0.721156	0.250517	0.308911	-0.567229
35541	-5.756394	-0.410540	12.727755	0.723025	0.250466	0.312533	-0.562872
35542	-6.137188	0.448926	11.552003	0.725282	0.249049	0.314887	-0.559274
35543	-6.237581	1.733961	10.359730	0.728699	0.245720	0.317007	-0.555091
35544	-6.552651	2.945633	8.903371	0.734465	0.239067	0.320715	-0.548225
35545	-6.491278	2.538438	7.084459	0.743100	0.228972	0.326764	-0.537214
35546	-6.317161	0.754039	6.215995	0.753151	0.218791	0.334407	-0.522557
35547	-6.149516	-2.150464	5.378480	0.761678	0.213345	0.342697	-0.506843
35548	-7.619071	-3.246523	4.283116	0.766485	0.214873	0.348432	-0.494899
35549	-7.629944	-2.909658	3.741956	0.767021	0.222253	0.351235	-0.488790
35550	-7.825991	-1.274365	3.393074	0.763979	0.233319	0.353987	-0.486406
35551	-7.908803	1.155712	3.745808	0.760214	0.243468	0.359330	-0.483404
35552	-8.126715	2.552351	3.976542	0.758180	0.248759	0.370621	-0.475312
35553	-10.073810	0.917884	3.160196	0.757390	0.249248	0.384514	-0.465171
35554	-10.033004	-0.801447	3.366305	0.756703	0.247843	0.394993	-0.458208
35555	-8.917832	-1.274230	4.367800	0.754612	0.247889	0.401360	-0.456094
35556	-8.100155	-1.185374	4.412886	0.751234	0.250921	0.404799	-0.456974
35557	-8.153471	-0.485422	4.202759	0.747266	0.257020	0.407138	-0.458010
35558	-8.314450	0.275063	4.073443	0.743633	0.263647	0.409179	-0.458336
35559	-8.561125	0.979534	4.067079	0.740786	0.268896	0.412210	-0.457180
35560	-8.391045	0.924690	4.244487	0.739094	0.271692	0.416374	-0.454484
35561	-8.134405	-0.084442	4.534060	0.737859	0.273478	0.421884	-0.450319
35562	-8.109675	-1.012902	4.744288	0.735993	0.275795	0.428708	-0.445490
35563	-8.952028	-1.346617	4.956207	0.733266	0.278679	0.435375	-0.441709
35564	-9.178092	-0.986814	5.205648	0.729737	0.281937	0.440729	-0.440175
35565	-9.054169	-0.430487	5.268225	0.725756	0.285528	0.444851	-0.440295
35566	-9.232498	0.435658	5.408459	0.722146	0.288892	0.448289	-0.440549
35567	-9.285317	1.065402	5.694861	0.719833	0.290507	0.451973	-0.439507
35568	-9.330441	0.612952	5.742972	0.718836	0.290604	0.456183	-0.436716
35569	-9.278151	0.057881	5.673024	0.718459	0.290470	0.460197	-0.433202
35570	-9.196221	-0.207544	5.730630	0.718024	0.291110	0.463516	-0.429941
35571	-9.269816	0.036236	5.695445	0.717612	0.292060	0.466129	-0.427152
35572	-9.238893	0.027909	5.610683	0.717619	0.292636	0.468071	-0.424613
35573	-9.213351	-0.166403	5.486416	0.718364	0.292612	0.469294	-0.422013
35574	-9.212170	-0.338276	5.159548	0.719551	0.292229	0.469644	-0.419861
35575	-9.003408	-0.458062	4.776537	0.720794	0.291963	0.469172	-0.418440
35576	-8.911440	-0.157617	4.517791	0.721924	0.291901	0.468499	-0.417287
35577	-8.910813	0.081755	4.179481	0.722990	0.291588	0.468170	-0.416027
35578	-8.888429	0.321280	4.050311	0.724398	0.290579	0.468369	-0.414055
35579	-9.014006	0.061452	4.065679	0.726194	0.288630	0.469319	-0.411186
35580	-9.441238	-0.686515	3.615470	0.728146	0.286366	0.470077	-0.408442
35581	-9.305406	-0.789287	3.411465	0.729792	0.284312	0.470270	-0.406715
35582	-8.954657	-0.282750	3.092148	0.731017	0.282410	0.470487	-0.405587
35583	-8.864892	-0.190412	3.009402	0.731917	0.280619	0.471269	-0.404296
35584	-8.908422	-0.482877	2.891024	0.732553	0.278879	0.472992	-0.402332
35585	-9.047080	-0.744381	2.923162	0.732788	0.277176	0.475023	-0.400685
35586	-9.036218	-0.626113	3.010861	0.732402	0.275345	0.477562	-0.399635
35587	-9.110567	-0.321898	3.084150	0.731498	0.273595	0.480400	-0.399089
35588	-9.065874	-0.123143	3.153064	0.730337	0.272232	0.483274	-0.398677
35589	-9.109112	-0.127888	3.167295	0.728979	0.271292	0.486110	-0.398356
35590	-9.146826	-0.050328	3.283575	0.727524	0.270504	0.488864	-0.398181
35591	-9.144840	0.026103	3.314435	0.726117	0.269589	0.491564	-0.398046
35592	-9.068469	0.032828	3.400977	0.724840	0.268515	0.494234	-0.397793
35593	-8.951813	-0.030592	3.370094	0.723621	0.267407	0.496840	-0.397513
35594	-8.864531	-0.290163	3.382327	0.722340	0.266384	0.499410	-0.397309
35595	-8.918503	-0.321279	3.500160	0.720869	0.265594	0.501832	-0.397457
35596	-9.009461	-0.271931	3.532684	0.719180	0.264784	0.504133	-0.398145
35597	-8.992462	0.137686	3.719896	0.717262	0.263943	0.506666	-0.398948
35598	-9.050853	0.258573	3.827231	0.715262	0.262925	0.509572	-0.399507
35599	-9.236934	0.388619	4.015673	0.713284	0.261994	0.512543	-0.399856
35600	-9.301662	0.322077	4.176106	0.711392	0.261264	0.515060	-0.400469
35601	-9.284938	0.426485	4.296670	0.709707	0.261118	0.516774	-0.401346
35602	-9.228531	0.608864	4.330551	0.708381	0.261321	0.517718	-0.402339
35603	-9.128888	0.666351	4.342221	0.707538	0.261599	0.517981	-0.403300
35604	-8.961023	0.804468	4.400025	0.707134	0.261683	0.517806	-0.404179
35605	-9.040547	0.834728	4.350425	0.707106	0.261634	0.517513	-0.404634
35606	-9.090719	0.877682	4.401663	0.707508	0.261660	0.516908	-0.404689
35607	-9.126093	0.356955	4.346628	0.708189	0.262057	0.515781	-0.404678
35608	-9.064589	0.069713	4.261842	0.708782	0.263264	0.513916	-0.405228
35609	-9.232423	0.124883	4.127978	0.709145	0.265199	0.511451	-0.406448
35610	-9.189207	0.390363	4.039227	0.709608	0.267323	0.508503	-0.407946
35611	-9.091233	0.462249	3.910755	0.710389	0.269164	0.505506	-0.409099
35612	-8.951928	0.506507	3.851426	0.711428	0.270525	0.502900	-0.409608
35613	-9.038867	0.203793	3.835396	0.712633	0.271660	0.500543	-0.409649
35614	-9.132749	-0.212013	3.801620	0.713760	0.273190	0.497928	-0.409856
35615	-9.205718	-0.191714	3.771277	0.714600	0.275084	0.494922	-0.410766
35616	-9.153100	0.078961	3.696281	0.715349	0.276832	0.491840	-0.411987
35617	-8.981638	0.174277	3.539869	0.716212	0.278254	0.488794	-0.413154
35618	-8.994564	0.176137	3.501470	0.717247	0.279294	0.486030	-0.413917
35619	-8.940859	0.226796	3.644304	0.718465	0.279839	0.483632	-0.414244
35620	-9.105299	0.081401	3.613824	0.719685	0.280072	0.481773	-0.414136
35621	-9.198431	-0.105576	3.618439	0.720753	0.280558	0.480003	-0.414003
35622	-9.246605	-0.108296	3.545364	0.721603	0.281528	0.478033	-0.414145
35623	-9.097640	0.072518	3.597399	0.722264	0.282714	0.476026	-0.414496
35624	-9.007918	0.228053	3.641524	0.722944	0.283647	0.474284	-0.414669
35625	-8.949479	0.033995	3.722889	0.723734	0.284329	0.472691	-0.414643
35626	-8.973340	-0.405002	3.686286	0.724392	0.285299	0.470736	-0.415052
35627	-8.901430	-0.134440	3.725010	0.724610	0.286707	0.468478	-0.416254
35628	-9.030627	0.189864	3.697927	0.724599	0.288228	0.466368	-0.417590
35629	-9.105605	0.456958	3.707883	0.724633	0.289748	0.464430	-0.418638
35630	-9.121109	0.417815	3.854540	0.724748	0.291386	0.462629	-0.419296
35631	-9.120126	0.458366	3.952226	0.724921	0.293056	0.460824	-0.419819
35632	-9.027934	0.582776	4.008526	0.725222	0.294686	0.458800	-0.420376
35633	-9.011008	0.614577	3.943107	0.725826	0.296167	0.456486	-0.420812
35634	-8.971941	0.741030	3.860901	0.726782	0.297277	0.454189	-0.420864
35635	-9.000661	0.528662	3.701378	0.728047	0.297681	0.452222	-0.420510
35636	-8.908155	0.175715	3.572921	0.729437	0.297936	0.450420	-0.419855
35637	-8.863814	0.183105	3.414583	0.730612	0.298294	0.448956	-0.419125
35638	-8.879533	0.387790	3.401435	0.731695	0.298373	0.448094	-0.418100
35639	-8.889444	0.476686	3.434768	0.732905	0.297525	0.448166	-0.416504
35640	-9.013126	0.241009	3.462957	0.734245	0.295933	0.448863	-0.414524
35641	-8.994200	0.069149	3.579581	0.735537	0.294175	0.449635	-0.412643
35642	-8.964002	0.040451	3.620646	0.736541	0.292814	0.450233	-0.411166
35643	-9.011832	0.328547	3.601800	0.737323	0.291913	0.450592	-0.410011
35644	-9.039379	0.489520	3.576628	0.738081	0.291130	0.450891	-0.408873
35645	-9.063256	0.508467	3.523423	0.738886	0.290413	0.451224	-0.407560
35646	-9.075251	0.516981	3.530248	0.739619	0.289579	0.451750	-0.406239
35647	-9.136177	0.667471	3.513415	0.740343	0.288633	0.452524	-0.404730
35648	-9.196576	0.767582	3.528686	0.741124	0.287444	0.453481	-0.403071
35649	-9.222993	0.798045	3.650719	0.741994	0.286258	0.454401	-0.401274
35650	-9.197473	0.919916	3.777618	0.742971	0.284975	0.455283	-0.399377
35651	-9.179730	0.829846	3.931596	0.744096	0.283723	0.455984	-0.397368
35652	-9.167374	0.661436	3.937813	0.745280	0.282689	0.456268	-0.395555
35653	-9.071862	0.455396	3.932552	0.746347	0.282224	0.455985	-0.394200
35654	-9.116085	0.607783	3.830491	0.747203	0.282156	0.455344	-0.393367
35655	-9.211644	0.850167	3.737123	0.748114	0.281908	0.454544	-0.392738
35656	-9.166884	1.131183	3.741968	0.749346	0.280916	0.454015	-0.391711
35657	-9.206796	0.961947	3.600890	0.750941	0.279121	0.453960	-0.389998
35658	-9.035120	0.686116	3.649819	0.752886	0.276867	0.454025	-0.387775
35659	-9.207472	0.134936	3.641819	0.754754	0.274844	0.453966	-0.385644
35660	-9.283625	-0.219241	3.557244	0.756353	0.273155	0.453446	-0.384323
35661	-9.415532	-0.108101	3.486963	0.757700	0.271448	0.452608	-0.383866
35662	-9.482233	0.192878	3.498417	0.758910	0.269167	0.452090	-0.383691
35663	-9.608538	0.235123	3.501014	0.760242	0.266157	0.451949	-0.383321
35664	-9.665923	-0.355131	3.510416	0.761555	0.263069	0.451787	-0.383037
35665	-9.852468	-0.936135	3.619393	0.762358	0.260985	0.451107	-0.383665
35666	-9.999708	-0.990396	3.640606	0.762537	0.259988	0.449759	-0.385565
35667	-10.008449	-0.677608	3.483311	0.762348	0.259516	0.447745	-0.388588
35668	-10.150460	-0.172221	3.387737	0.762184	0.258870	0.445335	-0.392094
35669	-10.051472	0.158272	3.431679	0.762386	0.257485	0.442909	-0.395348
35670	-9.710917	0.202550	3.385294	0.762993	0.255331	0.440794	-0.397929
35671	-9.521222	-0.222963	3.098570	0.763578	0.253364	0.438848	-0.400209
35672	-9.284253	-0.360957	3.208225	0.763975	0.252128	0.436775	-0.402494
35673	-8.803770	-0.374431	3.531687	0.763810	0.251309	0.435438	-0.404762
35674	-8.387678	-0.607641	3.989524	0.762841	0.250879	0.435000	-0.407318
35675	-8.219335	-0.949006	4.092965	0.761067	0.251280	0.434370	-0.411045
35676	-8.083502	-0.781663	4.177152	0.758745	0.253218	0.432503	-0.416086
35677	-7.985385	-0.173674	4.330610	0.756222	0.256285	0.429685	-0.421684
35678	-8.126012	0.379200	4.374742	0.753885	0.259423	0.426687	-0.426960
35679	-8.196884	0.458787	4.455177	0.752029	0.261820	0.424108	-0.431318
35680	-8.065624	0.298717	4.464080	0.750443	0.263707	0.422153	-0.434835
35681	-7.984651	-0.027771	4.369417	0.748778	0.265670	0.420636	-0.437968
35682	-7.790916	-0.096614	4.509545	0.746794	0.267968	0.419663	-0.440879
35683	-7.725791	-0.375149	4.671812	0.744396	0.270376	0.419470	-0.443639
35684	-7.636487	-0.501075	4.762774	0.741480	0.272838	0.419627	-0.446856
35685	-7.262723	-0.345798	4.811951	0.738052	0.275331	0.419869	-0.450758
35686	-7.035582	-0.153485	4.811331	0.734125	0.277996	0.420442	-0.454981
35687	-7.216172	0.135006	4.883266	0.729711	0.280833	0.421603	-0.459244
35688	-7.623973	0.224090	4.859721	0.725003	0.283642	0.423111	-0.463568
35689	-7.833450	0.252424	4.838688	0.719968	0.286677	0.424700	-0.468073
35690	-8.118698	0.432273	4.845699	0.714555	0.290324	0.426029	-0.472887
35691	-8.303658	0.939598	4.885286	0.709062	0.294110	0.427157	-0.477772
35692	-8.304406	1.168838	4.914594	0.703850	0.297691	0.428201	-0.482306
35693	-8.301537	1.214984	4.864239	0.699008	0.301155	0.429242	-0.486257
35694	-8.515770	1.190082	4.731765	0.694345	0.304763	0.430079	-0.489935
35695	-8.559852	1.177203	4.722985	0.689673	0.308759	0.430683	-0.493489
35696	-8.586521	1.156024	4.689280	0.684903	0.313215	0.431199	-0.496861
35697	-8.621729	1.546762	4.746459	0.680204	0.317809	0.431762	-0.499903
35698	-8.462526	1.844523	4.851650	0.676127	0.321737	0.432651	-0.502145
35699	-8.223873	1.705278	4.934434	0.672901	0.324924	0.433836	-0.503404
35700	-8.155397	1.573795	5.083552	0.670294	0.327863	0.435036	-0.503941
35701	-8.475038	1.408390	5.127562	0.668077	0.330572	0.436185	-0.504121
35702	-8.561420	1.305546	5.134333	0.666184	0.333102	0.436793	-0.504433
35703	-8.497151	1.255819	5.111119	0.664473	0.335697	0.436784	-0.504978
35704	-8.522342	1.236757	5.089800	0.662966	0.338583	0.436197	-0.505540
35705	-8.590501	1.165275	5.082555	0.661757	0.341641	0.435263	-0.505871
35706	-8.684477	1.040388	4.971727	0.660795	0.344676	0.433919	-0.506225
35707	-8.819944	1.299429	4.840189	0.660172	0.347297	0.432475	-0.506482
35708	-8.960645	1.437412	4.733358	0.660198	0.348889	0.431604	-0.506096
35709	-8.854456	1.327702	4.685967	0.660937	0.349468	0.431582	-0.504749
35710	-8.767062	0.993344	4.844352	0.662073	0.349542	0.432285	-0.502602
35711	-9.051773	0.506328	4.973238	0.663244	0.349572	0.433227	-0.500220
35712	-9.392427	0.373450	5.143668	0.664239	0.349632	0.433822	-0.498339
35713	-9.689439	0.509785	5.084802	0.665236	0.349313	0.434137	-0.496957
35714	-9.744501	0.723963	4.986620	0.666492	0.348425	0.434118	-0.495912
35715	-9.693605	0.801858	4.805414	0.668023	0.347409	0.433896	-0.494760
35716	-9.674068	0.931387	4.672476	0.669654	0.346535	0.433677	-0.493358
35717	-9.716908	0.914501	4.666547	0.671413	0.345712	0.433454	-0.491737
35718	-9.628463	0.884487	4.631252	0.673355	0.344915	0.432959	-0.490074
35719	-9.444835	0.751410	4.629796	0.675434	0.344276	0.431938	-0.488562
35720	-9.261227	0.747912	4.569293	0.677576	0.343826	0.430215	-0.487431
35721	-9.010513	0.739689	4.398213	0.679711	0.343572	0.427946	-0.486636
35722	-8.810435	0.778687	4.192672	0.681655	0.343779	0.425412	-0.485992
35723	-8.663818	0.869837	4.095392	0.683401	0.344247	0.422871	-0.485425
35724	-8.478398	1.035664	4.100211	0.685169	0.344579	0.420715	-0.484570
35725	-8.248578	1.085450	4.214452	0.687122	0.344418	0.419215	-0.483216
35726	-8.084977	1.072046	4.262011	0.689238	0.343773	0.418311	-0.481443
35727	-8.243440	0.989840	4.324373	0.691322	0.342934	0.417620	-0.479649
35728	-8.460836	0.952163	4.334863	0.693346	0.342164	0.416797	-0.477991
35729	-8.869445	1.038850	4.278476	0.695223	0.341712	0.415629	-0.476604
35730	-9.023121	1.015263	4.388490	0.696894	0.341719	0.414194	-0.475406
35731	-9.037233	1.044468	4.321187	0.698303	0.342433	0.412229	-0.474532
35732	-8.518355	1.450160	4.308852	0.699883	0.343431	0.409776	-0.473606
35733	-8.114471	1.661486	4.242167	0.702022	0.344167	0.407361	-0.471986
35734	-8.272517	1.642168	4.132703	0.704631	0.344414	0.405426	-0.469578
35735	-8.619579	1.418355	4.171626	0.707712	0.343930	0.404175	-0.466367
35736	-8.715361	1.046693	4.250990	0.711047	0.342775	0.403665	-0.462572
35737	-8.293946	0.526302	4.406653	0.714159	0.341757	0.403351	-0.458789
35738	-7.779488	0.234227	4.380186	0.716627	0.341762	0.402660	-0.455531
35739	-7.980853	0.551999	4.299443	0.718495	0.342544	0.401531	-0.452990
35740	-8.582111	1.001160	4.252929	0.720364	0.342713	0.400598	-0.450715
35741	-8.882571	1.009386	4.237326	0.722624	0.341580	0.400659	-0.447895
35742	-8.858942	0.538460	4.265703	0.724935	0.339983	0.401664	-0.444462
35743	-8.391766	0.207999	4.365295	0.726740	0.338980	0.402884	-0.441165
35744	-7.913635	0.147715	4.524189	0.727888	0.339188	0.403670	-0.438384
35745	-7.999489	0.521324	4.494192	0.728878	0.339824	0.404040	-0.435899
35746	-8.308107	0.631147	4.476447	0.730157	0.339595	0.404327	-0.433665
35747	-8.424129	0.189384	4.222426	0.731585	0.338600	0.405099	-0.431311
35748	-8.325297	-0.165391	4.055000	0.732544	0.338056	0.406124	-0.429139
35749	-8.071795	-0.096239	4.138829	0.732581	0.338656	0.407198	-0.427583
35750	-8.014656	0.163802	4.226909	0.732081	0.339905	0.408385	-0.426315
35751	-8.166326	0.498389	4.223507	0.731851	0.340543	0.409767	-0.424871
35752	-8.177753	0.805989	4.228677	0.732360	0.339762	0.411809	-0.422640
35753	-8.336461	0.482789	4.209397	0.733485	0.337738	0.414506	-0.419663
35754	-8.301216	-0.133867	4.063360	0.734767	0.335427	0.417303	-0.416491
35755	-8.329345	-0.552894	4.129613	0.735711	0.333767	0.419705	-0.413734
35756	-8.393572	-0.349793	4.150290	0.736428	0.332275	0.421862	-0.411460
35757	-8.728093	-0.244628	4.009740	0.736974	0.330475	0.424306	-0.409414
35758	-9.439612	0.375692	4.011583	0.737835	0.327331	0.427275	-0.407296
35759	-9.816751	0.498074	3.951300	0.739621	0.321759	0.431061	-0.404498
35760	-9.931587	-0.221520	3.768950	0.741878	0.315017	0.435059	-0.401379
35761	-9.798905	-0.754186	3.773618	0.743535	0.309005	0.438830	-0.398874
35762	-9.661055	-0.909127	3.774706	0.743946	0.304705	0.442048	-0.397860
35763	-9.484748	-0.667770	3.811321	0.743091	0.302221	0.444618	-0.398487
35764	-9.471326	0.086743	3.730287	0.741419	0.300525	0.446710	-0.400540
35765	-9.485735	0.662247	3.517162	0.739806	0.298398	0.448592	-0.403003
35766	-9.451797	0.897919	3.226397	0.738346	0.295664	0.450624	-0.405422
35767	-9.444973	0.846086	3.093559	0.736719	0.292938	0.452888	-0.407829
35768	-9.546937	0.960880	3.066138	0.734701	0.290561	0.455369	-0.410401
35769	-9.647417	1.061841	3.118065	0.732344	0.288412	0.458041	-0.413147
35770	-9.773832	1.252069	3.196739	0.729736	0.286384	0.460822	-0.416069
35771	-9.668502	1.549728	3.266239	0.727028	0.284327	0.463816	-0.418882
35772	-9.508723	1.880630	3.474328	0.724379	0.282252	0.467206	-0.421102
35773	-9.433606	1.841543	3.653908	0.721943	0.280360	0.470804	-0.422540
35774	-9.267346	1.700959	3.915576	0.719804	0.279073	0.473913	-0.423566
35775	-8.920186	1.640951	4.201849	0.717942	0.278607	0.476228	-0.424434
35776	-8.766918	1.668503	4.500304	0.716523	0.278733	0.477773	-0.425012
35777	-9.033850	1.564449	4.524632	0.715747	0.278887	0.478458	-0.425449
35778	-8.987619	1.198743	4.374900	0.715563	0.279275	0.478132	-0.425870
35779	-8.755260	1.012875	4.201315	0.715500	0.280381	0.477085	-0.426423
35780	-8.532473	0.838386	4.077575	0.715302	0.282266	0.475769	-0.426981
35781	-8.319464	0.838385	4.083020	0.714960	0.284793	0.474256	-0.427558
35782	-8.087100	0.989122	4.111065	0.714707	0.287459	0.472600	-0.428031
35783	-7.940205	1.159124	4.120082	0.714780	0.289675	0.471331	-0.427814
35784	-7.886534	1.267062	4.107091	0.715173	0.291037	0.470888	-0.426720
35785	-7.750021	1.143213	4.202890	0.715929	0.291855	0.471095	-0.424660
35786	-7.769356	1.150689	4.239634	0.717092	0.292312	0.471726	-0.421671
35787	-7.804095	0.776720	4.319257	0.718695	0.292683	0.472430	-0.417881
35788	-8.050990	0.735889	4.305000	0.720611	0.293124	0.472911	-0.413707
35789	-8.149297	0.644102	4.253667	0.722607	0.293850	0.473076	-0.409500
35790	-8.324322	0.721878	4.144088	0.724569	0.295281	0.472896	-0.405189
35791	-8.798695	0.929157	4.104472	0.726558	0.297613	0.472367	-0.400511
35792	-9.214891	1.213002	4.029672	0.728850	0.300332	0.471744	-0.395013
35793	-9.438656	1.423201	4.024100	0.731517	0.303120	0.471509	-0.388176
35794	-9.731781	1.522791	3.923289	0.734713	0.305538	0.471715	-0.379905
35795	-9.840968	1.454723	3.886811	0.738563	0.307189	0.472124	-0.370485
35796	-10.036874	1.256057	3.792677	0.742832	0.308184	0.472671	-0.360284
35797	-10.483124	1.147506	3.659723	0.747036	0.309059	0.473462	-0.349646
35798	-11.186419	1.091472	3.397965	0.750928	0.309868	0.474498	-0.339029
35799	-11.539102	1.096262	3.276509	0.754419	0.310593	0.475751	-0.328702
35800	-11.205192	1.335589	3.432246	0.757594	0.310900	0.477388	-0.318580
35801	-10.470516	1.298692	3.422295	0.760659	0.310867	0.479272	-0.308316
35802	-9.583955	1.243605	3.288591	0.763532	0.310905	0.480844	-0.298572
35803	-8.862807	1.209892	3.182617	0.765976	0.311314	0.482179	-0.289600
35804	-8.583348	1.548550	3.159719	0.767945	0.311813	0.483818	-0.280985
35805	-8.812670	1.882580	3.187429	0.769851	0.311387	0.486138	-0.272097
35806	-9.334562	2.117967	3.118825	0.772256	0.309018	0.489050	-0.262601
35807	-9.571512	1.908362	3.152031	0.775391	0.304339	0.492082	-0.252987
35808	-9.347243	1.119417	2.800931	0.778382	0.299197	0.494908	-0.244274
35809	-9.019468	0.863448	2.653460	0.780238	0.296039	0.497025	-0.237814
35810	-8.695154	1.164507	2.619734	0.780631	0.295581	0.498675	-0.233601
35811	-8.709394	1.923617	2.682153	0.780241	0.296623	0.499917	-0.230917
35812	-8.668345	2.430698	2.505883	0.779910	0.297649	0.500806	-0.228779
35813	-8.689143	2.623839	2.184481	0.780005	0.298054	0.501289	-0.226858
35814	-8.632251	2.549118	1.986240	0.780354	0.297877	0.501747	-0.224871
35815	-8.727415	2.435601	1.818932	0.780546	0.297483	0.502578	-0.222862
35816	-8.936082	2.447530	1.825323	0.780349	0.297067	0.503904	-0.221107
35817	-8.930313	2.569361	2.019371	0.780108	0.296340	0.505397	-0.219519
35818	-9.011489	2.471558	2.066218	0.780074	0.295309	0.506652	-0.218132
35819	-8.760639	2.340422	2.048600	0.780134	0.294619	0.507286	-0.217375
35820	-8.501536	2.447204	2.004701	0.779928	0.294714	0.507659	-0.217112
35821	-8.395821	2.761825	2.081069	0.779538	0.295157	0.508117	-0.216841
35822	-8.414774	2.993026	2.074430	0.779418	0.295280	0.508574	-0.216030
35823	-8.480729	2.867776	2.046454	0.779720	0.294903	0.508861	-0.214777
35824	-8.386994	2.419368	2.193334	0.780173	0.294537	0.508898	-0.213545
35825	-8.530786	2.079185	2.221183	0.780350	0.294853	0.508627	-0.213106
35826	-8.614524	2.005407	2.217245	0.780093	0.296158	0.507995	-0.213745
35827	-8.806812	2.471628	2.300542	0.779448	0.297962	0.507280	-0.215281
35828	-8.968723	2.774362	2.180494	0.778801	0.299367	0.506719	-0.216991
35829	-9.112146	2.823261	2.124829	0.778114	0.300515	0.506491	-0.218396
35830	-9.273198	2.838310	2.218679	0.777344	0.301517	0.506569	-0.219571
35831	-9.395381	2.722549	2.431930	0.776533	0.302642	0.506650	-0.220704
35832	-9.373635	2.521034	2.593604	0.775595	0.304224	0.506571	-0.222007
35833	-9.342067	2.376491	2.598755	0.774271	0.306791	0.506224	-0.223876
35834	-9.277736	2.472110	2.618864	0.772667	0.310238	0.505567	-0.226142
35835	-9.154558	2.914263	2.612675	0.771077	0.313801	0.504778	-0.228403
35836	-9.013299	3.141218	2.554670	0.769835	0.316542	0.504261	-0.229948
35837	-8.878122	3.317150	2.584634	0.769119	0.317851	0.504376	-0.230286
35838	-8.848891	3.216831	2.694599	0.768928	0.317607	0.505292	-0.229250
35839	-9.242530	2.860488	2.922575	0.769132	0.316212	0.506922	-0.226882
35840	-9.917197	2.309657	3.055231	0.769439	0.314351	0.508849	-0.224100
35841	-10.395127	1.782136	3.141982	0.769513	0.312835	0.510537	-0.222119
35842	-10.371251	1.818145	3.292437	0.769015	0.312272	0.512014	-0.221233
35843	-10.372074	2.044885	3.427964	0.768093	0.312415	0.513367	-0.221096
35844	-10.270149	2.354273	3.489569	0.767269	0.312760	0.514307	-0.221285
35845	-9.960458	2.440358	3.375555	0.766843	0.312932	0.514707	-0.221588
35846	-9.395252	2.333387	3.277565	0.766679	0.313162	0.514649	-0.221966
35847	-9.034904	2.333431	3.276962	0.766478	0.313554	0.514639	-0.222131
35848	-9.023790	2.310433	3.457714	0.766340	0.313678	0.514838	-0.221972
35849	-9.101445	2.139207	3.584266	0.766521	0.312981	0.515195	-0.221501
35850	-9.048140	1.971207	3.423793	0.767048	0.311936	0.515138	-0.221284
35851	-8.755991	1.918867	3.083793	0.767696	0.311153	0.514443	-0.221753
35852	-8.500614	1.891692	2.799161	0.768158	0.311197	0.513284	-0.222778
35853	-8.761446	2.082118	2.706768	0.768413	0.311730	0.512082	-0.223914
35854	-9.201949	2.229456	2.672724	0.768765	0.311795	0.511076	-0.224911
35855	-9.409158	1.991183	2.438281	0.769330	0.311443	0.510012	-0.225882
35856	-9.029958	1.853764	2.174032	0.769726	0.311519	0.508709	-0.227361
35857	-8.515167	1.881928	2.082334	0.769716	0.312557	0.507196	-0.229340
35858	-8.572058	2.015278	1.996240	0.769266	0.314304	0.505797	-0.231542
35859	-8.792118	2.177651	1.988661	0.768586	0.315954	0.504717	-0.233900
35860	-8.928103	2.274019	1.921481	0.767821	0.317075	0.504058	-0.236304
35861	-8.607824	2.452782	1.749607	0.767032	0.317981	0.503487	-0.238852
35862	-8.028035	2.624054	1.682457	0.766119	0.319378	0.502815	-0.241323
35863	-8.158479	2.863750	1.803999	0.765068	0.321124	0.502317	-0.243366
35864	-8.825730	3.064983	2.110558	0.764205	0.322112	0.502271	-0.244865
35865	-9.561044	2.697421	2.057256	0.763823	0.322303	0.502277	-0.245791
35866	-9.871326	2.791093	1.876516	0.763357	0.322727	0.501823	-0.247601
35867	-9.313834	2.598964	1.782400	0.762275	0.324303	0.500997	-0.250534
35868	-8.365146	2.953581	1.830106	0.760610	0.327051	0.499972	-0.254043
35869	-8.282846	3.049869	2.091771	0.758748	0.330045	0.499153	-0.257331
35870	-8.572546	3.059978	2.317835	0.756995	0.332815	0.498563	-0.260053
35871	-9.203101	3.329726	2.492074	0.755761	0.334409	0.498062	-0.262545
35872	-9.103289	2.904936	2.314251	0.755400	0.334572	0.497176	-0.265043
35873	-8.945429	2.495240	2.169084	0.755081	0.334772	0.495913	-0.268051
35874	-8.746554	2.340983	2.159662	0.754137	0.335878	0.494735	-0.271480
35875	-9.002695	2.525671	2.312059	0.752562	0.337612	0.493798	-0.275378
35876	-9.366544	2.819475	2.570203	0.751073	0.338731	0.492917	-0.279611
35877	-9.425828	3.028210	2.642812	0.750290	0.338597	0.491787	-0.283836
35878	-9.216670	3.158801	2.612393	0.750123	0.337404	0.490469	-0.287949
35879	-8.784518	2.886734	2.500850	0.750041	0.336144	0.489178	-0.291807
35880	-8.381561	2.840924	2.494090	0.749569	0.335539	0.487989	-0.295681
35881	-8.117068	2.764077	2.536680	0.748410	0.336014	0.487156	-0.299427
35882	-8.228567	3.216496	2.784241	0.747254	0.336384	0.486585	-0.302805
35883	-8.550753	3.384041	2.976030	0.746884	0.335117	0.486581	-0.305121
35884	-9.147737	3.219722	3.131305	0.747420	0.331810	0.487257	-0.306341
35885	-9.827198	2.871232	3.297116	0.748460	0.326862	0.488669	-0.306873
35886	-10.148576	2.579523	3.466874	0.749772	0.321000	0.490297	-0.307262
35887	-10.168945	2.107662	3.502879	0.750896	0.315484	0.491524	-0.308269
35888	-10.046086	1.854821	3.413311	0.751431	0.311743	0.491560	-0.310703
35889	-9.763514	1.950927	3.284771	0.751224	0.310438	0.490174	-0.314674
35890	-9.838387	2.389558	3.149842	0.750602	0.310893	0.487597	-0.319674
35891	-9.950534	2.834597	3.019246	0.750217	0.311623	0.484437	-0.324633
35892	-9.886500	2.910190	2.703627	0.750434	0.311736	0.481223	-0.328775
35893	-9.739967	2.584428	2.527128	0.750810	0.311647	0.478293	-0.332259
35894	-9.560623	2.409660	2.649913	0.750997	0.311699	0.476021	-0.335039
35895	-9.481027	2.273432	2.928198	0.751231	0.311453	0.474446	-0.336970
35896	-9.574028	2.060529	3.169779	0.751714	0.310703	0.473265	-0.338245
35897	-10.179411	1.733538	3.212106	0.752423	0.309357	0.472302	-0.339248
35898	-10.745130	1.626247	3.194251	0.753129	0.307486	0.471578	-0.340387
35899	-10.583426	1.645316	3.247855	0.753548	0.305509	0.471372	-0.341522
35900	-9.883706	1.667034	3.426764	0.753707	0.303925	0.471586	-0.342288
35901	-8.952215	1.611603	3.724490	0.753760	0.303199	0.471808	-0.342511
35902	-8.522165	1.766084	4.177078	0.754089	0.302876	0.471897	-0.341949
35903	-8.601794	2.217341	4.680027	0.755564	0.301123	0.472152	-0.339884
35904	-8.911478	2.092816	4.866284	0.759070	0.295998	0.472880	-0.335534
35905	-9.087552	0.889312	4.678068	0.763953	0.288700	0.473739	-0.329546
35906	-9.228055	-0.363199	4.488233	0.768668	0.281948	0.474321	-0.323535
35907	-9.319645	-0.953676	4.584829	0.772113	0.277546	0.474456	-0.318906
35908	-9.316593	-0.631093	4.817017	0.774607	0.274820	0.474116	-0.315708
35909	-9.211825	-0.278380	5.143908	0.776799	0.272250	0.473689	-0.313181
35910	-8.932546	0.010188	5.304584	0.779513	0.268601	0.473025	-0.310580
35911	-8.538655	-0.260164	5.224067	0.783016	0.263257	0.472334	-0.307379
35912	-8.033797	-0.995902	5.013590	0.786649	0.257598	0.471460	-0.304222
35913	-7.827004	-1.305445	4.780815	0.789604	0.252965	0.470494	-0.301944
35914	-7.686868	-1.177227	4.706881	0.791708	0.249466	0.469619	-0.300704
35915	-7.709846	-0.969606	4.706043	0.792995	0.246815	0.469001	-0.300466
35916	-7.728273	-0.505811	4.744537	0.793803	0.244187	0.468757	-0.300859
35917	-7.751982	-0.322908	4.755547	0.794399	0.240958	0.469017	-0.301486
35918	-7.872466	-0.213371	4.744008	0.794909	0.237269	0.469486	-0.302334
35919	-7.871445	-0.175978	4.736086	0.795237	0.233494	0.470018	-0.303582
35920	-8.020922	-0.019758	4.707154	0.795156	0.230077	0.470653	-0.305414
35921	-8.255785	0.179158	4.723620	0.794600	0.227184	0.471352	-0.307938
35922	-8.566773	0.547610	4.755069	0.793672	0.224656	0.472033	-0.311126
35923	-8.813878	0.732784	4.715203	0.792522	0.222610	0.472471	-0.314841
35924	-8.933373	1.131761	4.678115	0.791411	0.221129	0.472401	-0.318759
35925	-8.934019	1.254062	4.593922	0.790541	0.220005	0.471749	-0.322637
35926	-8.672604	1.370013	4.589231	0.789927	0.219420	0.470661	-0.326111
35927	-8.535746	1.358440	4.521862	0.789509	0.219223	0.469385	-0.329081
35928	-8.464177	1.362403	4.600583	0.789297	0.219312	0.468040	-0.331438
35929	-8.641455	1.163278	4.629610	0.789441	0.219535	0.466410	-0.333241
35930	-8.764471	1.005256	4.559499	0.790027	0.219973	0.464138	-0.334731
35931	-8.623797	0.765752	4.468945	0.791004	0.220588	0.461203	-0.336075
35932	-8.467574	0.619962	4.360094	0.792079	0.221625	0.457957	-0.337295
35933	-8.263188	0.412006	4.279034	0.793114	0.223222	0.454492	-0.338496
35934	-8.233866	0.376721	4.154884	0.794208	0.225162	0.450743	-0.339658
35935	-8.069810	0.356772	4.113316	0.795372	0.226902	0.446989	-0.340734
35936	-7.986790	0.346408	4.027032	0.796440	0.228044	0.443883	-0.341536
35937	-8.058303	0.340597	3.952042	0.797191	0.228709	0.441660	-0.342220
35938	-8.137994	0.358630	3.977988	0.797709	0.228861	0.440149	-0.342857
35939	-8.228412	0.320215	4.066832	0.798086	0.228820	0.439025	-0.343449
35940	-8.215874	0.406928	4.227080	0.798261	0.228749	0.438249	-0.344079
35941	-8.360086	0.446947	4.271501	0.798313	0.228926	0.437639	-0.344619
35942	-8.403226	0.553111	4.420364	0.798292	0.229266	0.437046	-0.345193
35943	-8.437341	0.614689	4.473885	0.798117	0.229729	0.436589	-0.345867
35944	-8.437243	0.750162	4.480881	0.797993	0.230061	0.436212	-0.346409
35945	-8.351220	0.694618	4.473917	0.797861	0.230264	0.435982	-0.346866
35946	-8.353327	0.778474	4.477258	0.797571	0.230551	0.436025	-0.347287
35947	-8.362046	1.013818	4.491016	0.797147	0.230626	0.436470	-0.347653
35948	-8.387335	1.218988	4.520786	0.796579	0.230215	0.437497	-0.347935
35949	-8.471813	1.483478	4.563304	0.795999	0.228725	0.439169	-0.348139
35950	-8.654143	1.384211	4.474545	0.795505	0.225598	0.441550	-0.348297
35951	-8.639771	1.005537	4.164859	0.795063	0.221569	0.444459	-0.348194
35952	-8.527556	0.532630	3.844974	0.794440	0.218333	0.447634	-0.347591
35953	-8.657281	0.554787	3.855254	0.793645	0.216423	0.450831	-0.346467
35954	-8.567388	0.511356	3.925512	0.792835	0.215629	0.453913	-0.344789
35955	-8.756561	0.087441	3.707287	0.791975	0.216432	0.456625	-0.342676
35956	-8.762106	0.588130	3.817286	0.791167	0.218683	0.458625	-0.340434
35957	-8.920086	0.746555	3.908493	0.790400	0.221207	0.459897	-0.338866
35958	-8.791794	0.728626	3.670673	0.789465	0.224223	0.460814	-0.337815
35959	-8.941632	0.920227	3.535543	0.788391	0.227841	0.461461	-0.337020
35960	-8.761200	0.871007	3.535327	0.787409	0.231952	0.461630	-0.336279
35961	-8.509208	0.850060	3.722156	0.786090	0.236973	0.462069	-0.335259
35962	-8.692182	0.855399	3.759975	0.784583	0.242422	0.462864	-0.333793
35963	-8.737887	0.618542	3.705784	0.782972	0.248061	0.463607	-0.332400
35964	-8.772183	0.600075	3.863471	0.781195	0.253852	0.464349	-0.331169
35965	-8.892361	0.699644	4.075720	0.779511	0.259161	0.465079	-0.330000
35966	-8.890368	0.652624	4.140241	0.777967	0.263689	0.465907	-0.328885
35967	-8.831611	0.497061	4.226558	0.776470	0.267577	0.466999	-0.327733
35968	-8.799202	0.581191	4.338891	0.774815	0.271007	0.468630	-0.326501
35969	-8.887616	0.367805	4.496072	0.772867	0.274249	0.470986	-0.325017
35970	-9.099975	0.523701	4.624070	0.770665	0.277260	0.473900	-0.323452
35971	-9.175512	0.608565	4.761403	0.768332	0.279743	0.477235	-0.321958
35972	-9.216246	0.666442	4.916322	0.766260	0.281291	0.480697	-0.320392
35973	-9.237518	0.466967	4.841142	0.764141	0.282376	0.484435	-0.318866
35974	-9.503367	0.352372	4.863865	0.762358	0.283111	0.487653	-0.317572
35975	-9.536037	0.383158	4.873045	0.760843	0.283627	0.490179	-0.316855
35976	-9.687016	0.598996	4.831202	0.759510	0.284054	0.491923	-0.316968
35977	-9.705552	1.001930	4.973829	0.757966	0.285059	0.493060	-0.317996
35978	-9.999649	1.503425	5.154330	0.756309	0.287292	0.493140	-0.319801
35979	-10.089631	2.425682	5.366237	0.754273	0.291527	0.492132	-0.322322
35980	-10.049445	3.169047	5.436154	0.751749	0.298887	0.489937	-0.324812
35981	-9.702523	4.128875	4.802017	0.748949	0.309960	0.487332	-0.324819
35982	-9.830733	5.466729	3.617840	0.746293	0.324382	0.485108	-0.320145
35983	-9.728759	7.117798	2.645511	0.744238	0.340441	0.484935	-0.308297
35984	-10.066729	7.813647	1.943589	0.743991	0.354671	0.486711	-0.289481
35985	-10.249855	7.609810	1.308046	0.745846	0.363995	0.490465	-0.265831
35986	-9.755505	6.687310	0.782726	0.748361	0.368850	0.496249	-0.240090
35987	-9.071718	5.709379	0.550702	0.750589	0.371351	0.503196	-0.213326
35988	-10.045128	4.749874	1.468254	0.753652	0.370978	0.509425	-0.186734
35989	-10.090588	3.538640	1.251696	0.758323	0.369011	0.511757	-0.163957
35990	-9.550183	3.325065	3.712420	0.765883	0.361489	0.511593	-0.144990
35991	-7.604303	1.931339	2.166050	0.775059	0.354195	0.507383	-0.128033
35992	-6.735836	1.377596	2.554428	0.778128	0.356088	0.505088	-0.112270
35993	-8.148863	3.989473	1.863327	0.778770	0.361721	0.503207	-0.097247
35994	-8.633188	5.390391	2.180187	0.777617	0.368242	0.502909	-0.082410
