// Start Time: Unknown
// Update Rate: 60.0Hz
// Filter Profile: human (46.1)
// Option Flags: AHS Disabled ICC Disabled 
// Firmware Version: 4.3.5
PacketCounter	Acc_X	Acc_Y	Acc_Z	Quat_q0	Quat_q1	Quat_q2	Quat_q3
34999	-4.797725	-2.866902	8.061083	0.951909	-0.172212	0.241632	0.076333
35000	-4.799595	-2.884072	8.072257	0.951907	-0.172237	0.241622	0.076325
35001	-4.815061	-2.880348	8.057664	0.951902	-0.172262	0.241627	0.076316
35002	-4.787822	-2.899595	8.068238	0.951899	-0.172274	0.241633	0.076306
35003	-4.804331	-2.915117	8.079883	0.951903	-0.172258	0.241629	0.076313
35004	-4.816144	-2.870246	8.088140	0.951910	-0.172243	0.241609	0.076323
35005	-4.803242	-2.885025	8.085062	0.951917	-0.172224	0.241598	0.076317
35006	-4.804072	-2.878863	8.056139	0.951923	-0.172199	0.241594	0.076308
35007	-4.828042	-2.815033	8.127535	0.951922	-0.172196	0.241596	0.076325
35008	-4.786534	-2.832296	8.123436	0.951914	-0.172198	0.241633	0.076295
35009	-4.808508	-2.897539	8.080574	0.951899	-0.172233	0.241680	0.076254
35010	-4.824918	-2.888396	8.036690	0.951887	-0.172245	0.241731	0.076216
35011	-4.782283	-2.899572	8.078306	0.951884	-0.172238	0.241755	0.076194
35012	-4.811543	-2.888066	8.109683	0.951875	-0.172244	0.241799	0.076156
35013	-4.813211	-2.885478	8.094293	0.951856	-0.172290	0.241852	0.076124
35014	-4.802844	-2.916005	8.087215	0.951823	-0.172369	0.241931	0.076102
35015	-4.804858	-2.908779	8.042609	0.951801	-0.172443	0.241966	0.076098
35016	-4.790159	-2.901513	8.072941	0.951797	-0.172472	0.241969	0.076074
35017	-4.777618	-2.911455	8.040740	0.951796	-0.172475	0.241962	0.076093
35018	-4.807493	-2.911622	8.055350	0.951794	-0.172494	0.241946	0.076130
35019	-4.790045	-2.875149	8.091550	0.951787	-0.172538	0.241933	0.076155
35020	-4.791981	-2.886980	8.073947	0.951782	-0.172572	0.241922	0.076186
35021	-4.807426	-2.888684	8.088036	0.951770	-0.172612	0.241925	0.076225
35022	-4.807377	-2.877133	8.104423	0.951757	-0.172647	0.241944	0.076253
35023	-4.822023	-2.859066	8.092270	0.951749	-0.172680	0.241955	0.076244
35024	-4.825801	-2.882406	8.057215	0.951730	-0.172711	0.242003	0.076262
35025	-4.783360	-2.891217	8.084366	0.951721	-0.172737	0.242023	0.076252
35026	-4.798326	-2.873404	8.071925	0.951695	-0.172807	0.242073	0.076261
35027	-4.815423	-2.887020	8.068528	0.951690	-0.172832	0.242078	0.076252
35028	-4.827552	-2.845414	8.090749	0.951684	-0.172838	0.242093	0.076262
35029	-4.813971	-2.849115	8.104317	0.951679	-0.172860	0.242105	0.076238
35030	-4.803077	-2.881805	8.112140	0.951658	-0.172896	0.242167	0.076218
35031	-4.807285	-2.899803	8.048014	0.951642	-0.172923	0.242223	0.076174
35032	-4.781798	-2.933235	8.055731	0.951640	-0.172908	0.242248	0.076157
35033	-4.789198	-2.833447	8.089153	0.951653	-0.172860	0.242232	0.076154
35034	-4.821601	-2.856442	8.069552	0.951649	-0.172860	0.242262	0.076109
35035	-4.809403	-2.868851	8.051602	0.951646	-0.172850	0.242293	0.076070
35036	-4.810623	-2.879283	8.108562	0.951643	-0.172839	0.242332	0.076015
35037	-4.802133	-2.929243	8.053597	0.951634	-0.172832	0.242385	0.075966
35038	-4.816897	-2.913093	8.055993	0.951641	-0.172790	0.242406	0.075915
35039	-4.818866	-2.923660	8.038797	0.951653	-0.172739	0.242398	0.075896
35040	-4.803702	-2.914456	8.070212	0.951668	-0.172673	0.242386	0.075904
35041	-4.803093	-2.898768	8.073073	0.951681	-0.172629	0.242370	0.075886
35042	-4.806916	-2.938248	8.050674	0.951692	-0.172613	0.242336	0.075896
35043	-4.806174	-2.923119	8.053412	0.951700	-0.172589	0.242318	0.075912
35044	-4.806506	-2.919335	8.039214	0.951718	-0.172541	0.242273	0.075934
35045	-4.806478	-2.917611	8.039856	0.951748	-0.172446	0.242213	0.075972
35046	-4.815906	-2.870680	8.123824	0.951784	-0.172374	0.242113	0.076002
35047	-4.797507	-2.827381	8.132353	0.951798	-0.172337	0.242074	0.076032
35048	-4.816087	-2.865827	8.110086	0.951798	-0.172340	0.242067	0.076050
35049	-4.802219	-2.863863	8.095177	0.951801	-0.172338	0.242061	0.076038
35050	-4.817776	-2.862519	8.094905	0.951790	-0.172364	0.242080	0.076050
35051	-4.820182	-2.879635	8.105844	0.951778	-0.172396	0.242106	0.076040
35052	-4.794550	-2.905461	8.070402	0.951767	-0.172432	0.242131	0.076016
35053	-4.809223	-2.890312	8.072455	0.951755	-0.172474	0.242156	0.076001
35054	-4.811725	-2.907613	8.083272	0.951740	-0.172509	0.242189	0.076006
35055	-4.812034	-2.890937	8.070556	0.951720	-0.172570	0.242225	0.076000
35056	-4.801094	-2.915523	8.035302	0.951713	-0.172578	0.242247	0.076001
35057	-4.815584	-2.904864	8.066588	0.951714	-0.172562	0.242242	0.076031
35058	-4.801600	-2.902517	8.051894	0.951723	-0.172544	0.242216	0.076047
35059	-4.814407	-2.877179	8.086300	0.951731	-0.172514	0.242198	0.076075
35060	-4.814961	-2.870958	8.057454	0.951735	-0.172508	0.242178	0.076102
35061	-4.818026	-2.901780	8.066240	0.951734	-0.172504	0.242179	0.076118
35062	-4.804201	-2.902235	8.065823	0.951740	-0.172482	0.242168	0.076126
35063	-4.833734	-2.898737	8.066462	0.951762	-0.172419	0.242118	0.076153
35064	-4.802276	-2.873506	8.086341	0.951781	-0.172363	0.242075	0.076182
35065	-4.803589	-2.886434	8.084074	0.951798	-0.172315	0.242031	0.076225
35066	-4.801444	-2.859151	8.104189	0.951813	-0.172274	0.241992	0.076246
35067	-4.789620	-2.885224	8.084340	0.951820	-0.172242	0.241983	0.076260
35068	-4.790337	-2.886945	8.098670	0.951824	-0.172220	0.241972	0.076290
35069	-4.806752	-2.893655	8.067385	0.951834	-0.172177	0.241957	0.076316
35070	-4.791472	-2.881867	8.084441	0.951849	-0.172129	0.241927	0.076336
35071	-4.791641	-2.877907	8.070384	0.951866	-0.172088	0.241875	0.076381
35072	-4.819862	-2.862501	8.088259	0.951884	-0.172021	0.241847	0.076390
35073	-4.806785	-2.882284	8.114389	0.951893	-0.172010	0.241813	0.076408
35074	-4.792477	-2.879802	8.099946	0.951908	-0.171962	0.241784	0.076428
35075	-4.795405	-2.907321	8.094686	0.951912	-0.171935	0.241774	0.076471
35076	-4.795863	-2.898198	8.051567	0.951924	-0.171904	0.241735	0.076510
35077	-4.808368	-2.869689	8.071830	0.951941	-0.171845	0.241699	0.076544
35078	-4.792970	-2.860414	8.103412	0.951952	-0.171803	0.241669	0.076596
35079	-4.806811	-2.838323	8.077625	0.951959	-0.171777	0.241644	0.076642
35080	-4.780454	-2.870910	8.086434	0.951972	-0.171734	0.241615	0.076670
35081	-4.823531	-2.854628	8.104212	0.951980	-0.171710	0.241596	0.076686
35082	-4.810529	-2.864180	8.072499	0.951987	-0.171709	0.241568	0.076690
35083	-4.810009	-2.852167	8.089299	0.951984	-0.171715	0.241574	0.076692
35084	-4.796255	-2.858723	8.117424	0.951981	-0.171754	0.241563	0.076686
35085	-4.811691	-2.857836	8.117020	0.951971	-0.171791	0.241574	0.076687
35086	-4.799378	-2.868317	8.084569	0.951959	-0.171832	0.241598	0.076671
35087	-4.800528	-2.871395	8.098164	0.951949	-0.171877	0.241608	0.076663
35088	-4.788052	-2.887263	8.094634	0.951945	-0.171905	0.241612	0.076639
35089	-4.801059	-2.855169	8.085107	0.951936	-0.171963	0.241612	0.076622
35090	-4.804317	-2.887171	8.093446	0.951928	-0.172010	0.241614	0.076609
35091	-4.789532	-2.871904	8.080707	0.951912	-0.172071	0.241635	0.076605
35092	-4.806340	-2.888264	8.091855	0.951908	-0.172106	0.241631	0.076583
35093	-4.807160	-2.885979	8.076802	0.951898	-0.172151	0.241641	0.076575
35094	-4.808053	-2.883649	8.061720	0.951892	-0.172185	0.241644	0.076560
35095	-4.823369	-2.890597	8.104718	0.951897	-0.172198	0.241614	0.076568
35096	-4.793350	-2.878374	8.106902	0.951904	-0.172196	0.241593	0.076558
35097	-4.793725	-2.875459	8.092337	0.951908	-0.172206	0.241570	0.076549
35098	-4.808953	-2.874480	8.092068	0.951900	-0.172254	0.241572	0.076537
35099	-4.809707	-2.872139	8.077071	0.951897	-0.172280	0.241569	0.076520
35100	-4.798254	-2.902218	8.071017	0.951893	-0.172311	0.241566	0.076513
35101	-4.796758	-2.876256	8.090256	0.951889	-0.172328	0.241572	0.076511
35102	-4.784222	-2.891748	8.086904	0.951885	-0.172351	0.241569	0.076510
35103	-4.814245	-2.892304	8.101101	0.951879	-0.172397	0.241564	0.076505
35104	-4.784751	-2.877895	8.088389	0.951870	-0.172422	0.241583	0.076494
35105	-4.816119	-2.887258	8.071006	0.951866	-0.172446	0.241587	0.076485
35106	-4.787622	-2.886812	8.055870	0.951868	-0.172450	0.241573	0.076495
35107	-4.789525	-2.906151	8.081771	0.951872	-0.172445	0.241560	0.076491
35108	-4.802257	-2.875795	8.087157	0.951879	-0.172438	0.241539	0.076493
35109	-4.803913	-2.892378	8.098798	0.951887	-0.172432	0.241511	0.076489
35110	-4.789705	-2.893088	8.098573	0.951895	-0.172420	0.241491	0.076484
35111	-4.804663	-2.888516	8.084338	0.951906	-0.172392	0.241466	0.076485
35112	-4.804060	-2.873452	8.086918	0.951905	-0.172391	0.241460	0.076518
35113	-4.805705	-2.884545	8.069742	0.951918	-0.172374	0.241425	0.076506
35114	-4.791482	-2.887665	8.084064	0.951928	-0.172347	0.241400	0.076528
35115	-4.777302	-2.887985	8.083967	0.951937	-0.172324	0.241374	0.076538
35116	-4.820426	-2.871888	8.101550	0.951945	-0.172299	0.241356	0.076552
35117	-4.791643	-2.870633	8.086889	0.951958	-0.172262	0.241333	0.076557
35118	-4.805693	-2.856766	8.104127	0.951963	-0.172232	0.241330	0.076563
35119	-4.793041	-2.876575	8.130121	0.951976	-0.172187	0.241307	0.076576
35120	-4.793500	-2.870338	8.101283	0.951979	-0.172181	0.241301	0.076578
35121	-4.808983	-2.868529	8.101131	0.951977	-0.172169	0.241311	0.076591
35122	-4.796819	-2.883430	8.097807	0.951969	-0.172167	0.241342	0.076607
35123	-4.784823	-2.895730	8.079920	0.951959	-0.172165	0.241379	0.076612
35124	-4.799736	-2.879855	8.081954	0.951946	-0.172184	0.241422	0.076598
35125	-4.802617	-2.896639	8.092821	0.951932	-0.172194	0.241466	0.076613
35126	-4.788402	-2.880530	8.080059	0.951917	-0.172211	0.241516	0.076605
35127	-4.804644	-2.879112	8.079302	0.951903	-0.172226	0.241559	0.076606
35128	-4.807136	-2.893188	8.075964	0.951900	-0.172232	0.241567	0.076608
35129	-4.809358	-2.904545	8.058350	0.951893	-0.172238	0.241590	0.076608
35130	-4.808394	-2.880478	8.091991	0.951888	-0.172210	0.241618	0.076634
35131	-4.780449	-2.882174	8.091239	0.951881	-0.172221	0.241632	0.076653
35132	-4.825333	-2.872711	8.062247	0.951873	-0.172217	0.241664	0.076666
35133	-4.797610	-2.877276	8.075755	0.951865	-0.172218	0.241695	0.076668
35134	-4.813049	-2.870341	8.046598	0.951865	-0.172225	0.241688	0.076672
35135	-4.784901	-2.883014	8.103719	0.951870	-0.172212	0.241676	0.076674
35136	-4.815645	-2.888975	8.072402	0.951879	-0.172195	0.241657	0.076661
35137	-4.788378	-2.907801	8.083742	0.951881	-0.172183	0.241652	0.076677
35138	-4.787910	-2.890042	8.071771	0.951882	-0.172167	0.241655	0.076693
35139	-4.816790	-2.877830	8.103352	0.951891	-0.172146	0.241636	0.076694
35140	-4.790437	-2.900184	8.054414	0.951892	-0.172128	0.241640	0.076706
35141	-4.803414	-2.872067	8.074159	0.951902	-0.172096	0.241623	0.076711
35142	-4.803992	-2.873629	8.088674	0.951916	-0.172046	0.241601	0.076715
35143	-4.805682	-2.886526	8.086247	0.951931	-0.171982	0.241580	0.076738
35144	-4.806144	-2.885013	8.086513	0.951944	-0.171934	0.241551	0.076780
35145	-4.790787	-2.875613	8.118282	0.951968	-0.171853	0.241510	0.076787
35146	-4.791101	-2.874242	8.118583	0.951977	-0.171824	0.241493	0.076795
35147	-4.806177	-2.869471	8.104263	0.951983	-0.171801	0.241482	0.076802
35148	-4.793515	-2.884281	8.101341	0.951987	-0.171782	0.241478	0.076805
35149	-4.779575	-2.882136	8.086622	0.951991	-0.171766	0.241474	0.076812
35150	-4.793609	-2.863081	8.074820	0.951995	-0.171741	0.241470	0.076825
35151	-4.809060	-2.860992	8.074730	0.951996	-0.171723	0.241474	0.076840
35152	-4.810351	-2.865741	8.103106	0.951989	-0.171731	0.241496	0.076842
35153	-4.797778	-2.875274	8.071186	0.951995	-0.171692	0.241495	0.076854
35154	-4.785396	-2.895233	8.097122	0.951999	-0.171678	0.241483	0.076875
35155	-4.798286	-2.861849	8.087894	0.951997	-0.171664	0.241493	0.076904
35156	-4.799236	-2.858449	8.073118	0.951994	-0.171658	0.241501	0.076926
35157	-4.803031	-2.891598	8.096287	0.951995	-0.171628	0.241513	0.076951
35158	-4.803632	-2.887610	8.081930	0.952013	-0.171561	0.241486	0.076960
35159	-4.788117	-2.872834	8.084879	0.952031	-0.171493	0.241451	0.076999
35160	-4.816705	-2.859398	8.116986	0.952047	-0.171415	0.241426	0.077051
35161	-4.787786	-2.860335	8.117164	0.952064	-0.171376	0.241380	0.077067
35162	-4.788137	-2.856400	8.102931	0.952071	-0.171324	0.241380	0.077098
35163	-4.804671	-2.865526	8.085972	0.952077	-0.171288	0.241372	0.077126
35164	-4.805516	-2.867122	8.100322	0.952082	-0.171266	0.241361	0.077155
35165	-4.790358	-2.850193	8.088393	0.952088	-0.171216	0.241361	0.077189
35166	-4.805382	-2.842336	8.059738	0.952100	-0.171175	0.241337	0.077208
35167	-4.807167	-2.860151	8.086391	0.952128	-0.171065	0.241294	0.077242
35168	-4.792339	-2.858887	8.087321	0.952169	-0.170938	0.241215	0.077260
35169	-4.791016	-2.847171	8.119886	0.952203	-0.170811	0.241166	0.077277
35170	-4.805474	-2.840941	8.106404	0.952228	-0.170725	0.241118	0.077307
35171	-4.793431	-2.866481	8.087183	0.952246	-0.170661	0.241083	0.077333
35172	-4.793884	-2.867461	8.101982	0.952263	-0.170595	0.241056	0.077364
35173	-4.791981	-2.839890	8.121865	0.952273	-0.170551	0.241040	0.077388
35174	-4.777801	-2.837328	8.107456	0.952282	-0.170515	0.241017	0.077418
35175	-4.808396	-2.844962	8.091017	0.952307	-0.170429	0.240971	0.077450
35176	-4.793899	-2.847027	8.105987	0.952332	-0.170358	0.240914	0.077478
35177	-4.794010	-2.845268	8.106539	0.952352	-0.170278	0.240887	0.077483
35178	-4.780855	-2.859175	8.104332	0.952376	-0.170207	0.240838	0.077498
35179	-4.779552	-2.845672	8.122066	0.952406	-0.170118	0.240779	0.077509
35180	-4.792712	-2.828274	8.125487	0.952429	-0.170052	0.240728	0.077531
35181	-4.793033	-2.826804	8.125809	0.952440	-0.170000	0.240722	0.077532
35182	-4.794749	-2.837304	8.108893	0.952451	-0.169960	0.240698	0.077554
35183	-4.779540	-2.825802	8.125853	0.952459	-0.169932	0.240687	0.077551
35184	-4.795944	-2.838141	8.123295	0.952468	-0.169914	0.240668	0.077537
35185	-4.765562	-2.820374	8.096934	0.952482	-0.169880	0.240637	0.077539
35186	-4.785535	-2.877889	8.101406	0.952508	-0.169805	0.240596	0.077516
35187	-4.796332	-2.832095	8.109778	0.952529	-0.169744	0.240560	0.077504
35188	-4.764888	-2.809975	8.143980	0.952548	-0.169704	0.240514	0.077496
35189	-4.795499	-2.818308	8.127304	0.952556	-0.169679	0.240504	0.077480
35190	-4.770535	-2.860219	8.105015	0.952574	-0.169610	0.240484	0.077473
35191	-4.782817	-2.831326	8.125157	0.952600	-0.169544	0.240434	0.077454
35192	-4.769168	-2.843074	8.108634	0.952628	-0.169482	0.240376	0.077434
35193	-4.770737	-2.858593	8.120876	0.952642	-0.169417	0.240363	0.077444
35194	-4.771180	-2.857234	8.121094	0.952656	-0.169376	0.240333	0.077456
35195	-4.783535	-2.826266	8.126496	0.952665	-0.169354	0.240306	0.077465
35196	-4.769314	-2.826854	8.126426	0.952675	-0.169340	0.240279	0.077467
35197	-4.772104	-2.849912	8.092317	0.952678	-0.169339	0.240265	0.077469
35198	-4.786345	-2.838868	8.123631	0.952682	-0.169323	0.240260	0.077477
35199	-4.799041	-2.810768	8.143215	0.952691	-0.169308	0.240234	0.077478
35200	-4.756825	-2.823411	8.111349	0.952691	-0.169316	0.240226	0.077484
35201	-4.774740	-2.850482	8.105969	0.952691	-0.169317	0.240220	0.077501
35202	-4.774655	-2.843564	8.151443	0.952689	-0.169329	0.240220	0.077502
35203	-4.772476	-2.807049	8.112887	0.952684	-0.169357	0.240217	0.077509
35204	-4.789681	-2.825658	8.138486	0.952668	-0.169419	0.240238	0.077508
35205	-4.776257	-2.822535	8.108448	0.952644	-0.169491	0.240282	0.077510
35206	-4.779064	-2.834875	8.090269	0.952623	-0.169541	0.240328	0.077516
35207	-4.750503	-2.828583	8.120469	0.952605	-0.169583	0.240366	0.077519
35208	-4.781331	-2.828872	8.134065	0.952588	-0.169632	0.240397	0.077526
35209	-4.784041	-2.843557	8.130530	0.952574	-0.169669	0.240430	0.077514
35210	-4.798580	-2.823076	8.103321	0.952551	-0.169727	0.240475	0.077534
35211	-4.774879	-2.869069	8.094344	0.952535	-0.169768	0.240506	0.077547
35212	-4.772699	-2.831097	8.130168	0.952523	-0.169784	0.240527	0.077584
35213	-4.786998	-2.812447	8.117866	0.952520	-0.169784	0.240536	0.077597
35214	-4.776165	-2.839579	8.097516	0.952505	-0.169806	0.240577	0.077609
35215	-4.777972	-2.844697	8.125503	0.952493	-0.169833	0.240605	0.077612
35216	-4.779076	-2.839321	8.095889	0.952479	-0.169846	0.240640	0.077642
35217	-4.780349	-2.836093	8.080842	0.952474	-0.169830	0.240665	0.077667
35218	-4.781707	-2.840502	8.109349	0.952476	-0.169822	0.240652	0.077699
35219	-4.782716	-2.844871	8.138077	0.952481	-0.169800	0.240635	0.077741
35220	-4.796324	-2.823104	8.111819	0.952484	-0.169779	0.240624	0.077774
35221	-4.782526	-2.823477	8.111622	0.952487	-0.169752	0.240621	0.077806
35222	-4.768898	-2.826419	8.125857	0.952491	-0.169732	0.240610	0.077839
35223	-4.785360	-2.835744	8.108859	0.952496	-0.169693	0.240602	0.077882
35224	-4.785197	-2.825616	8.140149	0.952496	-0.169691	0.240594	0.077911
35225	-4.784579	-2.805604	8.113452	0.952486	-0.169703	0.240617	0.077943
35226	-4.788011	-2.828604	8.078931	0.952484	-0.169692	0.240627	0.077958
35227	-4.804265	-2.834466	8.121774	0.952476	-0.169702	0.240641	0.077996
35228	-4.776029	-2.833994	8.106782	0.952473	-0.169692	0.240651	0.078013
35229	-4.776140	-2.824188	8.137805	0.952470	-0.169690	0.240659	0.078041
35230	-4.805832	-2.815784	8.108735	0.952473	-0.169681	0.240651	0.078039
35231	-4.793494	-2.831040	8.105698	0.952466	-0.169690	0.240668	0.078055
35232	-4.795858	-2.845191	8.102561	0.952462	-0.169709	0.240671	0.078056
35233	-4.779195	-2.817378	8.107518	0.952477	-0.169677	0.240638	0.078039
35234	-4.796830	-2.846696	8.116896	0.952488	-0.169669	0.240602	0.078041
35235	-4.782444	-2.844992	8.102363	0.952493	-0.169664	0.240588	0.078036
35236	-4.781869	-2.832880	8.119163	0.952497	-0.169667	0.240574	0.078024
35237	-4.798314	-2.845775	8.116342	0.952499	-0.169685	0.240556	0.078014
35238	-4.783782	-2.841986	8.087187	0.952502	-0.169704	0.240533	0.078002
35239	-4.781513	-2.815756	8.106715	0.952518	-0.169693	0.240490	0.077969
35240	-4.785700	-2.861490	8.113320	0.952524	-0.169726	0.240450	0.077938
35241	-4.769763	-2.848545	8.115861	0.952538	-0.169724	0.240398	0.077931
35242	-4.781546	-2.815739	8.106701	0.952546	-0.169737	0.240360	0.077928
35243	-4.782062	-2.821162	8.135377	0.952551	-0.169780	0.240317	0.077911
35244	-4.753967	-2.833848	8.103495	0.952549	-0.169850	0.240286	0.077876
35245	-4.768093	-2.824327	8.134341	0.952540	-0.169915	0.240278	0.077862
35246	-4.768504	-2.822774	8.119206	0.952533	-0.169993	0.240260	0.077838
35247	-4.783747	-2.822945	8.118333	0.952517	-0.170104	0.240259	0.077793
35248	-4.768514	-2.809156	8.105332	0.952497	-0.170218	0.240266	0.077764
35249	-4.773899	-2.856472	8.110641	0.952471	-0.170320	0.240305	0.077734
35250	-4.759407	-2.845030	8.111830	0.952446	-0.170430	0.240336	0.077707
35251	-4.775503	-2.845279	8.110417	0.952416	-0.170539	0.240382	0.077698
35252	-4.791563	-2.842765	8.094535	0.952387	-0.170641	0.240427	0.077695
35253	-4.780903	-2.871336	8.073575	0.952367	-0.170715	0.240455	0.077683
35254	-4.797914	-2.884869	8.070141	0.952362	-0.170742	0.240458	0.077673
35255	-4.781561	-2.859770	8.089501	0.952371	-0.170723	0.240432	0.077689
35256	-4.768312	-2.871696	8.072721	0.952393	-0.170654	0.240391	0.077700
35257	-4.779568	-2.833613	8.124370	0.952415	-0.170598	0.240332	0.077729
35258	-4.781651	-2.855307	8.091024	0.952445	-0.170501	0.240278	0.077751
35259	-4.783153	-2.872432	8.118254	0.952484	-0.170374	0.240204	0.077778
35260	-4.766545	-2.854224	8.107622	0.952522	-0.170259	0.240122	0.077814
35261	-4.793245	-2.825749	8.142643	0.952547	-0.170171	0.240077	0.077844
35262	-4.775682	-2.793765	8.134164	0.952576	-0.170080	0.240016	0.077871
35263	-4.775535	-2.789610	8.120246	0.952590	-0.170038	0.239993	0.077869
35264	-4.788376	-2.763538	8.154413	0.952599	-0.169997	0.239977	0.077897
35265	-4.777314	-2.795232	8.163566	0.952605	-0.169978	0.239972	0.077880
35266	-4.782094	-2.832830	8.126340	0.952588	-0.170002	0.240030	0.077852
35267	-4.786270	-2.859100	8.105664	0.952571	-0.170036	0.240084	0.077822
35268	-4.759265	-2.864498	8.118867	0.952547	-0.170062	0.240164	0.077806
35269	-4.788803	-2.844921	8.105914	0.952533	-0.170087	0.240218	0.077758
35270	-4.787960	-2.819226	8.124434	0.952517	-0.170139	0.240262	0.077705
35271	-4.780344	-2.878449	8.112912	0.952496	-0.170180	0.240316	0.077706
35272	-4.765798	-2.862981	8.100100	0.952483	-0.170208	0.240350	0.077696
35273	-4.768298	-2.877032	8.096922	0.952486	-0.170188	0.240360	0.077676
35274	-4.769093	-2.876178	8.096756	0.952493	-0.170155	0.240351	0.077687
35275	-4.767409	-2.848822	8.116367	0.952503	-0.170098	0.240351	0.077688
35276	-4.784274	-2.860560	8.113656	0.952504	-0.170064	0.240365	0.077707
35277	-4.784016	-2.845073	8.116013	0.952505	-0.170032	0.240377	0.077727
35278	-4.799289	-2.840257	8.101346	0.952505	-0.170027	0.240371	0.077753
35279	-4.785541	-2.840733	8.101167	0.952512	-0.169987	0.240377	0.077750
35280	-4.785651	-2.830739	8.132313	0.952508	-0.169988	0.240385	0.077763
35281	-4.785152	-2.813486	8.119956	0.952502	-0.170000	0.240405	0.077750
35282	-4.786579	-2.813446	8.119129	0.952484	-0.170035	0.240452	0.077752
35283	-4.790826	-2.840158	8.098245	0.952452	-0.170123	0.240517	0.077748
35284	-4.791956	-2.831978	8.128167	0.952425	-0.170198	0.240581	0.077720
35285	-4.790763	-2.795500	8.162952	0.952378	-0.170328	0.240682	0.077697
35286	-4.794845	-2.809665	8.143341	0.952311	-0.170517	0.240827	0.077651
35287	-4.786093	-2.843926	8.060617	0.952249	-0.170699	0.240951	0.077628
35288	-4.805968	-2.866826	8.098610	0.952196	-0.170815	0.241091	0.077588
35289	-4.806227	-2.848812	8.070571	0.952181	-0.170899	0.241117	0.077507
35290	-4.809180	-2.869525	8.095746	0.952169	-0.170960	0.241131	0.077472
35291	-4.792575	-2.836890	8.145791	0.952148	-0.171066	0.241154	0.077428
35292	-4.807107	-2.820844	8.132239	0.952105	-0.171239	0.241219	0.077375
35293	-4.784908	-2.878652	8.090666	0.952048	-0.171427	0.241321	0.077335
35294	-4.777820	-2.937226	8.063439	0.952004	-0.171558	0.241414	0.077301
35295	-4.790557	-2.896779	8.084125	0.951989	-0.171621	0.241435	0.077280
35296	-4.791097	-2.892092	8.054427	0.951979	-0.171659	0.241450	0.077268
35297	-4.791119	-2.880475	8.070814	0.951974	-0.171679	0.241456	0.077272
35298	-4.777019	-2.872601	8.101674	0.951963	-0.171693	0.241491	0.077262
35299	-4.793509	-2.873962	8.115039	0.951943	-0.171738	0.241543	0.077248
35300	-4.781392	-2.884714	8.082505	0.951922	-0.171779	0.241597	0.077249
35301	-4.800435	-2.911702	8.076205	0.951910	-0.171764	0.241650	0.077270
35302	-4.784993	-2.889589	8.035301	0.951915	-0.171707	0.241658	0.077301
35303	-4.812520	-2.852568	8.100680	0.951923	-0.171638	0.241667	0.077334
35304	-4.805985	-2.770420	8.145292	0.951931	-0.171618	0.241649	0.077336
35305	-4.800073	-2.855256	8.114550	0.951909	-0.171684	0.241691	0.077328
35306	-4.805250	-2.896462	8.091057	0.951890	-0.171749	0.241725	0.077307
35307	-4.803002	-2.854137	8.097684	0.951862	-0.171813	0.241790	0.077303
35308	-4.807036	-2.878246	8.062141	0.951833	-0.171878	0.241863	0.077290
35309	-4.796286	-2.897069	8.072534	0.951806	-0.171921	0.241944	0.077269
35310	-4.816499	-2.936135	8.048915	0.951791	-0.171933	0.241995	0.077274
35311	-4.799533	-2.896110	8.070948	0.951802	-0.171870	0.241988	0.077297
35312	-4.809813	-2.838462	8.095957	0.951815	-0.171818	0.241972	0.077307
35313	-4.813525	-2.866266	8.090367	0.951801	-0.171831	0.242008	0.077337
35314	-4.799378	-2.861936	8.061145	0.951805	-0.171820	0.242002	0.077331
35315	-4.815389	-2.865298	8.089601	0.951808	-0.171815	0.241994	0.077335
35316	-4.803845	-2.892248	8.069768	0.951810	-0.171810	0.241988	0.077339
35317	-4.805118	-2.900564	8.038217	0.951818	-0.171778	0.241970	0.077362
35318	-4.803768	-2.878459	8.087010	0.951841	-0.171718	0.241920	0.077376
35319	-4.816023	-2.846968	8.092472	0.951849	-0.171671	0.241912	0.077405
35320	-4.801915	-2.847403	8.092629	0.951858	-0.171666	0.241876	0.077413
35321	-4.802158	-2.844569	8.077943	0.951851	-0.171697	0.241879	0.077432
35322	-4.805596	-2.873181	8.072252	0.951854	-0.171703	0.241864	0.077425
35323	-4.779975	-2.906723	8.081498	0.951861	-0.171685	0.241837	0.077463
35324	-4.805957	-2.862822	8.103554	0.951864	-0.171689	0.241806	0.077513
35325	-4.792069	-2.863812	8.103393	0.951858	-0.171711	0.241802	0.077551
35326	-4.792506	-2.852093	8.119591	0.951830	-0.171769	0.241853	0.077599
35327	-4.794163	-2.849919	8.103835	0.951798	-0.171844	0.241917	0.077634
35328	-4.801423	-2.905140	8.077383	0.951760	-0.171915	0.241990	0.077714
35329	-4.842222	-2.852765	8.055008	0.951747	-0.171941	0.242010	0.077748
35330	-4.800573	-2.862134	8.083397	0.951731	-0.171983	0.242031	0.077792
35331	-4.816205	-2.858157	8.068005	0.951713	-0.172024	0.242058	0.077840
35332	-4.831459	-2.847776	8.098536	0.951699	-0.172071	0.242066	0.077875
35333	-4.807250	-2.891104	8.075646	0.951683	-0.172107	0.242092	0.077914
35334	-4.820413	-2.860897	8.080084	0.951674	-0.172123	0.242105	0.077943
35335	-4.795324	-2.892544	8.074183	0.951652	-0.172187	0.242141	0.077962
35336	-4.825234	-2.878826	8.089661	0.951621	-0.172279	0.242194	0.077973
35337	-4.811457	-2.866997	8.090768	0.951578	-0.172385	0.242276	0.078005
35338	-4.839557	-2.825257	8.110786	0.951524	-0.172529	0.242375	0.078045
35339	-4.817865	-2.882264	8.069197	0.951463	-0.172703	0.242485	0.078054
35340	-4.848158	-2.867281	8.069301	0.951422	-0.172835	0.242557	0.078037
35341	-4.822577	-2.895125	8.033871	0.951400	-0.172933	0.242580	0.078020
35342	-4.809567	-2.900226	8.047351	0.951387	-0.172992	0.242593	0.078003
35343	-4.823021	-2.873399	8.066020	0.951371	-0.173047	0.242614	0.078009
35344	-4.795673	-2.879664	8.079614	0.951347	-0.173134	0.242653	0.077992
35345	-4.826207	-2.875460	8.063379	0.951310	-0.173243	0.242721	0.077991
35346	-4.815563	-2.903991	8.042406	0.951295	-0.173303	0.242749	0.077953
35347	-4.803117	-2.911476	8.070319	0.951277	-0.173367	0.242777	0.077942
35348	-4.819191	-2.910736	8.069021	0.951254	-0.173429	0.242821	0.077949
35349	-4.836339	-2.921445	8.050628	0.951235	-0.173471	0.242867	0.077943
35350	-4.820777	-2.894449	8.055039	0.951211	-0.173519	0.242921	0.077957
35351	-4.836813	-2.893112	8.053964	0.951202	-0.173543	0.242934	0.077977
35352	-4.824047	-2.897293	8.067672	0.951181	-0.173592	0.242978	0.077981
35353	-4.825990	-2.900374	8.081018	0.951165	-0.173642	0.243010	0.077971
35354	-4.816826	-2.945248	8.072162	0.951148	-0.173695	0.243033	0.077996
35355	-4.827458	-2.892962	8.035952	0.951131	-0.173725	0.243065	0.078031
35356	-4.829373	-2.895420	8.049539	0.951117	-0.173747	0.243092	0.078067
35357	-4.833504	-2.923833	8.043398	0.951104	-0.173768	0.243119	0.078101
35358	-4.830770	-2.880615	8.050747	0.951091	-0.173794	0.243138	0.078134
35359	-4.851692	-2.927236	8.070553	0.951077	-0.173810	0.243167	0.078180
35360	-4.832962	-2.870610	8.081000	0.951075	-0.173789	0.243178	0.078220
35361	-4.836089	-2.895602	8.061067	0.951083	-0.173758	0.243161	0.078247
35362	-4.824033	-2.912630	8.073048	0.951094	-0.173690	0.243155	0.078283
35363	-4.823090	-2.893941	8.061426	0.951100	-0.173634	0.243155	0.078327
35364	-4.867024	-2.885308	8.046646	0.951119	-0.173562	0.243128	0.078347
35365	-4.824927	-2.902095	8.045055	0.951142	-0.173480	0.243088	0.078375
35366	-4.823258	-2.876832	8.079806	0.951163	-0.173403	0.243047	0.078409
35367	-4.853094	-2.881148	8.048457	0.951185	-0.173322	0.243013	0.078428
35368	-4.824835	-2.884991	8.063590	0.951198	-0.173263	0.242999	0.078450
35369	-4.840862	-2.893423	8.046647	0.951217	-0.173177	0.242974	0.078487
35370	-4.840498	-2.882276	8.078816	0.951249	-0.173078	0.242914	0.078501
35371	-4.825922	-2.881731	8.079723	0.951272	-0.172994	0.242880	0.078513
35372	-4.826232	-2.879918	8.080184	0.951291	-0.172919	0.242854	0.078531
35373	-4.841277	-2.876919	8.080258	0.951305	-0.172866	0.242836	0.078536
35374	-4.842048	-2.875512	8.080297	0.951310	-0.172816	0.242843	0.078559
35375	-4.827181	-2.869933	8.051943	0.951332	-0.172725	0.242812	0.078582
35376	-4.842030	-2.869091	8.066978	0.951371	-0.172628	0.242729	0.078589
35377	-4.827950	-2.873875	8.096920	0.951401	-0.172537	0.242677	0.078584
35378	-4.843594	-2.884897	8.094920	0.951435	-0.172447	0.242608	0.078581
35379	-4.798466	-2.882010	8.067710	0.951473	-0.172343	0.242532	0.078584
35380	-4.811989	-2.875860	8.054205	0.951514	-0.172238	0.242449	0.078575
35381	-4.826747	-2.877425	8.084043	0.951560	-0.172111	0.242362	0.078565
35382	-4.825132	-2.863387	8.102313	0.951601	-0.171995	0.242287	0.078549
35383	-4.821893	-2.832732	8.108553	0.951632	-0.171910	0.242227	0.078544
35384	-4.810789	-2.872916	8.087182	0.951662	-0.171828	0.242170	0.078532
35385	-4.823595	-2.846503	8.121523	0.951678	-0.171770	0.242157	0.078515
35386	-4.809545	-2.846809	8.121809	0.951689	-0.171731	0.242147	0.078494
35387	-4.839599	-2.852243	8.090005	0.951704	-0.171703	0.242122	0.078454
35388	-4.824354	-2.841478	8.107244	0.951717	-0.171685	0.242101	0.078397
35389	-4.826926	-2.867377	8.087506	0.951728	-0.171689	0.242071	0.078345
35390	-4.811074	-2.854861	8.090129	0.951737	-0.171722	0.242045	0.078250
35391	-4.785464	-2.887050	8.084611	0.951725	-0.171754	0.242084	0.078198
35392	-4.813357	-2.858406	8.103117	0.951727	-0.171770	0.242088	0.078133
35393	-4.797168	-2.822672	8.138830	0.951689	-0.171853	0.242186	0.078102
35394	-4.829123	-2.827968	8.090319	0.951636	-0.171998	0.242319	0.078024
35395	-4.815651	-2.805814	8.107319	0.951567	-0.172167	0.242494	0.077941
35396	-4.834682	-2.818763	8.087015	0.951507	-0.172328	0.242648	0.077837
35397	-4.816144	-2.904900	8.039969	0.951452	-0.172463	0.242800	0.077746
35398	-4.809341	-2.962548	8.013032	0.951422	-0.172525	0.242885	0.077704
35399	-4.780162	-2.942146	8.046508	0.951417	-0.172521	0.242916	0.077676
35400	-4.837698	-2.918807	8.033358	0.951418	-0.172501	0.242926	0.077675
35401	-4.826714	-2.947589	8.028293	0.951433	-0.172425	0.242913	0.077708
35402	-4.822821	-2.902507	8.036830	0.951464	-0.172325	0.242853	0.077740
35403	-4.823636	-2.914181	8.035494	0.951514	-0.172173	0.242748	0.077783
35404	-4.819789	-2.891181	8.011453	0.951588	-0.171976	0.242585	0.077832
35405	-4.816773	-2.878673	8.045674	0.951672	-0.171817	0.242351	0.077881
35406	-4.817087	-2.909761	8.072290	0.951761	-0.171674	0.242090	0.077924
35407	-4.775447	-2.805503	8.154256	0.951837	-0.171524	0.241876	0.077994
35408	-4.806662	-2.687233	8.190615	0.951861	-0.171513	0.241780	0.078017
35409	-4.819560	-2.832348	8.089742	0.951857	-0.171574	0.241767	0.077970
35410	-4.809274	-2.874723	8.067185	0.951857	-0.171587	0.241760	0.077965
35411	-4.808234	-2.853628	8.115513	0.951870	-0.171584	0.241717	0.077947
35412	-4.808644	-2.853716	8.115239	0.951865	-0.171620	0.241720	0.077914
35413	-4.795991	-2.867594	8.097601	0.951851	-0.171679	0.241752	0.077861
35414	-4.813141	-2.888030	8.047840	0.951835	-0.171747	0.241780	0.077816
35415	-4.798669	-2.878929	8.064060	0.951823	-0.171832	0.241783	0.077770
35416	-4.827518	-2.865691	8.079773	0.951816	-0.171922	0.241762	0.077723
35417	-4.786612	-2.900246	8.074637	0.951823	-0.171999	0.241699	0.077659
35418	-4.785950	-2.898859	8.059901	0.951826	-0.172059	0.241655	0.077631
35419	-4.796250	-2.848493	8.113277	0.951838	-0.172092	0.241590	0.077608
35420	-4.787019	-2.914200	8.057101	0.951847	-0.172114	0.241544	0.077590
35421	-4.774172	-2.932238	8.069315	0.951870	-0.172074	0.241484	0.077587
35422	-4.784230	-2.886350	8.077691	0.951901	-0.171992	0.241408	0.077629
35423	-4.798463	-2.882902	8.078383	0.951934	-0.171888	0.241348	0.077634
35424	-4.781415	-2.856165	8.099105	0.951960	-0.171804	0.241293	0.077678
35425	-4.796833	-2.864635	8.082541	0.951983	-0.171740	0.241234	0.077714
35426	-4.797926	-2.874808	8.065972	0.951997	-0.171684	0.241204	0.077762
35427	-4.796112	-2.849546	8.100628	0.952028	-0.171599	0.241134	0.077786
35428	-4.797753	-2.871088	8.067400	0.952054	-0.171512	0.241081	0.077829
35429	-4.797461	-2.868951	8.068334	0.952088	-0.171414	0.240999	0.077876
35430	-4.782980	-2.879931	8.052832	0.952135	-0.171301	0.240881	0.077913
35431	-4.807676	-2.830159	8.136409	0.952183	-0.171188	0.240763	0.077949
35432	-4.777380	-2.828602	8.123495	0.952209	-0.171118	0.240707	0.077958
35433	-4.796519	-2.868865	8.115738	0.952213	-0.171089	0.240703	0.077983
35434	-4.796636	-2.864996	8.101437	0.952230	-0.171024	0.240675	0.077997
35435	-4.782074	-2.862258	8.087535	0.952245	-0.170953	0.240661	0.078017
35436	-4.793738	-2.821260	8.124270	0.952263	-0.170893	0.240627	0.078030
35437	-4.780156	-2.830584	8.093235	0.952270	-0.170850	0.240624	0.078054
35438	-4.791754	-2.787540	8.115113	0.952273	-0.170828	0.240620	0.078073
35439	-4.784116	-2.848352	8.119127	0.952277	-0.170820	0.240622	0.078042
35440	-4.800138	-2.856035	8.086927	0.952264	-0.170865	0.240635	0.078058
35441	-4.828881	-2.838955	8.088393	0.952260	-0.170894	0.240639	0.078035
35442	-4.798262	-2.816192	8.107771	0.952251	-0.170942	0.240647	0.078011
35443	-4.789000	-2.861496	8.099312	0.952237	-0.171010	0.240666	0.077975
35444	-4.776762	-2.884558	8.050337	0.952235	-0.171033	0.240664	0.077955
35445	-4.762541	-2.885901	8.050405	0.952249	-0.171026	0.240613	0.077959
35446	-4.790405	-2.854932	8.144306	0.952258	-0.171028	0.240576	0.077959
35447	-4.777421	-2.868157	8.127153	0.952246	-0.171067	0.240587	0.077984
35448	-4.777280	-2.853995	8.128934	0.952229	-0.171112	0.240618	0.078003
35449	-4.804914	-2.829542	8.086823	0.952211	-0.171183	0.240644	0.077982
35450	-4.780007	-2.855438	8.126824	0.952190	-0.171259	0.240671	0.077989
35451	-4.780342	-2.851544	8.096782	0.952165	-0.171371	0.240693	0.077977
35452	-4.781335	-2.844109	8.126754	0.952132	-0.171503	0.240736	0.077962
35453	-4.759547	-2.912899	8.069271	0.952096	-0.171625	0.240793	0.077949
35454	-4.789350	-2.896931	8.069683	0.952059	-0.171716	0.240871	0.077970
35455	-4.789201	-2.880746	8.056570	0.952044	-0.171768	0.240892	0.077970
35456	-4.802304	-2.853151	8.075453	0.952049	-0.171765	0.240871	0.077979
35457	-4.801560	-2.831937	8.123675	0.952047	-0.171784	0.240862	0.077984
35458	-4.774000	-2.838034	8.137764	0.952025	-0.171866	0.240896	0.077972
35459	-4.794378	-2.887680	8.082289	0.951989	-0.171994	0.240952	0.077950
35460	-4.812539	-2.911076	8.046416	0.951965	-0.172065	0.241001	0.077937
35461	-4.801237	-2.929900	8.057515	0.951960	-0.172091	0.241002	0.077945
35462	-4.814737	-2.904424	8.091062	0.951969	-0.172062	0.240983	0.077952
35463	-4.782616	-2.874754	8.082688	0.951989	-0.171986	0.240949	0.077979
35464	-4.810623	-2.856001	8.085126	0.952000	-0.171960	0.240916	0.078013
35465	-4.784127	-2.877287	8.112165	0.952020	-0.171902	0.240875	0.078021
35466	-4.783672	-2.873264	8.098228	0.952039	-0.171841	0.240834	0.078046
35467	-4.785378	-2.886279	8.095917	0.952051	-0.171800	0.240809	0.078064
35468	-4.769941	-2.872358	8.098845	0.952059	-0.171772	0.240796	0.078079
35469	-4.799321	-2.865788	8.083815	0.952062	-0.171746	0.240791	0.078111
35470	-4.798821	-2.859478	8.055080	0.952076	-0.171701	0.240753	0.078147
35471	-4.786840	-2.878866	8.082056	0.952104	-0.171611	0.240707	0.078152
35472	-4.797523	-2.835061	8.104754	0.952132	-0.171531	0.240651	0.078164
35473	-4.784049	-2.847007	8.088354	0.952142	-0.171499	0.240632	0.078166
35474	-4.788449	-2.879767	8.112055	0.952155	-0.171451	0.240611	0.078178
35475	-4.789525	-2.896935	8.049464	0.952173	-0.171400	0.240574	0.078183
35476	-4.800084	-2.844420	8.103229	0.952191	-0.171344	0.240537	0.078201
35477	-4.771898	-2.848915	8.118296	0.952197	-0.171321	0.240527	0.078210
35478	-4.785330	-2.830078	8.105881	0.952191	-0.171337	0.240541	0.078199
35479	-4.787666	-2.844378	8.102765	0.952191	-0.171352	0.240539	0.078183
35480	-4.765293	-2.904886	8.092255	0.952179	-0.171394	0.240550	0.078192
35481	-4.779420	-2.888576	8.094164	0.952187	-0.171354	0.240546	0.078199
35482	-4.793145	-2.871642	8.096527	0.952198	-0.171322	0.240522	0.078214
35483	-4.779022	-2.872290	8.096840	0.952206	-0.171301	0.240503	0.078216
35484	-4.789953	-2.827194	8.104156	0.952205	-0.171305	0.240507	0.078206
35485	-4.780711	-2.871558	8.096103	0.952200	-0.171323	0.240517	0.078194
35486	-4.768088	-2.884706	8.078805	0.952197	-0.171329	0.240531	0.078183
35487	-4.783617	-2.882635	8.078159	0.952198	-0.171311	0.240534	0.078197
35488	-4.798348	-2.868690	8.094492	0.952191	-0.171314	0.240554	0.078210
35489	-4.800604	-2.880050	8.076827	0.952181	-0.171323	0.240590	0.078212
35490	-4.798466	-2.839358	8.098135	0.952157	-0.171358	0.240647	0.078247
35491	-4.815977	-2.851935	8.094449	0.952153	-0.171361	0.240659	0.078250
35492	-4.802132	-2.852958	8.094480	0.952163	-0.171344	0.240631	0.078247
35493	-4.788267	-2.856370	8.109324	0.952180	-0.171322	0.240581	0.078245
35494	-4.774430	-2.860029	8.124065	0.952184	-0.171338	0.240557	0.078243
35495	-4.779406	-2.902791	8.115992	0.952184	-0.171337	0.240557	0.078244
35496	-4.805951	-2.865737	8.091026	0.952158	-0.171382	0.240617	0.078280
35497	-4.789406	-2.835758	8.081319	0.952157	-0.171375	0.240624	0.078279
35498	-4.790427	-2.835406	8.080838	0.952149	-0.171393	0.240638	0.078290
35499	-4.779248	-2.856221	8.106931	0.952154	-0.171398	0.240621	0.078279
35500	-4.795112	-2.856970	8.120711	0.952154	-0.171398	0.240625	0.078265
35501	-4.782552	-2.870089	8.103405	0.952145	-0.171416	0.240652	0.078252
35502	-4.809449	-2.835596	8.092936	0.952139	-0.171419	0.240674	0.078248
35503	-4.795865	-2.836946	8.092716	0.952137	-0.171437	0.240673	0.078239
35504	-4.774125	-2.902510	8.111466	0.952148	-0.171447	0.240633	0.078209
35505	-4.787000	-2.874591	8.130489	0.952143	-0.171441	0.240655	0.078206
35506	-4.786446	-2.866406	8.086756	0.952141	-0.171438	0.240668	0.078199
35507	-4.786156	-2.860511	8.057706	0.952153	-0.171393	0.240658	0.078190
35508	-4.771318	-2.842470	8.121041	0.952171	-0.171346	0.240620	0.078182
35509	-4.775938	-2.875676	8.144543	0.952165	-0.171363	0.240634	0.078171
35510	-4.789208	-2.855199	8.117062	0.952143	-0.171439	0.240683	0.078126
35511	-4.791451	-2.874564	8.052925	0.952121	-0.171504	0.240731	0.078102
35512	-4.791447	-2.863297	8.069235	0.952128	-0.171533	0.240691	0.078083
35513	-4.780763	-2.889634	8.124444	0.952134	-0.171559	0.240650	0.078079
35514	-4.794031	-2.871509	8.111778	0.952120	-0.171604	0.240680	0.078057
35515	-4.780476	-2.871067	8.096535	0.952096	-0.171668	0.240736	0.078040
35516	-4.793169	-2.839142	8.085759	0.952076	-0.171743	0.240768	0.078013
35517	-4.794862	-2.842560	8.099213	0.952069	-0.171797	0.240768	0.077989
35518	-4.783193	-2.870851	8.079340	0.952069	-0.171841	0.240741	0.077974
35519	-4.772396	-2.894809	8.119820	0.952064	-0.171873	0.240737	0.077966
35520	-4.815682	-2.885654	8.089366	0.952053	-0.171941	0.240739	0.077949
35521	-4.759287	-2.904171	8.072835	0.952038	-0.171985	0.240758	0.077974
35522	-4.799893	-2.867933	8.062566	0.952063	-0.171942	0.240691	0.077975
35523	-4.799792	-2.860247	8.109030	0.952089	-0.171898	0.240616	0.077987
35524	-4.770859	-2.865238	8.124552	0.952107	-0.171895	0.240550	0.077978
35525	-4.756922	-2.875994	8.093235	0.952100	-0.171928	0.240557	0.077966
35526	-4.788552	-2.887418	8.089298	0.952091	-0.171958	0.240568	0.077974
35527	-4.804328	-2.885857	8.088259	0.952079	-0.171980	0.240594	0.077990
35528	-4.788883	-2.870201	8.076199	0.952078	-0.171975	0.240600	0.077991
35529	-4.778615	-2.902075	8.085578	0.952091	-0.171925	0.240583	0.078003
35530	-4.792837	-2.896594	8.071177	0.952112	-0.171870	0.240532	0.078024
35531	-4.805124	-2.867415	8.090989	0.952131	-0.171806	0.240491	0.078062
35532	-4.777485	-2.883084	8.089655	0.952156	-0.171728	0.240436	0.078099
35533	-4.775105	-2.855264	8.109906	0.952176	-0.171672	0.240385	0.078138
35534	-4.790959	-2.857335	8.138868	0.952194	-0.171615	0.240347	0.078153
35535	-4.791056	-2.862771	8.093219	0.952201	-0.171587	0.240336	0.078171
35536	-4.793125	-2.876036	8.090644	0.952211	-0.171549	0.240317	0.078182
35537	-4.780192	-2.881333	8.120028	0.952229	-0.171483	0.240289	0.078194
35538	-4.777931	-2.860310	8.094119	0.952242	-0.171425	0.240268	0.078227
35539	-4.766422	-2.879595	8.121062	0.952261	-0.171351	0.240235	0.078259
35540	-4.780752	-2.873756	8.106715	0.952277	-0.171285	0.240214	0.078278
35541	-4.766886	-2.873660	8.107225	0.952285	-0.171226	0.240213	0.078316
35542	-4.793917	-2.840211	8.111807	0.952295	-0.171164	0.240211	0.078327
35543	-4.796417	-2.853143	8.109110	0.952295	-0.171124	0.240232	0.078347
35544	-4.781758	-2.848552	8.080340	0.952299	-0.171095	0.240239	0.078346
35545	-4.799921	-2.865353	8.106078	0.952305	-0.171059	0.240235	0.078360
35546	-4.799186	-2.850168	8.108518	0.952309	-0.171051	0.240229	0.078359
35547	-4.771669	-2.864489	8.091987	0.952312	-0.171031	0.240226	0.078363
35548	-4.800556	-2.848937	8.108139	0.952318	-0.171024	0.240213	0.078354
35549	-4.773203	-2.856655	8.137504	0.952324	-0.171014	0.240199	0.078343
35550	-4.773523	-2.863039	8.091407	0.952321	-0.171027	0.240199	0.078346
35551	-4.787905	-2.849229	8.107803	0.952328	-0.171015	0.240182	0.078344
35552	-4.774809	-2.855347	8.137021	0.952347	-0.170996	0.240131	0.078308
35553	-4.760418	-2.856468	8.137425	0.952354	-0.170988	0.240110	0.078308
35554	-4.746383	-2.866609	8.106453	0.952373	-0.170948	0.240071	0.078290
35555	-4.762111	-2.875799	8.089310	0.952382	-0.170909	0.240055	0.078304
35556	-4.760185	-2.848309	8.109098	0.952398	-0.170851	0.240027	0.078330
35557	-4.788148	-2.829421	8.111274	0.952412	-0.170804	0.239996	0.078350
35558	-4.775982	-2.846614	8.123730	0.952427	-0.170760	0.239966	0.078358
35559	-4.775588	-2.842639	8.109692	0.952446	-0.170692	0.239933	0.078378
35560	-4.762679	-2.856859	8.107973	0.952468	-0.170620	0.239889	0.078399
35561	-4.762495	-2.855324	8.108622	0.952496	-0.170561	0.239817	0.078406
35562	-4.775356	-2.837959	8.111467	0.952518	-0.170492	0.239775	0.078416
35563	-4.747735	-2.853973	8.110119	0.952542	-0.170433	0.239722	0.078426
35564	-4.775426	-2.834923	8.112488	0.952560	-0.170367	0.239686	0.078449
35565	-4.763791	-2.854443	8.139497	0.952578	-0.170318	0.239647	0.078456
35566	-4.777378	-2.846485	8.110636	0.952593	-0.170266	0.239616	0.078488
35567	-4.765340	-2.863463	8.123121	0.952608	-0.170205	0.239596	0.078497
35568	-4.764518	-2.850378	8.140496	0.952632	-0.170157	0.239538	0.078483
35569	-4.750963	-2.862861	8.124133	0.952641	-0.170128	0.239521	0.078492
35570	-4.763113	-2.831529	8.128909	0.952650	-0.170086	0.239512	0.078509
35571	-4.777144	-2.814646	8.130868	0.952643	-0.170082	0.239534	0.078532
35572	-4.779549	-2.826352	8.113050	0.952623	-0.170128	0.239585	0.078520
35573	-4.766673	-2.828387	8.112259	0.952603	-0.170180	0.239630	0.078508
35574	-4.783389	-2.829824	8.125239	0.952584	-0.170237	0.239668	0.078496
35575	-4.771191	-2.844025	8.107481	0.952562	-0.170319	0.239698	0.078499
35576	-4.761079	-2.875044	8.101623	0.952546	-0.170369	0.239728	0.078487
35577	-4.761143	-2.863780	8.117847	0.952546	-0.170410	0.239715	0.078443
35578	-4.758271	-2.832899	8.107986	0.952540	-0.170430	0.239727	0.078436
35579	-4.763742	-2.875940	8.099739	0.952536	-0.170453	0.239731	0.078422
35580	-4.776702	-2.848038	8.118501	0.952537	-0.170453	0.239728	0.078420
35581	-4.761587	-2.844117	8.089785	0.952542	-0.170437	0.239720	0.078423
35582	-4.764601	-2.860236	8.101390	0.952543	-0.170420	0.239728	0.078425
35583	-4.763786	-2.836153	8.134952	0.952538	-0.170439	0.239726	0.078439
35584	-4.779511	-2.834385	8.133954	0.952526	-0.170451	0.239763	0.078449
35585	-4.766869	-2.847570	8.116820	0.952530	-0.170449	0.239756	0.078419
35586	-4.782228	-2.845623	8.116094	0.952529	-0.170445	0.239764	0.078424
35587	-4.784774	-2.850476	8.144251	0.952513	-0.170479	0.239805	0.078418
35588	-4.783486	-2.831620	8.116906	0.952492	-0.170548	0.239849	0.078395
35589	-4.774783	-2.877077	8.108526	0.952475	-0.170619	0.239863	0.078397
35590	-4.770763	-2.832449	8.100799	0.952458	-0.170694	0.239891	0.078363
35591	-4.789502	-2.851044	8.125588	0.952437	-0.170756	0.239929	0.078362
35592	-4.777193	-2.865405	8.107839	0.952415	-0.170844	0.239956	0.078352
35593	-4.776030	-2.840077	8.126399	0.952406	-0.170883	0.239972	0.078322
35594	-4.780156	-2.869298	8.120413	0.952390	-0.170946	0.239987	0.078333
35595	-4.780834	-2.867362	8.105000	0.952369	-0.171011	0.240022	0.078352
35596	-4.797348	-2.868682	8.118115	0.952360	-0.171047	0.240031	0.078349
35597	-4.782329	-2.856109	8.120414	0.952352	-0.171078	0.240039	0.078354
35598	-4.784312	-2.867978	8.102730	0.952338	-0.171116	0.240057	0.078385
35599	-4.785437	-2.867976	8.102066	0.952333	-0.171130	0.240073	0.078371
35600	-4.770070	-2.855278	8.104621	0.952334	-0.171155	0.240050	0.078368
35601	-4.771425	-2.857882	8.118607	0.952326	-0.171188	0.240052	0.078388
35602	-4.771973	-2.846159	8.134757	0.952306	-0.171227	0.240095	0.078414
35603	-4.786725	-2.839906	8.104465	0.952287	-0.171294	0.240116	0.078441
35604	-4.776461	-2.870766	8.098760	0.952271	-0.171352	0.240130	0.078462
35605	-4.762870	-2.872533	8.098546	0.952268	-0.171371	0.240120	0.078484
35606	-4.792584	-2.868991	8.097481	0.952274	-0.171368	0.240096	0.078491
35607	-4.750290	-2.885103	8.081591	0.952278	-0.171358	0.240085	0.078500
35608	-4.779856	-2.880642	8.080937	0.952298	-0.171279	0.240058	0.078511
35609	-4.778253	-2.855156	8.115550	0.952328	-0.171191	0.240002	0.078508
35610	-4.778943	-2.855909	8.130584	0.952348	-0.171122	0.239967	0.078525
35611	-4.793133	-2.850352	8.116066	0.952362	-0.171073	0.239944	0.078534
35612	-4.779103	-2.851083	8.116482	0.952366	-0.171066	0.239930	0.078544
35613	-4.779959	-2.860009	8.084791	0.952363	-0.171082	0.239928	0.078551
35614	-4.767349	-2.866368	8.113806	0.952371	-0.171080	0.239898	0.078551
35615	-4.767887	-2.866145	8.113569	0.952369	-0.171102	0.239891	0.078543
35616	-4.767367	-2.851550	8.115645	0.952362	-0.171106	0.239914	0.078559
35617	-4.781450	-2.844657	8.085942	0.952364	-0.171119	0.239904	0.078533
35618	-4.757384	-2.881763	8.110049	0.952362	-0.171151	0.239895	0.078517
35619	-4.770349	-2.863389	8.097383	0.952361	-0.171170	0.239884	0.078518
35620	-4.771618	-2.865636	8.111555	0.952366	-0.171167	0.239862	0.078528
35621	-4.772964	-2.867840	8.125699	0.952364	-0.171181	0.239860	0.078531
35622	-4.757069	-2.852515	8.113800	0.952358	-0.171204	0.239865	0.078540
35623	-4.801233	-2.845421	8.097295	0.952339	-0.171260	0.239903	0.078528
35624	-4.776711	-2.878020	8.091848	0.952318	-0.171324	0.239946	0.078515
35625	-4.792489	-2.876915	8.090509	0.952309	-0.171367	0.239950	0.078516
35626	-4.750368	-2.884484	8.105666	0.952306	-0.171391	0.239946	0.078515
35627	-4.748989	-2.867603	8.093341	0.952301	-0.171410	0.239952	0.078519
35628	-4.761730	-2.846231	8.066125	0.952294	-0.171401	0.239983	0.078524
35629	-4.781872	-2.868464	8.120239	0.952293	-0.171395	0.239996	0.078511
35630	-4.782292	-2.865552	8.105297	0.952285	-0.171408	0.240014	0.078518
35631	-4.768175	-2.864321	8.090765	0.952279	-0.171419	0.240027	0.078536
35632	-4.772443	-2.892390	8.085104	0.952276	-0.171398	0.240048	0.078549
35633	-4.786961	-2.877903	8.101566	0.952291	-0.171354	0.240018	0.078555
35634	-4.755681	-2.862952	8.091058	0.952318	-0.171278	0.239969	0.078543
35635	-4.757804	-2.878032	8.103598	0.952346	-0.171187	0.239918	0.078561
35636	-4.774349	-2.881438	8.147377	0.952383	-0.171046	0.239862	0.078586
35637	-4.771517	-2.868296	8.090795	0.952419	-0.170887	0.239828	0.078609
35638	-4.772888	-2.879098	8.089584	0.952469	-0.170692	0.239754	0.078639
35639	-4.799789	-2.848156	8.124386	0.952521	-0.170490	0.239677	0.078692
35640	-4.771903	-2.861951	8.124252	0.952559	-0.170328	0.239618	0.078757
35641	-4.755829	-2.846070	8.128347	0.952590	-0.170192	0.239584	0.078780
35642	-4.770921	-2.841693	8.128544	0.952605	-0.170083	0.239584	0.078833
35643	-4.774972	-2.867954	8.123752	0.952613	-0.170002	0.239588	0.078900
35644	-4.787404	-2.835365	8.128600	0.952622	-0.169919	0.239592	0.078963
35645	-4.801294	-2.817252	8.130902	0.952631	-0.169848	0.239587	0.079015
35646	-4.774526	-2.833237	8.129379	0.952641	-0.169794	0.239580	0.079034
35647	-4.773934	-2.808338	8.163056	0.952632	-0.169785	0.239610	0.079079
35648	-4.765846	-2.852519	8.155035	0.952607	-0.169820	0.239670	0.079117
35649	-4.744914	-2.880964	8.208625	0.952505	-0.170011	0.239890	0.079273
35650	-4.820011	-2.862186	8.130024	0.952365	-0.170262	0.240177	0.079538
35651	-4.828518	-2.879612	8.122263	0.952194	-0.170651	0.240454	0.079912
35652	-4.836062	-2.895667	8.099778	0.952028	-0.171067	0.240675	0.080343
35653	-4.785181	-2.921112	8.094168	0.951881	-0.171470	0.240818	0.080794
35654	-4.769947	-2.871123	8.099664	0.951685	-0.172036	0.241028	0.081275
35655	-4.697920	-2.958621	8.083327	0.951501	-0.172431	0.241342	0.081650
35656	-4.731146	-2.926557	8.067469	0.951337	-0.172658	0.241714	0.081986
35657	-4.784581	-3.033907	8.099713	0.951143	-0.172844	0.242208	0.082388
35658	-4.792638	-2.913058	8.010885	0.950948	-0.173005	0.242668	0.082946
35659	-4.776806	-2.685209	8.062490	0.950782	-0.173139	0.243052	0.083441
35660	-4.925419	-2.631769	8.029160	0.950655	-0.173195	0.243406	0.083737
35661	-4.863820	-2.659530	8.053625	0.950526	-0.173328	0.243766	0.083875
35662	-4.876237	-2.714134	8.024556	0.950445	-0.173375	0.244034	0.083924
35663	-4.963289	-2.553561	8.016037	0.950408	-0.173465	0.244124	0.083896
35664	-4.935904	-2.828046	7.938059	0.950444	-0.173463	0.244014	0.083814
35665	-4.752033	-2.921770	7.934682	0.950592	-0.173206	0.243694	0.083597
35666	-4.745849	-3.054654	7.886367	0.950858	-0.172471	0.243291	0.083259
35667	-4.876988	-2.939190	8.070745	0.951220	-0.171627	0.242624	0.082815
35668	-4.870603	-2.760376	8.067657	0.951611	-0.170911	0.241756	0.082337
35669	-4.857778	-2.785813	8.089052	0.951968	-0.170505	0.240800	0.081851
35670	-4.865646	-2.756060	8.118878	0.952303	-0.170395	0.239705	0.081402
35671	-4.701507	-2.830705	8.330757	0.952456	-0.170756	0.238965	0.081026
35672	-4.771406	-2.919145	8.241197	0.952528	-0.171117	0.238520	0.080728
35673	-4.798137	-2.998096	8.079265	0.952578	-0.171363	0.238204	0.080554
35674	-4.753842	-2.920193	8.097206	0.952656	-0.171507	0.237825	0.080446
35675	-4.694952	-2.827165	8.193319	0.952721	-0.171686	0.237455	0.080388
35676	-4.712852	-3.040684	8.127045	0.952755	-0.171846	0.237205	0.080372
35677	-4.773007	-3.077765	8.118967	0.952808	-0.171773	0.237033	0.080409
35678	-4.765313	-3.024308	8.085069	0.952847	-0.171561	0.237018	0.080444
35679	-4.745188	-2.954802	8.128304	0.952877	-0.171315	0.237080	0.080438
35680	-4.782467	-2.873008	8.140810	0.952907	-0.171059	0.237149	0.080421
35681	-4.749502	-2.923300	8.177272	0.952881	-0.170809	0.237447	0.080386
35682	-4.752562	-3.017033	8.143333	0.952821	-0.170547	0.237883	0.080366
35683	-4.815499	-3.214902	8.072087	0.952717	-0.170051	0.238639	0.080407
35684	-4.754669	-2.802785	8.141471	0.952671	-0.169255	0.239360	0.080486
35685	-4.781705	-2.652442	8.161840	0.952653	-0.168358	0.240038	0.080556
35686	-4.804072	-2.723211	8.160169	0.952632	-0.167554	0.240677	0.080580
35687	-4.838011	-2.784978	8.115322	0.952638	-0.166631	0.241287	0.080602
35688	-4.793450	-2.801989	8.112905	0.952660	-0.165701	0.241829	0.080631
35689	-4.811280	-2.596174	8.158213	0.952672	-0.164852	0.242349	0.080669
35690	-4.771982	-2.404364	8.233575	0.952668	-0.164173	0.242820	0.080682
35691	-4.772558	-2.453481	8.222693	0.952604	-0.163903	0.243273	0.080618
35692	-4.813825	-2.637415	8.113202	0.952521	-0.163868	0.243654	0.080524
35693	-4.837144	-2.639673	8.137480	0.952418	-0.163956	0.244003	0.080505
35694	-4.839127	-2.825879	8.163119	0.952288	-0.164132	0.244401	0.080481
35695	-4.871458	-2.672263	8.136144	0.952143	-0.164338	0.244839	0.080438
35696	-4.889103	-3.017275	8.045460	0.952012	-0.164439	0.245294	0.080398
35697	-4.900056	-2.653450	8.113532	0.951930	-0.164315	0.245656	0.080513
35698	-4.795114	-2.423996	8.198027	0.951819	-0.164307	0.246059	0.080617
35699	-4.751915	-2.402605	8.110890	0.951663	-0.164636	0.246445	0.080603
35700	-4.795350	-2.595250	8.072205	0.951479	-0.165275	0.246777	0.080453
35701	-4.867398	-2.830668	7.934892	0.951313	-0.165872	0.247081	0.080257
35702	-4.923865	-3.015470	7.941264	0.951212	-0.166291	0.247264	0.080017
35703	-4.910499	-2.868692	7.993036	0.951154	-0.166561	0.247349	0.079891
35704	-4.913620	-2.864978	8.036439	0.951126	-0.166697	0.247398	0.079790
35705	-4.894752	-2.704749	8.033134	0.951100	-0.166845	0.247403	0.079774
35706	-4.867500	-2.530489	8.196463	0.951061	-0.167109	0.247409	0.079659
35707	-4.919902	-2.742073	8.111157	0.950952	-0.167600	0.247561	0.079466
35708	-4.970898	-2.938095	8.012254	0.950844	-0.168017	0.247733	0.079332
35709	-4.901779	-2.703319	8.038504	0.950772	-0.168331	0.247796	0.079339
35710	-4.935689	-2.463013	8.104277	0.950720	-0.168709	0.247734	0.079355
35711	-4.861776	-2.671880	8.177297	0.950618	-0.169205	0.247792	0.079332
35712	-4.896563	-2.716474	8.134271	0.950468	-0.169846	0.247955	0.079254
35713	-4.951781	-3.161273	7.827478	0.950334	-0.170368	0.248130	0.079187
35714	-4.961299	-2.944263	7.920988	0.950315	-0.170585	0.248047	0.079219
35715	-4.931890	-2.885690	8.067120	0.950317	-0.170650	0.247947	0.079367
35716	-4.924847	-2.849640	8.029450	0.950326	-0.170705	0.247809	0.079570
35717	-4.926979	-2.877377	8.025304	0.950355	-0.170677	0.247654	0.079766
35718	-4.921425	-2.844943	8.017290	0.950382	-0.170666	0.247507	0.079921
35719	-4.890366	-2.856843	7.988749	0.950418	-0.170645	0.247341	0.080051
35720	-4.902767	-2.799665	8.102845	0.950447	-0.170627	0.247218	0.080128
35721	-4.887015	-2.843210	8.008049	0.950481	-0.170625	0.247052	0.080235
35722	-4.875787	-2.855929	8.082476	0.950537	-0.170538	0.246869	0.080331
35723	-4.860195	-2.758354	8.041867	0.950570	-0.170488	0.246746	0.080410
35724	-4.873014	-2.690340	8.171862	0.950556	-0.170599	0.246730	0.080405
35725	-4.926466	-2.844458	7.961743	0.950502	-0.170833	0.246783	0.080382
35726	-4.928766	-3.121991	7.913494	0.950523	-0.170843	0.246669	0.080454
35727	-4.919453	-2.961885	7.868939	0.950629	-0.170595	0.246380	0.080618
35728	-4.851899	-2.816733	8.140543	0.950770	-0.170295	0.245995	0.080763
35729	-4.834039	-2.416678	8.257167	0.950806	-0.170332	0.245827	0.080775
35730	-4.835373	-2.714434	8.146301	0.950738	-0.170645	0.245900	0.080691
35731	-4.912698	-3.092074	7.851119	0.950698	-0.170851	0.245917	0.080673
35732	-4.954344	-2.944033	7.888995	0.950786	-0.170687	0.245652	0.080795
35733	-4.827582	-2.696394	8.122095	0.950899	-0.170540	0.245259	0.080960
35734	-4.836759	-2.791333	8.167444	0.950951	-0.170617	0.244986	0.081023
35735	-4.778839	-2.557139	8.226877	0.950912	-0.170919	0.244936	0.080986
35736	-4.889944	-2.932834	8.018894	0.950821	-0.171283	0.245050	0.080942
35737	-4.955556	-3.059851	7.827480	0.950838	-0.171392	0.244901	0.080962
35738	-4.880172	-2.930646	7.901958	0.950966	-0.171231	0.244481	0.081069
35739	-4.834530	-2.762017	8.131967	0.951117	-0.170962	0.244040	0.081197
35740	-4.843128	-2.723100	8.200874	0.951194	-0.170811	0.243819	0.081275
35741	-4.807156	-2.810841	8.174286	0.951191	-0.170878	0.243782	0.081286
35742	-4.862431	-2.955022	8.011473	0.951191	-0.170855	0.243782	0.081332
35743	-4.885123	-3.051675	7.919825	0.951273	-0.170537	0.243631	0.081494
35744	-4.872887	-2.862682	7.911933	0.951449	-0.170060	0.243192	0.081746
35745	-4.788518	-2.709009	8.231588	0.951618	-0.169642	0.242746	0.081975
35746	-4.816347	-2.599412	8.266660	0.951697	-0.169438	0.242527	0.082126
35747	-4.835864	-2.841304	8.062595	0.951741	-0.169335	0.242361	0.082318
35748	-4.829439	-2.924332	8.051057	0.951831	-0.169026	0.242134	0.082576
35749	-4.862776	-2.853121	8.064273	0.951966	-0.168556	0.241808	0.082932
35750	-4.874855	-2.846084	8.114418	0.952173	-0.167819	0.241367	0.083339
35751	-4.845178	-2.847683	8.211546	0.952400	-0.166913	0.240951	0.083770
35752	-4.773798	-2.406168	8.308444	0.952559	-0.166255	0.240668	0.084082
35753	-4.651725	-2.237861	8.404004	0.952490	-0.166532	0.240719	0.084167
35754	-4.795593	-2.946712	8.142498	0.952336	-0.167106	0.240915	0.084212
35755	-4.887337	-3.241923	7.923430	0.952412	-0.166599	0.240891	0.084431
35756	-4.878196	-3.019455	8.023564	0.952606	-0.165604	0.240696	0.084756
35757	-4.839215	-2.778689	8.203666	0.952789	-0.164588	0.240525	0.085158
35758	-4.723170	-2.512856	8.329775	0.952810	-0.164040	0.240688	0.085511
35759	-4.714152	-2.255243	8.397584	0.952572	-0.164592	0.241236	0.085561
35760	-4.829643	-2.643118	8.216301	0.952241	-0.165433	0.241932	0.085661
35761	-4.898288	-2.688054	8.017911	0.952004	-0.165885	0.242497	0.085826
35762	-4.872342	-2.649534	8.005344	0.951868	-0.166039	0.242850	0.086034
35763	-4.793548	-2.573111	8.004801	0.951769	-0.166334	0.242986	0.086181
35764	-4.700443	-2.436875	7.971994	0.951704	-0.166861	0.242893	0.086135
35765	-4.633177	-2.456137	8.120558	0.951582	-0.167874	0.242756	0.085904
35766	-4.608216	-2.138771	8.276861	0.951367	-0.169523	0.242614	0.085449
35767	-4.871565	-2.768795	8.088095	0.951079	-0.171467	0.242595	0.084824
35768	-5.093878	-3.440785	7.876052	0.950923	-0.172644	0.242581	0.084224
35769	-4.914695	-3.325668	7.935378	0.950928	-0.173035	0.242414	0.083850
35770	-4.842204	-3.222027	8.033960	0.951015	-0.173004	0.242181	0.083598
35771	-4.810149	-3.001052	8.047751	0.951137	-0.172763	0.241908	0.083492
35772	-4.794696	-2.789646	8.058940	0.951251	-0.172477	0.241676	0.083462
35773	-4.816480	-2.721993	8.146463	0.951368	-0.172169	0.241465	0.083382
35774	-4.786862	-2.766104	8.068364	0.951451	-0.171943	0.241337	0.083265
35775	-4.812253	-2.717395	8.166289	0.951544	-0.171773	0.241172	0.083036
35776	-4.816805	-2.784974	8.141247	0.951653	-0.171594	0.241020	0.082598
35777	-4.809890	-2.754854	8.148990	0.951788	-0.171337	0.240851	0.082060
35778	-4.820336	-3.027633	8.029760	0.951945	-0.170954	0.240672	0.081567
35779	-4.787066	-2.885650	8.089045	0.952095	-0.170499	0.240507	0.081252
35780	-4.760285	-2.839787	8.027632	0.952274	-0.170018	0.240228	0.080990
35781	-4.724866	-2.792306	8.115637	0.952403	-0.169679	0.240048	0.080715
35782	-4.780328	-2.910541	8.094893	0.952534	-0.169265	0.239913	0.080431
35783	-4.776891	-2.902861	8.099678	0.952717	-0.168664	0.239705	0.080150
35784	-4.780669	-2.805881	8.208829	0.952906	-0.168087	0.239448	0.079887
35785	-4.761439	-2.800362	8.214661	0.953050	-0.167714	0.239206	0.079678
35786	-4.773994	-2.838899	8.136359	0.953177	-0.167388	0.238982	0.079511
35787	-4.784851	-2.852916	8.092204	0.953334	-0.166952	0.238708	0.079369
35788	-4.726589	-2.757000	8.160267	0.953538	-0.166407	0.238317	0.079236
35789	-4.686493	-2.690037	8.237444	0.953711	-0.165951	0.237992	0.079096
35790	-4.605580	-2.742373	8.355573	0.953788	-0.165740	0.237862	0.078991
35791	-4.619868	-2.995175	8.284871	0.953761	-0.165661	0.238028	0.078988
35792	-4.570496	-3.124308	8.324209	0.953662	-0.165494	0.238487	0.079150
35793	-4.369670	-3.171365	8.664820	0.953393	-0.165451	0.239442	0.079597
35794	-3.713285	-3.779291	9.089436	0.952845	-0.165299	0.241389	0.080586
35795	-3.426591	-3.273121	10.003061	0.951675	-0.164800	0.245673	0.082460
35796	-3.428685	-3.724385	10.741313	0.948830	-0.165543	0.254880	0.085757
35797	-3.239138	-3.233838	11.789208	0.943672	-0.168035	0.270192	0.090800
35798	-2.683717	-3.509810	12.261554	0.935157	-0.172871	0.293279	0.097900
35799	-2.838258	-4.495903	12.073333	0.922347	-0.179411	0.324914	0.107321
35800	-5.481950	-4.943642	12.171277	0.904708	-0.187923	0.363186	0.119516
35801	-10.344935	-6.551289	12.053407	0.884124	-0.200409	0.400419	0.133514
35802	-11.276612	-8.548375	10.766099	0.864316	-0.210909	0.431509	0.149252
35803	-11.402588	-8.046772	8.467416	0.845726	-0.216660	0.458230	0.166828
35804	-23.750397	-7.268224	6.451139	0.828967	-0.214471	0.483047	0.182980
35805	-27.173900	-3.424091	11.721105	0.824665	-0.217210	0.485133	0.193372
35806	-16.015448	-3.887342	7.794584	0.824618	-0.226321	0.476428	0.204452
35807	-11.004091	-4.347099	5.149938	0.824300	-0.234093	0.467913	0.216305
35808	-8.693687	-3.354002	4.788837	0.821780	-0.239206	0.464049	0.228293
35809	-9.093335	-2.878580	5.276082	0.817027	-0.243823	0.464329	0.239615
35810	-10.402011	-3.279979	6.064620	0.811451	-0.249046	0.466275	0.249220
35811	-11.361810	-3.570720	6.645177	0.807573	-0.253934	0.466819	0.255778
35812	-10.673424	-2.639498	6.568911	0.806424	-0.258126	0.464429	0.259531
35813	-8.787384	-1.788269	5.872840	0.806880	-0.262258	0.460107	0.261660
35814	-7.846707	-1.570690	4.919161	0.807796	-0.266161	0.455548	0.262868
35815	-6.967924	-1.677254	4.113177	0.809088	-0.269331	0.451463	0.262714
35816	-6.951603	-1.650914	3.807140	0.810843	-0.271239	0.448020	0.261231
35817	-7.358519	-1.366815	4.066958	0.813295	-0.272655	0.444021	0.258950
35818	-7.679083	-0.894305	4.020731	0.816806	-0.274671	0.438119	0.255801
35819	-6.747740	-1.185482	3.047731	0.821462	-0.276591	0.430808	0.251200
35820	-6.222496	-0.836337	2.126760	0.826772	-0.276989	0.423936	0.244958
35821	-6.445785	-0.151811	1.801403	0.832221	-0.276073	0.417542	0.238434
35822	-6.988253	0.711817	1.693137	0.837656	-0.275198	0.410295	0.232930
35823	-6.560308	0.480759	0.911119	0.842943	-0.274606	0.402258	0.228534
35824	-6.091597	0.304797	0.488964	0.847794	-0.273603	0.395039	0.224346
35825	-6.651959	0.340265	0.583889	0.852232	-0.272341	0.388763	0.219987
35826	-6.584516	0.329935	0.666943	0.856396	-0.271205	0.382760	0.215702
35827	-5.760684	0.574388	0.617058	0.860134	-0.270132	0.377297	0.211767
35828	-4.976477	0.515559	0.648294	0.862962	-0.269460	0.373008	0.208695
35829	-5.013485	0.216302	0.932319	0.864964	-0.269090	0.370105	0.206032
35830	-5.310240	-0.036979	1.088316	0.866499	-0.268867	0.368114	0.203427
35831	-5.395747	0.087951	1.380202	0.867770	-0.268426	0.366874	0.200815
35832	-5.492684	0.587351	1.812448	0.868929	-0.268025	0.365761	0.198350
35833	-4.858219	1.111046	1.834136	0.869940	-0.267703	0.364691	0.196316
35834	-3.840426	1.689147	1.555588	0.870355	-0.267384	0.364579	0.195115
35835	-2.847486	2.440827	1.492819	0.869749	-0.267307	0.366163	0.194957
35836	-2.424621	2.065185	1.492825	0.867950	-0.267712	0.369600	0.195930
35837	-2.833345	0.964255	1.699532	0.865569	-0.267164	0.374870	0.197197
35838	-3.662869	0.901850	2.200672	0.863020	-0.266248	0.380762	0.198315
35839	-3.557168	1.311864	2.369438	0.860446	-0.265800	0.386280	0.199425
35840	-3.138592	1.514959	2.371826	0.857582	-0.265446	0.392083	0.200904
35841	-3.012999	1.595653	2.950202	0.853982	-0.265138	0.399001	0.203016
35842	-3.293654	0.607067	3.550787	0.849807	-0.264545	0.407079	0.205256
35843	-4.634538	-0.099391	3.938936	0.845555	-0.263215	0.415737	0.207162
35844	-5.274402	-0.199976	3.842185	0.841848	-0.261011	0.423602	0.209108
35845	-6.128494	0.583235	3.860148	0.838551	-0.258862	0.429934	0.212083
35846	-5.857359	1.107789	3.757524	0.835310	-0.258104	0.434538	0.216371
35847	-5.834817	0.311030	3.880012	0.831682	-0.257789	0.439008	0.221637
35848	-6.362386	0.668891	4.361966	0.827661	-0.257518	0.444091	0.226817
35849	-6.666748	0.888358	3.972498	0.823093	-0.258447	0.449578	0.231521
35850	-7.976209	-1.119621	3.375766	0.818587	-0.258874	0.455685	0.235054
35851	-9.434954	-1.899590	3.994927	0.816001	-0.255546	0.461172	0.236979
35852	-10.679223	-0.580409	5.468804	0.815623	-0.250247	0.463645	0.239099
35853	-10.448801	0.257458	4.938093	0.816275	-0.246045	0.462440	0.243527
35854	-9.511042	-0.852157	3.309790	0.816797	-0.241856	0.460789	0.249043
35855	-8.827191	-1.615158	2.373880	0.817079	-0.235803	0.461515	0.252552
35856	-8.646742	-1.038541	3.217627	0.816915	-0.228848	0.465502	0.252164
35857	-9.636248	-0.982770	4.658215	0.816191	-0.223382	0.470492	0.250140
35858	-10.865955	-2.034609	5.431234	0.815964	-0.218563	0.473877	0.248743
35859	-11.426755	-2.012753	5.214141	0.817405	-0.213445	0.473996	0.248230
35860	-9.351692	-1.178253	3.694375	0.819932	-0.207760	0.472169	0.248200
35861	-7.920459	-0.459988	3.536023	0.821728	-0.202170	0.471629	0.247904
35862	-9.384216	-1.898841	4.427758	0.822687	-0.197341	0.472624	0.246717
35863	-10.367715	-3.126968	5.857821	0.823864	-0.192688	0.474006	0.243797
35864	-10.359899	-3.113615	6.452285	0.825792	-0.188951	0.474206	0.239779
35865	-8.707233	-3.139470	5.935263	0.828559	-0.185740	0.473099	0.234878
35866	-7.080772	-2.259313	5.773664	0.831715	-0.182335	0.472181	0.228143
35867	-7.431432	-1.397547	6.744650	0.834997	-0.179509	0.471331	0.220010
35868	-8.894625	-2.595326	7.879908	0.838658	-0.176937	0.469358	0.212250
35869	-9.885797	-3.307870	8.315440	0.843198	-0.173671	0.465478	0.205390
35870	-9.655798	-3.000988	7.928457	0.848567	-0.170642	0.459246	0.199770
35871	-8.134537	-2.994720	6.729249	0.854040	-0.168406	0.451839	0.195185
35872	-6.679152	-2.639506	6.535461	0.858912	-0.167378	0.445171	0.189941
35873	-6.461250	-3.321399	7.686030	0.863078	-0.167752	0.439992	0.182654
35874	-7.659365	-4.365950	8.866089	0.867181	-0.168656	0.435405	0.173130
35875	-8.866207	-5.019197	9.504062	0.871839	-0.168695	0.430293	0.162133
35876	-10.107085	-4.936053	9.492544	0.877554	-0.166946	0.423337	0.151041
35877	-9.026710	-3.455040	9.007379	0.884001	-0.164129	0.414446	0.140852
35878	-7.510053	-2.259199	8.370749	0.889985	-0.161775	0.405303	0.132231
35879	-6.792648	-2.194436	7.820585	0.894986	-0.160225	0.397087	0.125103
35880	-5.401915	-2.571526	6.767822	0.898727	-0.158360	0.391032	0.119605
35881	-5.283445	-3.420543	5.722047	0.900422	-0.155010	0.389533	0.116085
35882	-7.954448	-5.676908	5.510603	0.900613	-0.148777	0.392260	0.113553
35883	-11.071108	-7.022240	5.328426	0.901291	-0.137048	0.395997	0.109902
35884	-20.329580	-0.492128	7.742908	0.903169	-0.122723	0.398009	0.103985
35885	-14.982349	6.191510	9.071292	0.911128	-0.122985	0.380814	0.098493
35886	-9.655804	5.232421	3.067946	0.915422	-0.134150	0.367034	0.096401
35887	-7.964536	-4.605674	7.155773	0.918034	-0.155059	0.352071	0.095998
35888	-5.562063	-9.323089	8.044504	0.922592	-0.164018	0.336415	0.093526
35889	-6.283003	-0.223632	9.095864	0.927823	-0.166527	0.321775	0.088736
35890	-5.602447	-4.172720	7.711018	0.932107	-0.169856	0.308759	0.083627
35891	-5.910972	-4.361907	7.462400	0.936358	-0.170569	0.296396	0.079303
35892	-5.510106	-3.205562	8.006243	0.940120	-0.171587	0.284432	0.076364
35893	-5.484096	-3.255543	8.114749	0.943636	-0.171860	0.273106	0.073676
35894	-5.088648	-3.663306	8.424452	0.946819	-0.171918	0.262515	0.071168
35895	-4.099365	-1.360087	10.495073	0.949044	-0.173457	0.253872	0.069118
35896	-2.671596	-5.265430	9.637094	0.950406	-0.174968	0.248091	0.067571
35897	-4.690230	-3.788737	8.572048	0.950927	-0.175384	0.245777	0.067612
35898	-4.638466	-3.362117	8.402099	0.950854	-0.176797	0.245015	0.067725
35899	-4.743169	-2.999303	8.183537	0.950623	-0.178235	0.244851	0.067797
35900	-4.734209	-3.315236	7.885684	0.950386	-0.179482	0.244856	0.067818
35901	-4.739649	-3.313133	7.777025	0.950292	-0.180198	0.244674	0.067891
35902	-4.765063	-3.302840	7.776288	0.950339	-0.180277	0.244412	0.067955
35903	-4.743202	-3.211230	7.857129	0.950505	-0.179911	0.244018	0.068031
35904	-4.724219	-3.182730	7.913633	0.950726	-0.179268	0.243624	0.068051
35905	-4.773520	-3.050867	8.027877	0.950976	-0.178477	0.243233	0.068038
35906	-4.798820	-2.966704	8.150147	0.951178	-0.177811	0.242931	0.068023
35907	-4.776486	-3.244147	7.929618	0.951346	-0.177153	0.242758	0.068021
35908	-4.819124	-2.946047	8.115230	0.951537	-0.176371	0.242578	0.068013
35909	-4.821482	-2.990099	8.111360	0.951701	-0.175669	0.242451	0.067999
35910	-4.828735	-2.940404	8.077551	0.951843	-0.175021	0.242363	0.067986
35911	-4.792000	-2.833229	8.115910	0.951971	-0.174408	0.242318	0.067933
35912	-4.785511	-2.888665	8.154043	0.952082	-0.173855	0.242305	0.067848
35913	-4.784459	-2.865276	8.159607	0.952172	-0.173413	0.242293	0.067754
35914	-4.770210	-2.907391	8.095565	0.952240	-0.173044	0.242302	0.067713
35915	-4.768772	-2.883546	8.085586	0.952307	-0.172644	0.242343	0.067640
35916	-4.788699	-2.857863	8.163019	0.952354	-0.172270	0.242453	0.067541
35917	-4.804699	-2.895971	8.080999	0.952381	-0.171936	0.242622	0.067409
35918	-4.792994	-2.927454	8.032020	0.952417	-0.171592	0.242762	0.067265
35919	-4.796649	-2.899763	8.080730	0.952455	-0.171292	0.242862	0.067125
35920	-4.785121	-2.935339	8.046207	0.952478	-0.171094	0.242948	0.067001
35921	-4.761088	-2.977348	8.041627	0.952516	-0.170853	0.242997	0.066896
35922	-4.763272	-2.974324	8.057434	0.952578	-0.170514	0.243004	0.066846
35923	-4.801359	-2.903649	8.051630	0.952660	-0.170120	0.242974	0.066794
35924	-4.774429	-2.891403	8.102088	0.952753	-0.169714	0.242910	0.066738
35925	-4.773306	-2.907880	8.072008	0.952866	-0.169251	0.242795	0.066719
35926	-4.768548	-2.844656	8.099230	0.952961	-0.168865	0.242694	0.066707
35927	-4.755411	-2.868150	8.098548	0.953043	-0.168522	0.242619	0.066671
35928	-4.785457	-2.861389	8.113314	0.953107	-0.168198	0.242589	0.066678
35929	-4.783274	-2.826532	8.119887	0.953167	-0.167902	0.242557	0.066690
35930	-4.756873	-2.864911	8.102346	0.953213	-0.167651	0.242541	0.066720
35931	-4.786537	-2.844866	8.118486	0.953259	-0.167400	0.242525	0.066750
35932	-4.786161	-2.825759	8.121904	0.953291	-0.167189	0.242544	0.066754
35933	-4.789581	-2.862564	8.101585	0.953325	-0.166976	0.242556	0.066767
35934	-4.774535	-2.857172	8.089370	0.953370	-0.166737	0.242532	0.066807
35935	-4.802702	-2.810363	8.124575	0.953427	-0.166466	0.242492	0.066817
35936	-4.758060	-2.807351	8.114796	0.953471	-0.166235	0.242467	0.066850
35937	-4.747463	-2.847066	8.110655	0.953522	-0.165976	0.242434	0.066887
35938	-4.749128	-2.844040	8.126640	0.953564	-0.165731	0.242418	0.066947
35939	-4.804290	-2.790105	8.130616	0.953607	-0.165487	0.242402	0.067006
35940	-4.791688	-2.764158	8.180595	0.953640	-0.165275	0.242403	0.067045
35941	-4.806114	-2.781318	8.132548	0.953659	-0.165118	0.242426	0.067088
35942	-4.794918	-2.807933	8.129892	0.953691	-0.164947	0.242402	0.067144
35943	-4.806136	-2.783956	8.103335	0.953736	-0.164732	0.242371	0.067138
35944	-4.779446	-2.774720	8.152249	0.953781	-0.164553	0.242314	0.067141
35945	-4.764917	-2.797577	8.121126	0.953813	-0.164413	0.242278	0.067158
35946	-4.779926	-2.793290	8.120823	0.953836	-0.164281	0.242273	0.067171
35947	-4.780552	-2.778235	8.137994	0.953858	-0.164168	0.242256	0.067195
35948	-4.779809	-2.749070	8.157290	0.953879	-0.164072	0.242237	0.067208
35949	-4.784016	-2.802903	8.134512	0.953894	-0.164012	0.242213	0.067218
35950	-4.766065	-2.783998	8.109244	0.953921	-0.163916	0.242175	0.067212
35951	-4.781827	-2.757816	8.156588	0.953952	-0.163809	0.242131	0.067198
35952	-4.781973	-2.768369	8.140521	0.953970	-0.163746	0.242101	0.067194
35953	-4.782138	-2.766852	8.140939	0.953992	-0.163680	0.242056	0.067207
35954	-4.781883	-2.753062	8.158161	0.954024	-0.163614	0.241986	0.067170
35955	-4.794768	-2.748654	8.143259	0.954048	-0.163580	0.241927	0.067121
35956	-4.780957	-2.764194	8.142536	0.954070	-0.163585	0.241846	0.067090
35957	-4.766937	-2.780033	8.141832	0.954093	-0.163588	0.241758	0.067066
35958	-4.767273	-2.806650	8.123694	0.954127	-0.163564	0.241654	0.067020
35959	-4.763664	-2.752599	8.161965	0.954159	-0.163537	0.241558	0.066977
35960	-4.748417	-2.765847	8.146995	0.954181	-0.163517	0.241481	0.066986
35961	-4.718698	-2.780316	8.133066	0.954215	-0.163469	0.241394	0.066938
35962	-4.748321	-2.766543	8.162668	0.954235	-0.163460	0.241322	0.066933
35963	-4.746917	-2.764230	8.148417	0.954245	-0.163469	0.241277	0.066933
35964	-4.763927	-2.766900	8.176286	0.954252	-0.163493	0.241231	0.066936
35965	-4.749613	-2.793281	8.143943	0.954258	-0.163516	0.241202	0.066903
35966	-4.746310	-2.762434	8.133527	0.954262	-0.163522	0.241189	0.066881
35967	-4.749218	-2.791378	8.128964	0.954265	-0.163554	0.241155	0.066876
35968	-4.749488	-2.779325	8.145273	0.954268	-0.163586	0.241132	0.066846
35969	-4.735324	-2.780879	8.146022	0.954272	-0.163597	0.241108	0.066837
35970	-4.749173	-2.765022	8.146834	0.954268	-0.163628	0.241097	0.066857
35971	-4.764584	-2.763658	8.145292	0.954262	-0.163650	0.241107	0.066851
35972	-4.740098	-2.784977	8.173566	0.954259	-0.163669	0.241104	0.066862
35973	-4.779477	-2.759999	8.128966	0.954264	-0.163675	0.241084	0.066851
35974	-4.738882	-2.792858	8.127506	0.954266	-0.163680	0.241068	0.066862
35975	-4.752507	-2.764101	8.145202	0.954279	-0.163663	0.241026	0.066880
35976	-4.740729	-2.781647	8.158477	0.954281	-0.163684	0.241001	0.066887
35977	-4.754549	-2.777920	8.142800	0.954284	-0.163684	0.240980	0.066920
35978	-4.753701	-2.762922	8.144906	0.954293	-0.163674	0.240944	0.066938
35979	-4.754004	-2.762592	8.144841	0.954299	-0.163686	0.240916	0.066929
35980	-4.756695	-2.778884	8.157082	0.954311	-0.163680	0.240876	0.066913
35981	-4.751849	-2.745516	8.132552	0.954321	-0.163677	0.240833	0.066935
35982	-4.740009	-2.775491	8.129273	0.954328	-0.163690	0.240795	0.066949
35983	-4.740100	-2.762804	8.145904	0.954341	-0.163680	0.240751	0.066940
35984	-4.728248	-2.792877	8.142602	0.954343	-0.163708	0.240712	0.066979
35985	-4.742782	-2.778789	8.158257	0.954359	-0.163699	0.240649	0.067002
35986	-4.756103	-2.762720	8.159431	0.954362	-0.163727	0.240616	0.067010
35987	-4.728698	-2.804822	8.125911	0.954366	-0.163747	0.240584	0.067025
35988	-4.759220	-2.791149	8.154933	0.954381	-0.163714	0.240547	0.067026
35989	-4.726760	-2.762405	8.146850	0.954383	-0.163719	0.240525	0.067066
35990	-4.730910	-2.805019	8.140426	0.954395	-0.163696	0.240478	0.067107
35991	-4.715258	-2.791139	8.143813	0.954407	-0.163676	0.240436	0.067140
35992	-4.757808	-2.759037	8.159684	0.954421	-0.163638	0.240404	0.067155
35993	-4.743623	-2.771938	8.144240	0.954430	-0.163624	0.240369	0.067188
35994	-4.731862	-2.789153	8.157643	0.954440	-0.163608	0.240334	0.067198
