// Start Time: Unknown
// Update Rate: 60.0Hz
// Filter Profile: human (46.1)
// Option Flags: AHS Disabled ICC Disabled 
// Firmware Version: 4.3.5
PacketCounter	Acc_X	Acc_Y	Acc_Z	Quat_q0	Quat_q1	Quat_q2	Quat_q3
43442	-1.578477	-2.406381	9.446629	0.639743	-0.016193	0.146980	-0.754231
43443	-1.634845	-2.296100	9.484042	0.639402	-0.015574	0.147012	-0.754527
43444	-1.668062	-2.357249	9.300630	0.639054	-0.015232	0.147203	-0.754791
43445	-1.603855	-2.552421	9.227580	0.638728	-0.014907	0.147364	-0.755042
43446	-1.625765	-2.383311	9.313454	0.638450	-0.014432	0.147383	-0.755283
43447	-1.703296	-2.268536	9.385341	0.638243	-0.014048	0.147523	-0.755437
43448	-1.630575	-2.426722	9.361046	0.638002	-0.013830	0.147809	-0.755589
43449	-1.596188	-2.435965	9.347749	0.637765	-0.013396	0.147905	-0.755778
43450	-1.740791	-2.303340	9.377262	0.637551	-0.012911	0.148004	-0.755948
43451	-1.705666	-2.306417	9.399559	0.637337	-0.012633	0.148262	-0.756082
43452	-1.679334	-2.442018	9.392452	0.637142	-0.012357	0.148445	-0.756215
43453	-1.703506	-2.364334	9.442340	0.636965	-0.011998	0.148495	-0.756360
43454	-1.731276	-2.386120	9.386420	0.636804	-0.011706	0.148516	-0.756496
43455	-1.665255	-2.416207	9.389286	0.636647	-0.011252	0.148409	-0.756656
43456	-1.650373	-2.272650	9.466554	0.636513	-0.010788	0.148244	-0.756808
43457	-1.737990	-2.252304	9.455889	0.636416	-0.010547	0.148291	-0.756884
43458	-1.677925	-2.401182	9.390884	0.636324	-0.010330	0.148333	-0.756956
43459	-1.695258	-2.291112	9.364233	0.636223	-0.009902	0.148195	-0.757074
43460	-1.759140	-2.239344	9.444917	0.636104	-0.009549	0.148174	-0.757183
43461	-1.661652	-2.243266	9.460515	0.635985	-0.009292	0.148241	-0.757272
43462	-1.697511	-2.309391	9.320576	0.635890	-0.009045	0.148244	-0.757354
43463	-1.761475	-2.305163	9.238729	0.635828	-0.008713	0.148069	-0.757445
43464	-1.747307	-2.174044	9.244368	0.635846	-0.008483	0.147987	-0.757448
43465	-1.651462	-2.152405	9.281009	0.635898	-0.008272	0.147970	-0.757410
43466	-1.624881	-2.170061	9.186501	0.635951	-0.008019	0.147958	-0.757371
43467	-1.681427	-2.124000	9.187756	0.636028	-0.007698	0.148032	-0.757295
43468	-1.728006	-2.064071	9.161580	0.636088	-0.007396	0.148214	-0.757212
43469	-1.634979	-2.076988	9.140626	0.636146	-0.007124	0.148605	-0.757089
43470	-1.641890	-2.110744	9.082300	0.636237	-0.006917	0.149129	-0.756912
43471	-1.632157	-2.185754	9.065139	0.636358	-0.006654	0.149722	-0.756695
43472	-1.768377	-2.200928	9.170020	0.636428	-0.006206	0.150361	-0.756513
43473	-1.824537	-2.234304	9.251323	0.636470	-0.005624	0.150889	-0.756377
43474	-1.735903	-2.359111	9.119898	0.636604	-0.004911	0.151257	-0.756196
43475	-1.837970	-2.182242	9.142990	0.636764	-0.004027	0.151587	-0.756001
43476	-1.972268	-2.042372	9.115914	0.636970	-0.003603	0.152303	-0.755685
43477	-1.858764	-2.229770	8.964725	0.637229	-0.003624	0.153473	-0.755230
43478	-1.817693	-2.387992	8.862932	0.637565	-0.003457	0.154657	-0.754706
43479	-1.798407	-2.458203	8.847366	0.637929	-0.002740	0.155456	-0.754236
43480	-1.814544	-2.388072	8.713733	0.638294	-0.001380	0.155833	-0.753853
43481	-1.931954	-2.081455	8.615202	0.638665	0.000121	0.156320	-0.753440
43482	-1.913683	-2.077958	8.435572	0.639103	0.001286	0.157245	-0.752874
43483	-1.800955	-2.230011	8.329582	0.639549	0.002501	0.158458	-0.752238
43484	-2.008362	-2.088587	8.513638	0.639946	0.003965	0.159937	-0.751581
43485	-2.217547	-2.145747	8.831493	0.640249	0.005394	0.161861	-0.750902
43486	-2.090307	-2.419827	9.104677	0.640346	0.007017	0.163974	-0.750347
43487	-2.043288	-2.451578	9.306445	0.640310	0.008874	0.166102	-0.749890
43488	-2.357080	-2.441891	9.376687	0.640305	0.010524	0.168382	-0.749364
43489	-2.772846	-2.600534	9.578092	0.640313	0.011628	0.170920	-0.748766
43490	-2.725792	-2.739953	9.581897	0.640266	0.012357	0.173432	-0.748217
43491	-2.421181	-3.048383	9.647357	0.640336	0.013173	0.175516	-0.747657
43492	-2.503768	-2.895444	9.647532	0.640346	0.014684	0.176818	-0.747313
43493	-2.753748	-2.432284	9.575127	0.640294	0.016131	0.177965	-0.747055
43494	-2.954523	-2.480872	9.960394	0.640317	0.016559	0.179833	-0.746579
43495	-2.916873	-2.970190	10.198655	0.640246	0.016144	0.182240	-0.746065
43496	-2.690094	-3.516582	10.387956	0.639859	0.015848	0.184056	-0.745957
43497	-2.743192	-3.309745	10.578865	0.639198	0.015655	0.185272	-0.746227
43498	-2.955594	-3.323439	10.663378	0.638451	0.015478	0.185882	-0.746718
43499	-3.191886	-3.153963	10.797411	0.637516	0.015389	0.185792	-0.747541
43500	-2.859276	-3.201696	10.824644	0.636325	0.014721	0.185605	-0.748615
43501	-2.718938	-3.188285	10.981827	0.634924	0.013874	0.184987	-0.749972
43502	-2.928331	-2.776766	11.340565	0.633429	0.012309	0.184570	-0.751366
43503	-3.189508	-2.673692	11.799397	0.631960	0.008750	0.185214	-0.752493
43504	-3.072654	-3.267599	11.840196	0.630581	0.002966	0.186684	-0.753331
43505	-2.545874	-3.973381	11.257582	0.629096	-0.003779	0.187803	-0.754290
43506	-2.116898	-4.041778	10.433079	0.627345	-0.009720	0.187347	-0.755807
43507	-2.099318	-3.320641	9.392889	0.625353	-0.014542	0.185171	-0.757914
43508	-1.968366	-2.629421	8.467352	0.623288	-0.018225	0.181542	-0.760409
43509	-1.772336	-2.285990	7.773003	0.621372	-0.020610	0.176817	-0.763026
43510	-1.843056	-2.023091	7.662460	0.619904	-0.021666	0.171107	-0.765488
43511	-1.759722	-1.401142	7.669416	0.618879	-0.022077	0.165294	-0.767580
43512	-1.354680	-0.939186	7.527751	0.618152	-0.023149	0.161038	-0.769038
43513	-1.282180	-0.846893	7.300297	0.617616	-0.025165	0.159184	-0.769790
43514	-1.426400	-1.028289	7.258533	0.617390	-0.027994	0.159185	-0.769874
43515	-1.220838	-1.629074	7.146710	0.617552	-0.031053	0.160380	-0.769379
43516	-1.074719	-2.207438	7.283309	0.618083	-0.033418	0.161679	-0.768581
43517	-1.077745	-2.470511	7.522982	0.618861	-0.034679	0.162544	-0.767716
43518	-1.196434	-2.592925	7.828563	0.619800	-0.035143	0.163102	-0.766819
43519	-1.123688	-2.608228	7.949527	0.620695	-0.034978	0.163472	-0.766023
43520	-1.224283	-2.616576	8.235250	0.621571	-0.034310	0.163921	-0.765247
43521	-1.505284	-2.623205	8.706112	0.622371	-0.033907	0.165030	-0.764375
43522	-1.461850	-3.008081	8.898549	0.623092	-0.034014	0.166689	-0.763422
43523	-1.461789	-3.321734	8.972804	0.623753	-0.034100	0.168449	-0.762492
43524	-1.689445	-3.410828	9.147239	0.624341	-0.034229	0.170304	-0.761592
43525	-1.643552	-3.652336	9.311740	0.624747	-0.034246	0.172013	-0.760874
43526	-1.556266	-3.799950	9.487265	0.625000	-0.033963	0.173290	-0.760389
43527	-1.733280	-3.429430	9.555455	0.625119	-0.033504	0.174232	-0.760097
43528	-1.811196	-3.301975	9.597908	0.625100	-0.033623	0.175537	-0.759807
43529	-1.716214	-3.390556	9.540938	0.624854	-0.034060	0.177002	-0.759650
43530	-1.605064	-3.408293	9.495923	0.624519	-0.034479	0.178273	-0.759609
43531	-1.664096	-3.118829	9.412622	0.624227	-0.034595	0.179136	-0.759641
43532	-1.816082	-2.770585	9.294052	0.623870	-0.034885	0.180080	-0.759698
43533	-1.654633	-2.848247	9.052261	0.623338	-0.035439	0.181309	-0.759816
43534	-1.525139	-2.914954	8.870452	0.622822	-0.035644	0.182302	-0.759992
43535	-1.519171	-2.630845	8.778971	0.622408	-0.035438	0.183092	-0.760151
43536	-1.718613	-2.380906	8.760318	0.621977	-0.035411	0.184263	-0.760223
43537	-1.696080	-2.494008	8.721080	0.621497	-0.035724	0.185856	-0.760212
43538	-1.488885	-2.773033	8.717453	0.620955	-0.035500	0.187238	-0.760327
43539	-1.450741	-2.789276	8.723291	0.620573	-0.034405	0.187983	-0.760505
43540	-1.617733	-2.654434	8.668313	0.620523	-0.032714	0.188218	-0.760563
43541	-1.796604	-2.469422	8.587644	0.620815	-0.030972	0.188394	-0.760354
43542	-1.787857	-2.401288	8.581440	0.621423	-0.029853	0.189190	-0.759703
43543	-1.784139	-2.638778	8.381442	0.622602	-0.029172	0.190180	-0.758516
43544	-1.817602	-2.803466	8.051491	0.624622	-0.028502	0.190807	-0.756722
43545	-1.782090	-2.539757	7.577829	0.627598	-0.027790	0.191162	-0.754192
43546	-1.618792	-2.015783	7.429821	0.631643	-0.027372	0.191873	-0.750642
43547	-1.761008	-1.808998	7.201851	0.636184	-0.027723	0.194058	-0.746219
43548	-2.319751	-1.729050	6.922757	0.641086	-0.028461	0.197523	-0.741069
43549	-2.408285	-1.808940	6.684186	0.646807	-0.029971	0.202286	-0.734726
43550	-2.672459	-1.811350	6.633350	0.653892	-0.031273	0.208173	-0.726713
43551	-3.347929	-1.568733	6.690706	0.662453	-0.033198	0.215851	-0.716562
43552	-4.014421	-2.107969	7.058294	0.672223	-0.036757	0.225085	-0.704346
43553	-4.051636	-2.892297	6.971384	0.682581	-0.039721	0.234725	-0.690948
43554	-3.913821	-3.061190	6.669758	0.693234	-0.040725	0.244396	-0.676786
43555	-4.296266	-2.368401	6.637979	0.704616	-0.039921	0.254178	-0.661299
43556	-5.160902	-1.253601	7.088615	0.716996	-0.039392	0.265797	-0.643209
43557	-5.510702	-1.099081	7.177731	0.729977	-0.040135	0.280577	-0.621931
43558	-6.447593	-2.197947	6.681503	0.742824	-0.041473	0.297628	-0.598256
43559	-7.271256	-3.184671	6.989494	0.755750	-0.043708	0.313750	-0.573142
43560	-7.675568	-3.059733	7.304933	0.769045	-0.045377	0.327492	-0.547046
43561	-7.355246	-2.538071	7.347894	0.782590	-0.046487	0.340739	-0.518931
43562	-6.521206	-2.831956	6.721626	0.795865	-0.045700	0.354709	-0.488560
43563	-6.746066	-2.478789	6.516024	0.808424	-0.042222	0.368694	-0.456873
43564	-7.588002	-2.114007	6.360875	0.820173	-0.037417	0.382752	-0.423577
43565	-8.191831	-2.262379	5.833200	0.830991	-0.031990	0.396761	-0.388603
43566	-8.452530	-2.642075	5.275605	0.840322	-0.025590	0.411162	-0.352349
43567	-8.622903	-2.028961	4.693876	0.847650	-0.017823	0.426556	-0.314994
43568	-9.179724	-1.680730	4.533599	0.852774	-0.009836	0.443086	-0.276323
43569	-10.546635	-2.185579	4.140071	0.855391	-0.000846	0.460873	-0.236435
43570	-11.559312	-2.107846	3.573225	0.855764	0.009045	0.478627	-0.196223
43571	-11.324214	-2.594975	2.925538	0.854153	0.019615	0.495707	-0.155923
43572	-10.900811	-2.265926	2.214515	0.850149	0.031693	0.512511	-0.116506
43573	-12.060396	-1.844611	1.756951	0.843702	0.044662	0.529223	-0.078075
43574	-12.236798	-2.006130	1.366481	0.835126	0.056549	0.545633	-0.040642
43575	-10.971027	-2.154097	0.891982	0.824503	0.068957	0.561604	-0.006389
43576	-10.091677	-1.934970	0.884314	0.811733	0.083208	0.577627	0.022655
43577	-11.855421	-0.842501	1.340780	0.797499	0.100064	0.593208	0.045678
43578	-13.326436	0.832594	2.507124	0.783397	0.117033	0.606817	0.066070
43579	-12.902103	1.102807	3.265986	0.771110	0.130356	0.617229	0.086166
43580	-10.492224	0.287616	3.486207	0.760668	0.141470	0.625019	0.103542
43581	-8.525649	0.843647	2.456692	0.750810	0.153745	0.631768	0.116256
43582	-10.997157	-3.422400	1.604654	0.738923	0.168260	0.640763	0.122900
43583	-14.440411	-12.743104	5.389043	0.728770	0.184587	0.649264	0.115230
43584	-15.294321	-2.013751	5.773566	0.720545	0.198454	0.657678	0.094286
43585	-14.104741	8.307833	5.851869	0.717307	0.197929	0.662672	0.084622
43586	-9.304336	3.651837	3.314957	0.714897	0.191802	0.667155	0.083901
43587	-7.888752	4.630017	1.797756	0.707561	0.195874	0.674098	0.081137
43588	-9.425385	8.578435	1.770536	0.699580	0.200018	0.681074	0.081968
43589	-8.821921	3.817529	0.411782	0.692747	0.199762	0.687499	0.086851
43590	-7.491032	1.750901	-1.103940	0.683977	0.201711	0.695364	0.089204
43591	-7.065537	3.094331	-1.676834	0.673722	0.203824	0.704407	0.091463
43592	-6.937389	2.687893	-2.389242	0.662296	0.204951	0.714423	0.094654
43593	-7.608462	2.645530	-2.456507	0.649566	0.206762	0.725216	0.096824
43594	-8.097457	3.686769	-1.945822	0.636397	0.209135	0.735962	0.098086
43595	-8.365578	4.388878	-1.913069	0.623824	0.211103	0.745993	0.098862
43596	-8.305617	4.716462	-1.998434	0.612284	0.213005	0.754927	0.099108
43597	-8.319436	4.799513	-2.508639	0.601817	0.214993	0.762774	0.098846
43598	-8.840725	4.345253	-2.888447	0.592311	0.216884	0.769730	0.098208
43599	-9.162111	3.877365	-3.054452	0.583133	0.219460	0.776156	0.096824
43600	-9.495557	4.036444	-3.103498	0.574245	0.222734	0.782039	0.095117
43601	-9.822372	4.177282	-3.169372	0.566301	0.225814	0.787117	0.093587
43602	-9.701596	4.553054	-2.985927	0.559401	0.228601	0.791365	0.092490
43603	-9.312335	4.939221	-2.851552	0.553555	0.230809	0.794843	0.092355
43604	-9.272688	4.889657	-2.707226	0.549019	0.232134	0.797475	0.093406
43605	-9.344977	4.852111	-2.859602	0.545647	0.232961	0.799375	0.094858
43606	-9.746768	4.896011	-3.177639	0.543426	0.233345	0.800587	0.096432
43607	-10.173883	4.878760	-3.620742	0.542436	0.233541	0.801049	0.097684
43608	-10.177118	4.777120	-3.940314	0.542496	0.234049	0.800748	0.098601
43609	-9.940103	4.925160	-4.200585	0.543476	0.234898	0.799733	0.099422
43610	-9.808807	5.266557	-4.040275	0.545720	0.235295	0.797919	0.100757
43611	-9.648442	5.119094	-3.768629	0.549549	0.234664	0.795174	0.103084
43612	-9.431898	4.771739	-3.403031	0.554911	0.233632	0.791475	0.105152
43613	-9.351150	4.804384	-3.057181	0.561705	0.232474	0.786817	0.106595
43614	-9.166372	4.570069	-2.810437	0.570001	0.231175	0.781081	0.107562
43615	-8.790342	4.166380	-2.688454	0.579500	0.229858	0.774426	0.107744
43616	-8.251850	4.088977	-2.533411	0.589658	0.228326	0.767203	0.107567
43617	-8.112816	3.966889	-2.246215	0.600130	0.226474	0.759561	0.107803
43618	-8.158690	3.929724	-1.794586	0.610781	0.224276	0.751600	0.108366
43619	-8.318600	4.025333	-1.229439	0.621646	0.221688	0.743261	0.109424
43620	-8.446523	4.089383	-0.665740	0.632708	0.219050	0.734458	0.110763
43621	-8.203250	4.224065	-0.472644	0.643523	0.216647	0.725545	0.111925
43622	-7.889218	4.282785	-0.425691	0.654310	0.214009	0.716419	0.113239
43623	-7.663206	4.133645	-0.467174	0.664858	0.210736	0.707324	0.115096
43624	-7.618536	3.862778	-0.371436	0.675046	0.206952	0.698375	0.117283
43625	-7.777053	3.856077	-0.184734	0.684808	0.202925	0.689624	0.119494
43626	-7.976073	3.822708	-0.131671	0.694200	0.198740	0.681058	0.121442
43627	-8.130831	3.951927	-0.062523	0.703100	0.194797	0.672735	0.123015
43628	-8.165553	4.005896	0.151177	0.711177	0.191525	0.664887	0.124381
43629	-8.196072	3.984409	0.427634	0.718760	0.188249	0.657279	0.126216
43630	-8.142796	3.893937	0.854977	0.726002	0.184697	0.649876	0.128336
43631	-8.237702	3.734692	1.400167	0.733122	0.180587	0.642536	0.130648
43632	-8.274635	3.792025	1.854154	0.740151	0.176417	0.635138	0.132866
43633	-8.200107	3.750096	2.160929	0.747389	0.172039	0.627334	0.135146
43634	-7.946951	3.590755	2.171309	0.754614	0.167831	0.619304	0.137306
43635	-7.893564	3.881608	2.236398	0.761706	0.163709	0.611167	0.139563
43636	-8.063436	4.015095	2.328899	0.768808	0.159017	0.602814	0.142351
43637	-8.327989	3.930647	2.185660	0.775926	0.153864	0.594278	0.145254
43638	-8.549035	3.806892	2.159198	0.782993	0.148934	0.585595	0.147715
43639	-8.546952	3.788124	2.157010	0.790005	0.144477	0.576743	0.149617
43640	-8.627265	3.589597	2.207577	0.796801	0.140702	0.567909	0.150964
43641	-8.724214	4.013717	2.156284	0.803142	0.137742	0.559356	0.152022
43642	-8.698914	4.384669	2.128254	0.808943	0.134763	0.551166	0.153837
43643	-8.851090	3.683417	2.020104	0.814406	0.131060	0.543264	0.156301
43644	-8.685952	3.487231	1.950580	0.818978	0.128216	0.536500	0.158122
43645	-8.794841	4.005293	2.315553	0.822585	0.126505	0.531005	0.159327
43646	-9.302412	4.198749	2.693957	0.825691	0.124788	0.526294	0.160240
43647	-10.187254	3.938652	3.124353	0.828512	0.123226	0.522120	0.160543
43648	-10.602480	3.903162	3.442136	0.831019	0.122260	0.518508	0.160033
43649	-10.616301	3.956337	3.522080	0.833267	0.121511	0.515360	0.159077
43650	-10.220991	3.770469	3.454999	0.835119	0.120811	0.512884	0.157899
43651	-9.795283	3.582375	3.473462	0.836351	0.120601	0.511402	0.156335
43652	-9.330401	3.625419	3.445440	0.836910	0.120693	0.511017	0.154522
43653	-9.069644	3.818266	3.386464	0.836885	0.120634	0.511593	0.152786
43654	-8.851490	4.137671	3.222521	0.836152	0.120858	0.513151	0.151394
43655	-8.711492	4.180567	2.994149	0.834706	0.121349	0.515632	0.150543
43656	-8.745310	4.020322	3.047937	0.832554	0.122345	0.519056	0.149885
43657	-8.624519	4.405863	3.445051	0.829715	0.124482	0.523325	0.149024
43658	-8.235291	4.240190	3.384289	0.826700	0.126562	0.527824	0.148162
43659	-8.007992	4.332339	3.641186	0.823391	0.129508	0.532561	0.147083
43660	-7.812204	4.309507	3.675396	0.820003	0.132699	0.537257	0.146082
43661	-7.577666	3.978903	3.584303	0.816623	0.135854	0.541865	0.145096
43662	-7.464500	3.882671	3.511956	0.812993	0.139237	0.546778	0.143836
43663	-7.646883	4.166074	3.593105	0.808984	0.142483	0.552215	0.142486
43664	-8.102196	4.343821	3.741234	0.804670	0.144985	0.558155	0.141239
43665	-8.723605	4.217676	3.849585	0.800078	0.146874	0.564577	0.139839
43666	-9.455551	3.938760	3.806431	0.795266	0.148399	0.571388	0.138002
43667	-10.117805	3.830423	3.629805	0.790138	0.149760	0.578641	0.135751
43668	-10.463185	3.952568	3.167584	0.784652	0.150594	0.586387	0.133391
43669	-10.499541	3.899493	2.803979	0.778616	0.150214	0.594936	0.131315
43670	-10.418520	3.665833	2.484325	0.771843	0.148874	0.604450	0.129363
43671	-10.592411	3.450124	2.489874	0.764395	0.146719	0.614787	0.127321
43672	-10.460669	3.389504	2.340929	0.756524	0.144104	0.625544	0.124902
43673	-9.940678	3.244868	1.983672	0.748194	0.141241	0.636680	0.122043
43674	-9.341576	3.303993	1.525879	0.739359	0.138259	0.648147	0.118902
43675	-8.780426	3.197067	1.142884	0.730089	0.135169	0.659773	0.115750
43676	-8.284882	2.939315	1.018419	0.720556	0.131656	0.671362	0.112868
43677	-7.997660	2.452746	0.897873	0.710880	0.127788	0.682792	0.110063
43678	-7.356172	2.647597	0.775097	0.700813	0.124774	0.694203	0.106653
43679	-6.691590	3.233078	0.688263	0.690665	0.122337	0.705209	0.103420
43680	-6.108861	3.119478	0.349205	0.680333	0.120826	0.715853	0.100508
43681	-5.662426	2.851001	-0.016353	0.669890	0.120246	0.726080	0.097961
43682	-5.367067	2.951400	-0.292609	0.659087	0.120457	0.736089	0.096266
43683	-5.208938	3.186020	-0.609409	0.647848	0.121327	0.745901	0.095938
43684	-4.972525	3.164658	-0.863132	0.636152	0.122923	0.755457	0.097390
43685	-5.145194	2.830850	-1.219181	0.623939	0.125800	0.764790	0.099857
43686	-5.507265	3.046182	-1.320214	0.611439	0.130017	0.773709	0.103020
43687	-5.459253	3.508886	-1.559689	0.598933	0.135133	0.782002	0.107202
43688	-5.323760	3.957244	-1.864195	0.586508	0.141195	0.789613	0.112175
43689	-5.382446	4.251559	-2.280152	0.574488	0.148103	0.796298	0.118064
43690	-5.594165	4.260956	-3.003602	0.562583	0.156243	0.802265	0.124330
43691	-6.035580	4.522901	-3.538965	0.550847	0.165430	0.807452	0.131231
43692	-6.030408	4.785267	-3.860402	0.539156	0.175212	0.811899	0.139394
43693	-6.262630	4.982592	-3.943159	0.527422	0.185642	0.815642	0.148631
43694	-6.565501	5.573240	-3.984735	0.515825	0.196924	0.818599	0.158244
43695	-6.727037	6.073176	-3.906513	0.505061	0.208326	0.820318	0.169092
43696	-6.803150	6.130011	-3.998111	0.495142	0.220426	0.820876	0.180024
43697	-6.681983	6.468165	-3.843104	0.486347	0.233261	0.820087	0.191086
43698	-6.825520	6.695297	-3.582758	0.479497	0.246003	0.817658	0.202484
43699	-7.350026	7.196916	-3.373473	0.474905	0.258093	0.813607	0.214236
43700	-8.016050	7.332310	-3.184538	0.472832	0.269302	0.807938	0.226145
43701	-8.523576	7.552734	-3.029662	0.472827	0.280441	0.800899	0.237376
43702	-8.744820	7.753110	-3.054043	0.474406	0.291907	0.792750	0.247541
43703	-8.567865	7.843687	-3.205493	0.477528	0.303039	0.783672	0.256892
43704	-8.583113	8.214702	-2.838465	0.482210	0.312987	0.773757	0.266105
43705	-8.668649	8.367263	-2.369536	0.489068	0.321204	0.762814	0.275238
43706	-8.432335	8.271222	-2.075141	0.497933	0.327738	0.751031	0.283906
43707	-8.484353	8.254759	-2.197119	0.507736	0.333331	0.739182	0.291041
43708	-8.987942	8.847449	-2.453232	0.518237	0.337537	0.727504	0.297049
43709	-9.610555	9.350889	-2.514032	0.529619	0.339354	0.715800	0.303270
43710	-10.356424	8.977489	-2.461573	0.541841	0.338731	0.704180	0.309517
43711	-10.905333	8.864457	-2.061681	0.554270	0.336778	0.693003	0.314821
43712	-11.007443	9.010806	-1.532521	0.566972	0.334132	0.682249	0.318488
43713	-10.862734	9.330965	-1.220364	0.580493	0.330591	0.671595	0.320465
43714	-10.600503	9.240951	-0.991209	0.595434	0.325520	0.660533	0.321234
43715	-10.125272	8.705297	-0.846230	0.611626	0.318944	0.649092	0.320729
43716	-9.741235	8.150042	-0.757512	0.628270	0.311854	0.637894	0.317988
43717	-9.808452	8.176761	-0.371541	0.645379	0.304225	0.626848	0.313041
43718	-9.776102	7.858489	0.092940	0.663008	0.295660	0.615740	0.306382
43719	-9.759600	7.708706	0.514660	0.680676	0.286256	0.604774	0.298305
43720	-9.698627	7.527880	0.959000	0.697940	0.275903	0.594097	0.289492
43721	-9.051534	7.452604	1.104574	0.714310	0.264819	0.583895	0.280533
43722	-8.404287	7.528791	1.116405	0.729484	0.252648	0.574536	0.271903
43723	-8.046655	7.495726	0.962313	0.743388	0.239140	0.566193	0.263842
43724	-8.201581	7.051206	0.898109	0.756029	0.224456	0.558960	0.256134
43725	-8.368738	6.650018	0.779007	0.767396	0.208886	0.552868	0.248610
43726	-8.392183	6.257059	0.873126	0.777521	0.192892	0.547747	0.241301
43727	-8.096649	6.039753	1.076876	0.786326	0.176819	0.543703	0.234121
43728	-7.660998	5.629838	0.957355	0.793942	0.160558	0.540666	0.227061
43729	-7.477658	5.111651	1.297943	0.800303	0.144664	0.538780	0.219781
43730	-7.506547	4.763206	1.281273	0.805473	0.129178	0.538125	0.212008
43731	-7.949661	4.318427	1.733230	0.809712	0.113921	0.538427	0.203676
43732	-7.987441	4.106281	1.876275	0.812972	0.099042	0.539715	0.194872
43733	-8.426712	3.589584	2.219457	0.815361	0.085032	0.541840	0.185382
43734	-9.173399	3.224334	2.656248	0.817023	0.072356	0.544756	0.174586
43735	-9.924249	3.452209	3.103320	0.818149	0.061011	0.548158	0.162580
43736	-10.282880	3.355948	3.388391	0.819106	0.049166	0.551492	0.150014
43737	-10.202827	3.326635	3.491969	0.819553	0.037273	0.555117	0.137075
43738	-9.788059	3.108192	3.253048	0.819240	0.024552	0.559216	0.124579
43739	-9.475486	2.813085	2.944723	0.817753	0.011346	0.564314	0.112695
43740	-9.037239	2.501824	2.638375	0.814824	-0.001663	0.570685	0.101876
43741	-8.635805	1.598373	2.369515	0.810509	-0.013960	0.578306	0.091888
43742	-8.153733	0.890833	2.197469	0.804959	-0.024773	0.587136	0.081847
43743	-7.464269	1.426231	2.252292	0.798389	-0.034336	0.596853	0.071850
43744	-6.482348	1.976207	2.161578	0.791001	-0.043835	0.606953	0.063283
43745	-5.663703	1.212648	1.712974	0.782830	-0.053030	0.617398	0.056429
43746	-5.355844	0.166886	1.264235	0.773710	-0.060134	0.628721	0.049667
43747	-5.784684	0.073013	1.252890	0.763786	-0.065092	0.640778	0.042397
43748	-6.591902	0.066424	1.419133	0.753397	-0.069558	0.652924	0.035281
43749	-7.272944	-0.195442	1.570038	0.742965	-0.073479	0.664673	0.028513
43750	-7.894897	-0.275062	1.530353	0.732688	-0.076308	0.675909	0.022177
43751	-8.414170	-0.371044	1.386176	0.722596	-0.077788	0.686684	0.016421
43752	-8.664926	-0.719437	1.023095	0.712423	-0.078588	0.697239	0.011634
43753	-8.757877	-0.634317	0.742260	0.701911	-0.078690	0.707863	0.007628
43754	-8.747224	-0.090759	0.686902	0.690913	-0.078342	0.718664	0.004865
43755	-8.412297	-0.066006	0.554085	0.679594	-0.077950	0.729423	0.004245
43756	-8.001480	-0.535406	0.173832	0.668098	-0.076917	0.740069	0.005240
43757	-7.649475	-0.659569	-0.200984	0.656308	-0.074729	0.750752	0.006873
43758	-7.454897	-0.320774	-0.513466	0.644237	-0.071862	0.761384	0.009445
43759	-7.485136	-0.056153	-0.658027	0.632017	-0.068954	0.771764	0.013461
43760	-7.709968	-0.242477	-0.964064	0.619763	-0.065942	0.781793	0.018567
43761	-7.775345	-0.095614	-1.277054	0.607575	-0.062409	0.791438	0.024144
43762	-7.833793	0.131189	-1.662064	0.595519	-0.058263	0.800654	0.030273
43763	-7.706638	0.786776	-2.116540	0.583591	-0.053659	0.809438	0.036768
43764	-8.060973	1.222047	-2.451061	0.572129	-0.048990	0.817503	0.044244
43765	-7.877767	1.162874	-3.116528	0.561126	-0.043229	0.825002	0.051387
43766	-7.500521	1.803855	-3.391707	0.550189	-0.035565	0.832296	0.057547
43767	-7.414498	2.387340	-3.327521	0.539046	-0.026262	0.839453	0.063707
43768	-6.920450	2.299166	-3.537037	0.527780	-0.016349	0.846249	0.071020
43769	-6.846983	2.321226	-3.545002	0.516275	-0.006099	0.852652	0.080044
43770	-6.503408	2.432591	-3.767616	0.504349	0.004583	0.858752	0.090312
43771	-6.136681	3.049936	-4.034675	0.492147	0.015656	0.864399	0.101783
43772	-5.977353	3.644297	-4.446335	0.479943	0.027084	0.869365	0.114571
43773	-5.990133	4.027583	-4.877321	0.468159	0.038996	0.873393	0.128419
43774	-6.060282	4.162456	-5.014292	0.457208	0.051615	0.876314	0.142726
43775	-6.283339	4.344100	-5.055487	0.447334	0.065007	0.878040	0.157199
43776	-6.713718	4.594238	-5.147531	0.438749	0.078586	0.878531	0.171773
43777	-6.981521	5.295144	-5.235683	0.431749	0.092124	0.877668	0.186561
43778	-6.520410	5.788445	-5.437073	0.425894	0.105994	0.875703	0.201305
43779	-6.207962	6.463094	-5.528893	0.420808	0.120753	0.872884	0.215437
43780	-6.211195	6.851936	-5.771680	0.416593	0.136073	0.869086	0.229400
43781	-5.887410	6.865469	-6.106073	0.413020	0.151950	0.864468	0.242942
43782	-5.629674	6.919516	-6.039742	0.409984	0.168069	0.859242	0.255674
43783	-5.360012	7.367439	-5.826311	0.407761	0.184097	0.853443	0.267347
43784	-5.309212	7.858216	-5.552394	0.407198	0.199768	0.846678	0.278242
43785	-5.627110	8.190817	-5.098626	0.408489	0.215404	0.838882	0.288123
43786	-5.696330	8.602038	-4.990675	0.411287	0.231175	0.830111	0.297181
43787	-6.156631	8.520126	-4.640775	0.415035	0.246938	0.820450	0.305989
43788	-6.569607	8.257624	-3.999734	0.419467	0.262699	0.810121	0.314229
43789	-7.250058	8.253037	-2.673357	0.425077	0.277958	0.799090	0.321720
43790	-8.075577	8.323179	-1.186962	0.433128	0.292209	0.786774	0.328633
43791	-8.201614	7.744985	-0.566810	0.444439	0.305042	0.772990	0.334530
43792	-7.854747	7.504267	-0.657083	0.457737	0.316808	0.758664	0.338435
43793	-7.459552	8.311015	-1.391276	0.471572	0.327183	0.744678	0.340625
43794	-7.409520	9.336505	-2.051697	0.485588	0.335311	0.730898	0.342868
43795	-7.502657	10.187188	-2.064388	0.499805	0.340921	0.716904	0.346435
43796	-7.996373	9.598960	-2.044185	0.514542	0.344192	0.702443	0.351216
43797	-8.707432	9.107284	-1.964367	0.528957	0.346295	0.688513	0.355294
43798	-9.218293	9.207526	-1.327919	0.543158	0.347525	0.675330	0.357959
43799	-9.541843	9.320829	-0.526071	0.558047	0.347748	0.662482	0.358849
43800	-9.882476	9.167459	0.141616	0.574064	0.346973	0.649553	0.357969
43801	-10.027202	8.833243	0.238198	0.590636	0.345536	0.636862	0.355191
43802	-9.867573	8.917248	0.323819	0.607262	0.343348	0.624490	0.351222
43803	-9.152564	9.101595	0.480574	0.623362	0.340624	0.612737	0.346337
43804	-8.646434	9.348059	0.340088	0.638998	0.336710	0.601645	0.341072
43805	-8.283779	9.138943	0.147674	0.654502	0.330849	0.591049	0.335898
43806	-8.259366	8.853803	0.018324	0.669320	0.323331	0.581530	0.330592
43807	-8.429590	8.515940	0.199331	0.683134	0.314718	0.573280	0.325010
43808	-8.592084	8.339346	0.332104	0.695670	0.305695	0.566569	0.318738
43809	-8.545295	8.447598	0.519952	0.707111	0.296350	0.561016	0.312141
43810	-8.466697	8.188595	0.616152	0.717738	0.286292	0.556474	0.305328
43811	-8.512974	7.928723	1.011983	0.727376	0.276072	0.553073	0.298026
43812	-8.491246	7.570731	1.476319	0.736332	0.265502	0.550464	0.290367
43813	-8.264126	7.117362	1.775605	0.744795	0.254551	0.548487	0.282218
43814	-7.781953	6.747837	1.902877	0.752728	0.243367	0.546937	0.273922
43815	-7.203307	6.444313	1.894647	0.759984	0.232061	0.545807	0.265831
43816	-6.710928	6.051104	1.937164	0.766617	0.220606	0.545035	0.258008
43817	-6.323802	5.692344	1.882147	0.772537	0.208978	0.544897	0.250204
43818	-6.438512	5.462101	1.760317	0.777684	0.197303	0.545483	0.242337
43819	-6.844904	5.493468	1.692204	0.781867	0.186075	0.546819	0.234625
43820	-7.163617	5.209067	1.665661	0.785326	0.174688	0.548569	0.227639
43821	-7.466648	4.890449	1.655919	0.788086	0.163339	0.550829	0.220973
43822	-7.782368	5.151290	1.890508	0.790138	0.152544	0.553629	0.214259
43823	-7.629022	5.292122	2.070880	0.791713	0.142064	0.556618	0.207808
43824	-7.596685	4.802967	2.038378	0.792783	0.132460	0.559883	0.201198
43825	-7.871907	4.523826	1.999874	0.793074	0.124649	0.563866	0.193778
43826	-8.104322	4.813803	2.182735	0.792762	0.118612	0.568267	0.185829
43827	-8.636767	4.546988	2.393293	0.792272	0.112837	0.572521	0.178305
43828	-8.705639	4.092023	2.564284	0.791793	0.107502	0.576406	0.171063
43829	-8.112983	4.132901	3.258054	0.791019	0.103581	0.580371	0.163489
43830	-7.455267	4.416689	3.502484	0.790106	0.100621	0.584227	0.155842
43831	-7.486064	4.507022	3.872053	0.789062	0.098874	0.587887	0.148305
43832	-7.510819	4.294777	4.205344	0.788400	0.097549	0.590634	0.141634
43833	-7.451161	3.774546	4.494037	0.788248	0.096307	0.592382	0.135917
43834	-7.406794	3.211277	4.552404	0.788717	0.095638	0.593115	0.130361
43835	-7.134779	3.174505	4.413394	0.789872	0.095799	0.592815	0.124481
43836	-6.288441	3.407779	4.041496	0.791532	0.095911	0.591769	0.118693
43837	-6.004802	3.430277	3.637446	0.793453	0.094678	0.590408	0.113521
43838	-6.471375	2.977127	3.310557	0.795554	0.092296	0.588868	0.108669
43839	-7.235016	2.562276	3.253936	0.797642	0.089781	0.587390	0.103345
43840	-7.760876	1.985476	2.956827	0.799644	0.087285	0.586097	0.097166
43841	-7.886151	1.412263	2.499325	0.801389	0.086233	0.585234	0.088552
43842	-7.760269	1.487957	1.629452	0.803384	0.085662	0.584160	0.077415
43843	-8.082596	1.369568	1.233984	0.805223	0.084628	0.583438	0.063676
43844	-8.388105	1.255965	0.937673	0.806863	0.082986	0.582993	0.046958
43845	-9.140098	0.799148	1.177125	0.809119	0.078463	0.581748	0.027173
43846	-9.882544	-0.918254	1.118449	0.812193	0.072733	0.578832	0.002447
43847	-10.933283	-1.681589	0.940886	0.814856	0.069101	0.574815	-0.028681
43848	-12.678240	-0.923587	0.773277	0.816640	0.066905	0.569637	-0.064311
43849	-14.544255	-1.558537	1.116573	0.817996	0.065246	0.562033	-0.103653
43850	-15.867544	-2.849377	1.464079	0.819039	0.063818	0.551143	-0.146097
43851	-16.344764	-3.641250	1.723031	0.819089	0.063435	0.537278	-0.190793
43852	-17.002602	-3.495363	1.721698	0.817510	0.064161	0.521305	-0.236225
43853	-17.332033	-3.747442	2.063492	0.814461	0.063577	0.504401	-0.279627
43854	-17.958533	-4.494284	2.909136	0.809914	0.061772	0.486729	-0.321431
43855	-18.447288	-4.950018	3.126396	0.803890	0.059689	0.467423	-0.362923
43856	-17.865937	-4.571836	3.252033	0.796277	0.056798	0.446829	-0.403807
43857	-16.361688	-3.699638	3.043228	0.787104	0.052265	0.426024	-0.442988
43858	-14.406369	-3.196466	3.199317	0.776397	0.046003	0.406322	-0.479577
43859	-13.036292	-2.702705	3.446480	0.764004	0.038874	0.388114	-0.513959
43860	-12.042248	-2.348786	4.023828	0.750061	0.030791	0.371678	-0.546183
43861	-11.443390	-2.139916	4.478597	0.734866	0.020061	0.357481	-0.576002
43862	-10.922406	-1.906977	4.692942	0.718521	0.006562	0.345860	-0.603378
43863	-10.514900	-1.747026	4.391342	0.700926	-0.008042	0.336359	-0.628889
43864	-10.036814	-2.034307	3.719038	0.682110	-0.021834	0.327891	-0.653251
43865	-9.547945	-2.754862	3.285294	0.662359	-0.033393	0.319048	-0.677033
43866	-8.777613	-2.989536	3.428356	0.641998	-0.042154	0.308646	-0.700570
43867	-8.078082	-2.350754	3.626392	0.621463	-0.048536	0.296338	-0.723610
43868	-7.216020	-1.625224	3.905990	0.600766	-0.053754	0.282999	-0.745723
43869	-6.286984	-1.062787	4.184957	0.579246	-0.059207	0.270338	-0.766737
43870	-5.318223	-1.183893	4.448402	0.556573	-0.065357	0.258975	-0.786694
43871	-4.163778	-1.424211	4.890292	0.532337	-0.071409	0.249008	-0.805923
43872	-3.553501	-1.287643	5.332349	0.506133	-0.076048	0.239782	-0.824955
43873	-3.135991	-1.323211	5.694507	0.477911	-0.079027	0.231382	-0.843693
43874	-2.690802	-1.300899	6.075717	0.448200	-0.080212	0.223447	-0.861832
43875	-2.567874	-1.121241	6.415117	0.417450	-0.079798	0.216239	-0.878981
43876	-2.752306	-0.557013	6.456418	0.385706	-0.078434	0.210602	-0.894833
43877	-2.804944	-0.628098	6.080318	0.353324	-0.076600	0.207458	-0.908986
43878	-2.794282	-1.144115	6.043668	0.320775	-0.073108	0.205127	-0.921782
43879	-3.645797	-1.045034	6.300974	0.288408	-0.068165	0.202863	-0.933285
43880	-3.909130	-1.218130	6.720626	0.256482	-0.063906	0.201944	-0.943054
43881	-3.065554	-1.605860	6.913235	0.225068	-0.059957	0.201197	-0.951456
43882	-2.221197	-1.474746	6.998704	0.194253	-0.055384	0.199333	-0.958887
43883	-1.942164	-1.500080	7.220537	0.164343	-0.049793	0.196521	-0.965345
43884	-2.273959	-1.386325	7.713810	0.135512	-0.043667	0.192787	-0.970857
43885	-2.543419	-1.584333	8.121420	0.107593	-0.037554	0.189112	-0.975321
43886	-2.474215	-1.766910	8.419201	0.080858	-0.031544	0.184654	-0.978964
43887	-2.191021	-1.654995	8.690181	0.055127	-0.025425	0.179319	-0.981916
43888	-2.738345	-1.384548	9.178158	0.030311	-0.019244	0.173465	-0.984185
43889	-3.188206	-1.207274	9.819342	0.006230	-0.013526	0.169102	-0.985486
43890	-2.848922	-1.596850	10.171919	-0.017032	-0.008546	0.166054	-0.985932
43891	-2.810763	-2.076142	10.226198	-0.039424	-0.003896	0.163028	-0.985826
43892	-2.999009	-2.132150	10.189845	-0.060827	0.000253	0.159992	-0.985242
43893	-3.128553	-2.027582	9.805394	-0.081400	0.004259	0.157182	-0.984200
43894	-3.309954	-2.174820	9.632933	-0.101205	0.008186	0.154101	-0.982824
43895	-3.927228	-2.082429	9.813829	-0.120377	0.011556	0.150572	-0.981175
43896	-3.948364	-1.883763	10.039028	-0.139327	0.013738	0.147171	-0.979153
43897	-3.438211	-1.597012	9.675663	-0.158542	0.015018	0.143155	-0.976804
43898	-3.262233	-1.175102	9.260376	-0.177961	0.016043	0.138652	-0.974088
43899	-3.490236	-1.239174	8.933183	-0.197356	0.017242	0.133049	-0.971108
43900	-3.277742	-1.163063	9.124950	-0.216488	0.018908	0.125648	-0.967981
43901	-3.340749	-0.540267	9.757924	-0.235073	0.021268	0.116184	-0.964774
43902	-3.930589	0.384618	10.593709	-0.252968	0.024374	0.106599	-0.961275
43903	-4.558292	1.561472	10.898317	-0.270420	0.027990	0.099748	-0.957152
43904	-4.815530	2.030525	10.550393	-0.287446	0.031982	0.098616	-0.952170
43905	-4.720397	0.898656	9.978053	-0.303596	0.036450	0.101196	-0.946710
43906	-4.629984	-0.697241	9.518736	-0.318619	0.040796	0.103121	-0.941373
43907	-4.635316	-0.720695	9.691687	-0.332863	0.044184	0.101979	-0.936403
43908	-4.346646	0.294869	10.321894	-0.346649	0.046883	0.099882	-0.931483
43909	-3.997811	0.749852	10.693670	-0.360262	0.049580	0.098672	-0.926292
43910	-3.951396	0.739988	10.847925	-0.373783	0.052714	0.098886	-0.920722
43911	-4.233366	0.278986	10.758656	-0.387101	0.056219	0.100520	-0.914816
43912	-4.231557	-0.323270	10.500368	-0.400123	0.059759	0.102917	-0.908701
43913	-4.184018	-0.722840	10.366113	-0.412910	0.063314	0.105302	-0.902446
43914	-4.278047	-1.074082	10.335862	-0.425530	0.066775	0.107740	-0.896023
43915	-4.176469	-1.425283	10.419359	-0.437943	0.069935	0.110219	-0.889475
43916	-3.933896	-1.892542	10.411081	-0.450158	0.072733	0.112519	-0.882840
43917	-3.535554	-1.862162	10.537458	-0.462179	0.075069	0.114393	-0.876167
43918	-3.422517	-1.856208	10.297392	-0.474187	0.076935	0.116063	-0.869343
43919	-3.057618	-2.002826	9.946118	-0.486097	0.078383	0.117646	-0.862395
43920	-3.044979	-1.933046	9.707105	-0.498006	0.079150	0.118458	-0.855391
43921	-2.685107	-1.957809	9.563819	-0.509873	0.079200	0.118926	-0.848300
43922	-1.707921	-2.069307	9.471187	-0.521574	0.078694	0.118926	-0.841204
43923	-1.269699	-1.836932	9.373771	-0.533174	0.078107	0.118163	-0.834064
43924	-0.610544	-2.087379	9.238160	-0.544386	0.078212	0.117004	-0.826944
43925	-0.522581	-2.515705	9.611040	-0.555021	0.078932	0.115282	-0.820019
43926	-0.381810	-2.315295	10.263179	-0.564864	0.080522	0.114192	-0.813268
43927	0.189899	-2.308958	10.669370	-0.573859	0.082695	0.114149	-0.806733
43928	0.627353	-1.805451	10.535092	-0.581933	0.086129	0.115631	-0.800353
43929	-0.111280	-1.812348	10.247953	-0.589042	0.090982	0.120021	-0.793944
43930	-0.570096	-2.760733	9.863766	-0.595383	0.096361	0.126662	-0.787522
43931	-0.271072	-4.068158	9.604011	-0.601433	0.100878	0.132823	-0.781319
43932	-0.529208	-3.807777	9.508482	-0.607334	0.104026	0.137140	-0.775575
43933	-0.937167	-3.343115	9.416236	-0.613017	0.106569	0.141134	-0.770022
43934	-0.895625	-3.409928	8.923649	-0.618551	0.109363	0.146103	-0.764257
43935	-0.799581	-4.139576	8.332987	-0.623949	0.112054	0.150809	-0.758543
43936	-0.916545	-4.616924	7.999970	-0.629494	0.113482	0.154110	-0.753067
43937	-0.379554	-4.496123	8.298930	-0.635353	0.113325	0.156228	-0.747714
43938	-0.064963	-3.913458	8.692379	-0.641838	0.112198	0.157228	-0.742116
43939	-0.119545	-3.677439	8.679610	-0.648832	0.110980	0.157726	-0.736087
43940	0.026152	-3.968620	8.500275	-0.656414	0.110003	0.157758	-0.729474
43941	0.491486	-4.120185	8.510005	-0.664848	0.109141	0.157490	-0.721985
43942	0.843207	-3.949719	8.653532	-0.673979	0.109358	0.156528	-0.713647
43943	0.789880	-4.345992	8.488764	-0.683621	0.111428	0.154696	-0.704496
43944	-0.635231	-4.577844	8.326524	-0.693831	0.114144	0.152427	-0.694504
43945	-2.161171	-3.795833	9.272621	-0.703857	0.116513	0.151767	-0.684089
43946	-2.107473	-3.898883	9.715970	-0.713018	0.119768	0.153481	-0.673576
43947	-1.227860	-4.884926	9.210734	-0.721869	0.123630	0.155761	-0.662842
43948	-0.956730	-5.531266	8.944498	-0.731174	0.126859	0.156263	-0.651823
43949	-0.966240	-5.115457	8.658554	-0.741185	0.129811	0.154873	-0.640162
43950	-1.612618	-4.457191	8.637316	-0.751644	0.133825	0.153575	-0.627326
43951	-2.578014	-4.312220	8.904121	-0.762092	0.139287	0.154244	-0.613207
43952	-2.760227	-5.265766	9.155278	-0.772495	0.145307	0.155600	-0.598269
43953	-2.496398	-5.428487	8.868135	-0.783472	0.149591	0.155362	-0.582800
43954	-2.361147	-4.705294	8.949864	-0.795099	0.152895	0.153804	-0.566378
43955	-2.572302	-3.840052	8.951191	-0.807269	0.156094	0.152057	-0.548479
43956	-2.509374	-3.743454	8.649587	-0.819989	0.159070	0.150227	-0.528911
43957	-3.043909	-3.461824	8.351916	-0.833262	0.161084	0.147652	-0.507862
43958	-3.429963	-3.369886	8.166749	-0.846795	0.162253	0.144403	-0.485551
43959	-3.318247	-3.320078	8.177441	-0.860289	0.162350	0.139660	-0.462644
43960	-3.097238	-2.838253	8.399828	-0.873797	0.161871	0.133269	-0.438766
43961	-3.405468	-2.267422	9.005355	-0.886979	0.161888	0.125985	-0.413749
43962	-4.077690	-1.809688	9.537721	-0.899506	0.163632	0.118691	-0.387331
43963	-4.772467	-1.940661	9.715537	-0.911113	0.167628	0.111701	-0.359579
43964	-5.355958	-2.600862	9.471039	-0.921864	0.172383	0.104643	-0.330910
43965	-5.657515	-2.675791	9.236178	-0.931890	0.176255	0.097028	-0.301829
43966	-5.912500	-2.458664	9.137467	-0.941200	0.178964	0.088736	-0.272471
43967	-6.004012	-2.408085	9.247873	-0.949752	0.180614	0.079811	-0.242858
43968	-6.108996	-2.193843	9.548028	-0.957550	0.181284	0.070583	-0.212725
43969	-6.121976	-2.081713	9.846666	-0.964512	0.181364	0.061443	-0.181791
43970	-6.224192	-1.812935	10.150564	-0.970539	0.181068	0.052270	-0.150121
43971	-6.481295	-1.409278	10.194505	-0.975383	0.181259	0.043188	-0.117931
43972	-6.685491	-1.607945	9.859322	-0.978957	0.182043	0.034357	-0.085581
43973	-6.780205	-2.150214	9.454514	-0.981409	0.182538	0.025540	-0.053514
43974	-6.748239	-2.348410	9.167350	-0.982920	0.181974	0.016452	-0.021973
43975	-6.989830	-2.347556	9.236643	-0.983506	0.180502	0.007387	0.008965
43976	-7.246838	-2.197861	9.430605	-0.983200	0.178297	-0.001416	0.039059
43977	-7.205567	-2.253605	9.703803	-0.981961	0.176208	-0.009592	0.067913
43978	-6.747027	-2.253167	10.084128	-0.979926	0.174118	-0.017436	0.095522
43979	-6.655838	-1.642153	10.535179	-0.977127	0.172014	-0.025109	0.122491
43980	-6.751181	-1.235445	10.616005	-0.973347	0.171067	-0.032575	0.149231
43981	-6.744581	-1.393202	10.485814	-0.968614	0.171218	-0.039664	0.175781
43982	-6.367411	-1.706186	10.220421	-0.963236	0.171030	-0.046375	0.201925
43983	-6.060669	-1.483955	10.189125	-0.957445	0.169240	-0.052747	0.227758
43984	-5.997622	-0.849684	10.310156	-0.951035	0.166749	-0.059014	0.253464
43985	-5.581701	-0.305031	10.679754	-0.943656	0.165463	-0.065474	0.279013
43986	-5.032464	-0.255559	10.859429	-0.935247	0.166019	-0.072327	0.304169
43987	-4.737094	-0.491593	10.758397	-0.926003	0.167792	-0.079186	0.328778
43988	-4.368370	-0.938255	10.383075	-0.916135	0.170597	-0.085585	0.352516
43989	-4.016823	-1.333480	9.924469	-0.906078	0.173174	-0.091165	0.375130
43990	-3.371698	-2.055263	9.449141	-0.896239	0.174098	-0.095643	0.396608
43991	-2.009178	-2.293211	9.765268	-0.886901	0.171609	-0.099204	0.417272
43992	-1.467446	-1.036365	10.677453	-0.877859	0.165109	-0.102237	0.437779
43993	-1.480104	0.641156	11.605932	-0.868186	0.158424	-0.105601	0.458262
43994	-1.671876	1.073159	11.925089	-0.857328	0.154968	-0.110205	0.478359
43995	-2.017490	0.468360	11.413432	-0.845514	0.154520	-0.116006	0.497767
43996	-2.318012	-0.735836	10.593792	-0.833486	0.155931	-0.122019	0.515847
43997	-2.193820	-1.500611	9.639650	-0.821933	0.157169	-0.127301	0.532464
43998	-1.873032	-2.079200	8.915857	-0.811276	0.157567	-0.131382	0.547488
43999	-1.610876	-2.391184	8.588473	-0.801842	0.155916	-0.133610	0.561148
44000	-1.386853	-2.174038	8.586922	-0.793662	0.152250	-0.133790	0.573604
44001	-1.188942	-1.726930	8.598324	-0.786455	0.147637	-0.132563	0.584909
44002	-0.824115	-1.447538	8.638218	-0.779785	0.143150	-0.130809	0.595258
44003	-0.685177	-1.299238	8.792830	-0.773345	0.138827	-0.129006	0.604997
44004	-0.184724	-0.978990	8.995093	-0.766848	0.134331	-0.127574	0.614512
44005	0.036613	-0.740087	9.153037	-0.760146	0.129786	-0.126792	0.623905
44006	-0.022829	-0.869332	9.350832	-0.753177	0.125021	-0.126363	0.633346
44007	0.144957	-0.751628	9.541774	-0.745950	0.120017	-0.126136	0.642840
44008	0.132547	-0.682948	9.622632	-0.738577	0.114861	-0.126237	0.652208
44009	0.057256	-0.723714	9.457644	-0.731277	0.109565	-0.126180	0.661293
44010	0.046963	-0.477948	9.371477	-0.724113	0.104023	-0.126078	0.670033
44011	-0.147774	-0.354533	9.385640	-0.717092	0.098532	-0.126162	0.678346
44012	-0.287543	-0.506902	9.561649	-0.710476	0.092894	-0.126119	0.686068
44013	-0.154859	-0.412537	9.864298	-0.704411	0.086848	-0.125745	0.693145
44014	-0.413132	0.269657	10.144996	-0.698741	0.080976	-0.125666	0.699580
44015	-0.822571	0.390862	10.439042	-0.693301	0.076754	-0.126728	0.705253
44016	-0.975774	-0.065256	10.459919	-0.688127	0.073748	-0.128536	0.710296
44017	-1.133544	-0.500282	10.488876	-0.683226	0.070915	-0.130440	0.714954
44018	-1.049778	-0.743304	10.753718	-0.678577	0.067841	-0.131977	0.719384
44019	-1.210174	-0.688800	10.805311	-0.674244	0.064203	-0.132716	0.723643
44020	-1.546549	-0.457512	10.677381	-0.670301	0.060403	-0.133092	0.727554
44021	-2.228358	-0.425205	10.556964	-0.666706	0.057068	-0.133727	0.731002
44022	-2.686216	-0.743073	10.447781	-0.663389	0.054272	-0.134479	0.734088
44023	-2.544685	-0.960629	10.520585	-0.660321	0.051813	-0.135034	0.736924
44024	-2.417358	-0.907282	10.464258	-0.657580	0.049640	-0.135223	0.739486
44025	-2.155509	-0.996342	10.318472	-0.655202	0.047789	-0.135065	0.741744
44026	-2.059973	-1.096176	10.075830	-0.653313	0.045943	-0.134478	0.743631
44027	-2.085648	-1.066721	9.871316	-0.651947	0.043681	-0.133247	0.745186
44028	-2.033113	-0.818453	9.689521	-0.651061	0.041638	-0.131906	0.746315
44029	-2.079996	-0.742340	9.682494	-0.650581	0.040058	-0.130903	0.746997
44030	-2.246989	-0.503471	9.607811	-0.650312	0.039076	-0.130528	0.747348
44031	-2.388142	-0.595084	9.297648	-0.650258	0.039252	-0.131232	0.747263
44032	-2.296622	-1.307193	8.917819	-0.650651	0.039841	-0.132281	0.746704
44033	-2.187223	-1.906637	8.522492	-0.651747	0.039271	-0.132326	0.745771
44034	-2.091373	-2.321919	8.238711	-0.653929	0.036744	-0.130385	0.744330
44035	-2.097910	-2.177169	8.001705	-0.657462	0.031655	-0.126041	0.742196
44036	-2.150884	-1.392356	7.572013	-0.662726	0.024733	-0.119584	0.738838
44037	-2.821731	-1.223925	6.851771	-0.670564	0.016405	-0.110346	0.733416
44038	-3.579287	-0.835110	6.454405	-0.682126	0.006868	-0.097828	0.724628
44039	-4.874746	1.099784	7.340892	-0.697664	-0.002418	-0.084294	0.711445
44040	-5.792328	3.216226	7.823391	-0.716783	-0.008170	-0.072492	0.693469
44041	-6.409676	3.973075	8.549023	-0.739056	-0.008715	-0.064317	0.670510
44042	-6.580273	4.285806	9.139009	-0.763331	-0.003968	-0.060675	0.643140
44043	-6.627646	4.250900	9.425124	-0.788224	0.004518	-0.058907	0.612546
44044	-6.105919	3.374599	8.780196	-0.812784	0.011470	-0.057088	0.579648
44045	-5.034117	3.945307	8.639960	-0.837393	0.014268	-0.052804	0.543857
44046	-3.196502	4.874942	9.723065	-0.861546	0.014795	-0.048022	0.505187
44047	-0.320835	3.202608	9.811781	-0.884159	0.016733	-0.044486	0.464763
44048	2.818444	0.064531	8.870891	-0.905139	0.013506	-0.041719	0.422848
44049	4.106310	0.348072	8.239737	-0.924720	-0.001771	-0.036519	0.378887
44050	2.752364	4.326119	10.993364	-0.942313	-0.024432	-0.029989	0.332491
44051	-0.132833	6.389552	13.925712	-0.957616	-0.038966	-0.024910	0.284311
44052	-0.677178	1.472986	14.917162	-0.970683	-0.044027	-0.019474	0.235494
44053	0.196344	-2.558820	15.002458	-0.980878	-0.051535	-0.012691	0.187246
44054	-0.070819	-0.448938	14.978594	-0.988179	-0.063848	-0.005587	0.139261
44055	-1.379137	2.052088	15.862549	-0.993192	-0.071724	0.001582	0.091777
44056	-3.079478	2.483067	16.490978	-0.996185	-0.074118	0.009324	0.045121
44057	-4.995821	1.145021	15.642514	-0.997192	-0.072565	0.018491	-0.000496
44058	-4.866485	-0.978709	13.917910	-0.996053	-0.071269	0.028245	-0.044731
44059	-4.277632	-1.229355	12.534626	-0.992896	-0.072422	0.037706	-0.086546
44060	-4.061442	-0.475506	11.273956	-0.988436	-0.072004	0.047354	-0.124772
44061	-3.599326	-0.989251	10.081881	-0.983404	-0.068094	0.057330	-0.158092
44062	-3.298437	-2.410122	8.818823	-0.978171	-0.062712	0.066222	-0.186718
44063	-3.332638	-2.648489	8.082298	-0.973195	-0.058339	0.072804	-0.210208
44064	-2.684259	-2.552803	7.209665	-0.968937	-0.054755	0.076674	-0.228658
44065	-2.082032	-1.896565	6.739888	-0.965557	-0.052159	0.077821	-0.242739
44066	-1.589786	-0.984030	6.997610	-0.963148	-0.049338	0.076979	-0.252955
44067	-1.210057	-1.221067	7.163776	-0.961624	-0.046373	0.074859	-0.259855
44068	-0.640588	-1.381520	7.482370	-0.960866	-0.044708	0.071145	-0.263961
44069	-0.069435	-0.941104	8.141452	-0.960668	-0.044890	0.065825	-0.266025
44070	0.187899	0.062055	8.948202	-0.960925	-0.045373	0.060085	-0.266372
44071	0.626113	0.341958	9.207728	-0.961503	-0.045143	0.054119	-0.265604
44072	0.689153	1.040894	9.287227	-0.962192	-0.044392	0.048345	-0.264346
44073	0.831735	0.875394	9.578497	-0.962809	-0.043576	0.043206	-0.263121
44074	0.996130	1.072111	10.232411	-0.963230	-0.044057	0.038527	-0.262225
44075	0.872354	1.459942	10.653877	-0.963504	-0.045002	0.034825	-0.261575
44076	0.829011	1.383090	10.924793	-0.963655	-0.045461	0.032393	-0.261252
44077	0.853056	1.147360	10.940990	-0.963763	-0.044943	0.031122	-0.261098
44078	1.221689	0.967993	10.531086	-0.963819	-0.043349	0.030567	-0.261225
44079	1.201576	0.758689	10.090367	-0.963793	-0.041287	0.030540	-0.261661
44080	1.015753	0.226224	9.948259	-0.963700	-0.039648	0.030682	-0.262239
44081	0.929597	0.197317	9.858905	-0.963655	-0.038552	0.031019	-0.262526
44082	0.873926	0.249683	9.765538	-0.963745	-0.037179	0.031765	-0.262304
44083	1.025158	0.219448	9.558903	-0.963999	-0.035457	0.032619	-0.261505
44084	1.259948	0.120719	9.363472	-0.964330	-0.033783	0.033202	-0.260429
44085	1.384606	0.151786	9.340138	-0.964654	-0.032359	0.033239	-0.259404
44086	1.355656	0.333301	9.496468	-0.964979	-0.030959	0.032714	-0.258430
44087	1.190434	0.263626	9.427659	-0.965351	-0.029208	0.031850	-0.257352
44088	1.082800	0.360518	9.346090	-0.965710	-0.027843	0.030567	-0.256311
44089	1.030513	0.667902	9.552292	-0.966033	-0.026669	0.029199	-0.255374
44090	0.739051	0.752434	9.693486	-0.966332	-0.025564	0.028199	-0.254467
44091	0.644383	0.391717	9.619987	-0.966656	-0.024661	0.027705	-0.253376
44092	0.705600	0.361648	9.462474	-0.967006	-0.024451	0.027412	-0.252091
44093	0.877386	0.493633	9.152353	-0.967329	-0.024677	0.027214	-0.250848
44094	1.056965	0.553732	8.730957	-0.967610	-0.025147	0.026961	-0.249744
44095	1.164604	0.573090	8.283399	-0.967833	-0.025895	0.026443	-0.248856
44096	1.214017	0.762717	7.886352	-0.968023	-0.026912	0.025286	-0.248130
44097	1.119229	1.042479	7.273417	-0.968164	-0.028088	0.023265	-0.247646
44098	1.029279	0.862789	6.307735	-0.968283	-0.029545	0.020454	-0.247259
44099	1.210720	0.571897	4.890045	-0.968413	-0.032533	0.016199	-0.246690
44100	1.684456	0.483812	3.355501	-0.968518	-0.038707	0.009732	-0.245723
44101	2.069126	0.571413	1.875308	-0.968563	-0.048628	0.001735	-0.243962
44102	2.094971	0.775680	1.093167	-0.968545	-0.061920	-0.007353	-0.240900
44103	2.172957	1.135376	0.553054	-0.968591	-0.077059	-0.016984	-0.235808
44104	2.341127	1.498426	-0.051760	-0.968723	-0.093481	-0.027959	-0.228157
44105	1.656837	2.849661	0.485474	-0.968314	-0.113677	-0.041422	-0.218473
44106	0.587742	4.910017	0.789056	-0.967396	-0.134634	-0.055958	-0.207091
44107	0.068308	4.808479	0.633675	-0.966766	-0.150915	-0.070757	-0.193862
44108	0.676680	2.785590	0.946382	-0.966055	-0.165300	-0.086933	-0.178482
44109	0.598441	3.235588	2.037777	-0.963592	-0.185247	-0.107486	-0.160067
44110	-1.080880	6.923620	4.023231	-0.958516	-0.211637	-0.131568	-0.138372
44111	-3.775924	10.700950	6.494839	-0.952361	-0.236315	-0.155571	-0.113848
44112	-4.816909	9.422541	6.140737	-0.948110	-0.248831	-0.178042	-0.086442
44113	-4.092860	6.010155	5.684142	-0.943844	-0.254901	-0.202423	-0.056641
44114	-4.938887	6.225951	6.233320	-0.935566	-0.264251	-0.233051	-0.023956
44115	-8.747352	9.132997	7.969536	-0.923549	-0.274021	-0.268093	0.009835
44116	-11.810186	9.812401	9.053797	-0.911282	-0.274150	-0.304571	0.040536
44117	-11.296356	5.904580	8.236816	-0.898104	-0.265613	-0.344388	0.065241
44118	-10.771535	0.980726	6.669057	-0.878790	-0.260654	-0.390374	0.086002
44119	-13.773895	-0.459176	5.973770	-0.850588	-0.264044	-0.442170	0.106147
44120	-18.961458	2.403631	6.326386	-0.816115	-0.268521	-0.496357	0.124427
44121	-22.054213	5.734087	6.515275	-0.782311	-0.260516	-0.549470	0.134922
44122	-25.076750	5.473202	5.510013	-0.754350	-0.235068	-0.598174	0.133742
44123	-28.651324	-1.156606	17.281520	-0.737396	-0.199485	-0.633896	0.120950
44124	-26.545426	-13.814771	11.628862	-0.737265	-0.197690	-0.632620	0.130963
44125	-14.103287	-2.396133	7.929776	-0.742566	-0.202959	-0.623699	0.135654
44126	-13.264484	-5.278057	4.054030	-0.747192	-0.223287	-0.609659	0.141996
44127	-13.320790	-2.898541	2.062002	-0.747405	-0.253931	-0.593886	0.155576
44128	-10.546925	5.805316	2.846314	-0.746082	-0.283794	-0.578104	0.169170
44129	-9.709361	8.867244	2.954322	-0.748873	-0.296666	-0.566236	0.174800
44130	-7.753718	7.372982	2.236021	-0.756528	-0.293177	-0.558209	0.173537
44131	-5.984083	3.575939	1.206324	-0.765082	-0.283005	-0.552676	0.170611
44132	-5.487710	1.945118	1.076597	-0.771267	-0.274447	-0.548627	0.169808
44133	-5.507467	1.689147	0.969426	-0.773854	-0.271365	-0.545389	0.173383
44134	-6.080012	2.703168	1.231396	-0.773620	-0.271918	-0.543237	0.180186
44135	-6.873051	3.633825	1.667530	-0.772341	-0.272446	-0.542081	0.188175
44136	-7.150679	3.630887	1.880087	-0.770935	-0.270706	-0.542123	0.196163
44137	-7.448391	3.052241	1.882300	-0.769235	-0.267251	-0.543158	0.204532
44138	-7.865180	2.371280	1.594038	-0.767109	-0.263047	-0.544665	0.213754
44139	-8.437725	1.555679	1.286691	-0.764153	-0.259742	-0.546289	0.223992
44140	-9.014629	0.905962	1.126025	-0.760190	-0.258879	-0.547491	0.235259
44141	-9.541873	0.714030	0.995203	-0.755141	-0.262030	-0.547410	0.247880
44142	-9.838821	0.981674	0.945036	-0.749357	-0.268645	-0.546003	0.261102
44143	-9.993814	1.439230	1.149628	-0.743548	-0.277371	-0.543469	0.273576
44144	-9.964341	1.728756	1.270997	-0.738542	-0.286449	-0.540377	0.283718
44145	-9.908892	1.896865	1.446962	-0.734604	-0.295034	-0.537421	0.290672
44146	-10.122229	2.142564	1.723655	-0.731944	-0.302399	-0.535084	0.294106
44147	-10.305975	1.971325	1.990328	-0.730897	-0.307750	-0.533476	0.294081
44148	-10.390144	1.459427	2.242317	-0.731062	-0.312019	-0.532145	0.291573
44149	-10.177913	1.389717	2.458475	-0.731923	-0.315952	-0.530950	0.287325
44150	-9.927524	1.464160	2.663047	-0.733302	-0.319490	-0.529994	0.281603
44151	-9.728809	1.593683	2.869784	-0.735079	-0.322421	-0.529405	0.274653
44152	-9.745714	1.828943	3.038848	-0.737486	-0.324056	-0.529199	0.266553
44153	-9.950346	1.757482	3.967110	-0.740528	-0.323394	-0.529841	0.257495
44154	-10.222909	0.648733	6.872255	-0.744819	-0.320514	-0.529654	0.248961
44155	-10.008939	-2.002433	7.898694	-0.750557	-0.316046	-0.526331	0.244449
44156	-8.342520	-3.211589	6.467538	-0.753706	-0.316668	-0.520661	0.246092
44157	-7.915705	-3.014655	5.624110	-0.752768	-0.323633	-0.514154	0.253470
44158	-7.875555	-0.155130	4.392128	-0.747742	-0.335739	-0.507732	0.265273
44159	-8.567606	3.255183	4.102896	-0.741805	-0.346786	-0.502479	0.277452
44160	-8.739021	4.613450	3.397804	-0.738021	-0.351810	-0.499057	0.287224
44161	-8.924689	4.046645	2.925592	-0.736822	-0.350554	-0.497663	0.294171
44162	-9.246683	2.684761	2.220688	-0.737074	-0.345846	-0.497084	0.300033
44163	-9.531143	1.823366	1.597027	-0.737117	-0.340775	-0.496918	0.305946
44164	-10.159320	1.451040	1.394371	-0.736515	-0.336478	-0.496861	0.312181
44165	-10.576163	1.264089	1.344542	-0.735484	-0.332982	-0.496644	0.318640
44166	-10.610121	0.983902	1.463822	-0.734126	-0.330582	-0.495881	0.325387
44167	-10.381499	0.865489	1.498531	-0.732281	-0.329838	-0.494262	0.332680
44168	-10.119204	0.894558	1.567635	-0.730074	-0.330646	-0.491791	0.340304
44169	-9.877890	0.986651	1.526533	-0.727907	-0.332348	-0.488568	0.347848
44170	-9.673392	1.225009	1.480388	-0.725882	-0.334678	-0.484751	0.355109
44171	-9.640240	1.509950	1.513832	-0.724010	-0.337428	-0.480490	0.362050
44172	-9.523206	1.811250	1.501039	-0.722335	-0.340189	-0.476141	0.368501
44173	-9.436823	1.977725	1.548192	-0.720927	-0.342432	-0.472120	0.374309
44174	-9.266175	1.933504	1.567687	-0.719658	-0.344253	-0.468420	0.379691
44175	-9.061670	1.797136	1.580530	-0.718237	-0.346048	-0.464921	0.385012
44176	-8.814328	1.852456	1.600733	-0.716563	-0.348084	-0.461518	0.390354
44177	-8.646701	1.950343	1.580674	-0.714565	-0.350330	-0.458351	0.395701
44178	-8.562677	1.945362	1.622751	-0.712256	-0.352721	-0.455495	0.401004
44179	-8.513520	1.940843	1.655859	-0.709463	-0.355430	-0.452995	0.406358
44180	-8.469226	1.977627	1.764458	-0.706093	-0.358492	-0.450983	0.411742
44181	-8.485420	2.104753	1.862791	-0.702219	-0.361830	-0.449488	0.417046
44182	-8.518172	2.221957	2.003796	-0.697953	-0.365264	-0.448586	0.422154
44183	-8.584869	2.268155	2.107844	-0.693402	-0.368594	-0.448395	0.426935
44184	-8.683537	2.327880	2.189731	-0.688639	-0.371743	-0.449007	0.431249
44185	-8.839556	2.320266	2.293013	-0.683809	-0.374537	-0.450488	0.434958
44186	-8.973659	2.234170	2.390663	-0.678984	-0.377000	-0.452761	0.438018
44187	-9.085336	2.173587	2.496827	-0.674275	-0.379157	-0.455706	0.440369
44188	-9.081605	2.072724	2.585166	-0.669765	-0.381060	-0.459208	0.441968
44189	-9.100406	1.981824	2.743644	-0.665547	-0.382736	-0.463136	0.442793
44190	-9.122558	1.930422	2.838543	-0.661758	-0.384102	-0.467390	0.442818
44191	-9.157224	1.839498	2.923267	-0.658459	-0.385171	-0.471861	0.442066
44192	-9.282361	1.554552	3.020217	-0.655670	-0.385835	-0.476596	0.440551
44193	-9.564317	1.362615	3.159330	-0.653146	-0.386481	-0.481038	0.438902
44194	-9.722757	1.150927	3.701665	-0.650486	-0.388416	-0.484208	0.437657
44195	-9.965429	0.743327	3.987270	-0.647690	-0.392102	-0.484933	0.437713
44196	-9.985770	0.714107	3.947993	-0.644408	-0.397514	-0.483553	0.439201
44197	-9.966047	0.955448	3.956698	-0.641246	-0.403040	-0.480835	0.441769
44198	-9.772875	1.839315	4.047473	-0.637948	-0.408604	-0.477416	0.445128
44199	-9.801535	2.769723	4.303189	-0.635430	-0.412665	-0.474605	0.447980
44200	-9.727656	2.743465	4.168055	-0.634634	-0.414081	-0.473044	0.449451
44201	-9.583478	2.288650	3.803072	-0.635349	-0.413421	-0.472510	0.449610
44202	-9.534006	1.877126	3.384082	-0.636970	-0.411895	-0.472337	0.448898
44203	-9.567198	1.767160	3.096142	-0.639271	-0.409863	-0.472272	0.447553
44204	-9.589945	1.776426	2.880264	-0.642293	-0.407130	-0.472470	0.445507
44205	-9.564031	1.731244	2.678659	-0.645968	-0.403640	-0.472989	0.442810
44206	-9.573710	1.492271	2.545445	-0.650023	-0.399707	-0.473669	0.439707
44207	-9.585835	1.226895	2.439523	-0.654133	-0.395856	-0.474223	0.436486
44208	-9.526632	1.085543	2.229809	-0.658047	-0.392611	-0.474237	0.433508
44209	-9.431672	1.050191	2.133015	-0.661682	-0.390106	-0.473625	0.430899
44210	-9.458299	1.122997	2.045651	-0.664918	-0.388431	-0.472448	0.428718
44211	-9.475495	1.286756	2.005163	-0.667692	-0.387498	-0.470856	0.426998
44212	-9.439859	1.469342	1.959599	-0.670154	-0.386909	-0.469095	0.425611
44213	-9.344848	1.423710	1.967284	-0.672490	-0.386313	-0.467393	0.424338
44214	-9.232435	1.281818	2.021042	-0.674596	-0.385969	-0.465593	0.423286
44215	-9.166935	1.333359	2.053076	-0.676442	-0.385979	-0.463699	0.422410
44216	-9.100984	1.490741	2.060130	-0.678141	-0.386114	-0.461964	0.421462
44217	-9.069224	1.569523	2.085323	-0.679786	-0.386079	-0.460662	0.420267
44218	-9.099123	1.540697	2.112011	-0.681417	-0.385776	-0.459850	0.418792
44219	-9.117550	1.511370	2.107976	-0.683013	-0.385300	-0.459475	0.417037
44220	-9.124214	1.521650	2.110823	-0.684542	-0.384685	-0.459520	0.415043
44221	-9.172021	1.552440	2.157449	-0.686013	-0.383889	-0.459985	0.412831
44222	-9.189377	1.514839	2.125350	-0.687456	-0.382871	-0.460860	0.410393
44223	-9.157531	1.439835	2.110387	-0.688766	-0.381769	-0.462118	0.407799
44224	-9.199189	1.391242	2.105370	-0.689911	-0.380676	-0.463648	0.405141
44225	-9.209523	1.353827	2.096901	-0.690859	-0.379636	-0.465454	0.402422
44226	-9.227777	1.373956	2.172081	-0.691631	-0.378637	-0.467422	0.399747
44227	-9.215551	1.351287	2.204820	-0.692258	-0.377616	-0.469586	0.397081
44228	-9.231698	1.323201	2.252765	-0.692725	-0.376625	-0.471899	0.394457
44229	-9.288200	1.283449	2.274769	-0.693072	-0.375701	-0.474227	0.391930
44230	-9.332245	1.254778	2.304248	-0.693311	-0.374806	-0.476581	0.389502
44231	-9.351020	1.235494	2.348802	-0.693433	-0.373993	-0.478919	0.387191
44232	-9.380174	1.266313	2.361632	-0.693422	-0.373317	-0.481195	0.385034
44233	-9.413435	1.283107	2.438052	-0.693346	-0.372650	-0.483450	0.382986
44234	-9.435562	1.341801	2.443562	-0.693188	-0.371979	-0.485728	0.381039
44235	-9.431405	1.325647	2.503860	-0.693026	-0.371161	-0.488017	0.379202
44236	-9.458656	1.300540	2.528899	-0.692858	-0.370262	-0.490264	0.377485
44237	-9.433592	1.258744	2.549188	-0.692654	-0.369417	-0.492364	0.375951
44238	-9.464646	1.264992	2.564817	-0.692447	-0.368620	-0.494303	0.374569
44239	-9.532818	1.277027	2.561375	-0.692256	-0.367823	-0.496058	0.373383
44240	-9.507278	1.289003	2.548442	-0.692086	-0.367009	-0.497660	0.372366
44241	-9.533563	1.301807	2.541817	-0.691928	-0.366222	-0.499055	0.371567
44242	-9.503874	1.307109	2.500991	-0.691779	-0.365465	-0.500271	0.370954
44243	-9.536398	1.303371	2.509621	-0.691652	-0.364793	-0.501266	0.370508
44244	-9.532711	1.293196	2.489090	-0.691572	-0.364214	-0.501992	0.370243
44245	-9.562588	1.306806	2.508549	-0.691542	-0.363695	-0.502492	0.370132
44246	-9.573469	1.321224	2.472279	-0.691560	-0.363257	-0.502753	0.370174
44247	-9.568206	1.329453	2.411462	-0.691621	-0.362950	-0.502777	0.370328
44248	-9.506994	1.327427	2.402667	-0.691780	-0.362726	-0.502569	0.370532
44249	-9.550918	1.413198	2.367552	-0.691983	-0.362631	-0.502158	0.370804
44250	-9.626276	1.530409	2.338927	-0.692241	-0.362506	-0.501680	0.371091
44251	-9.661685	1.493968	2.318786	-0.692608	-0.362219	-0.501216	0.371313
44252	-9.616942	1.292545	2.294020	-0.693066	-0.362005	-0.500574	0.371533
44253	-9.561070	1.240568	2.292534	-0.693434	-0.362193	-0.499702	0.371838
44254	-9.484905	1.412243	2.318135	-0.693808	-0.362571	-0.498688	0.372134
44255	-9.434230	1.532903	2.316278	-0.694403	-0.362700	-0.497700	0.372220
44256	-9.342591	1.450903	2.277571	-0.695218	-0.362573	-0.496803	0.372020
44257	-9.360143	1.320591	2.266296	-0.696036	-0.362487	-0.495929	0.371740
44258	-9.366489	1.336343	2.276883	-0.696825	-0.362474	-0.495018	0.371490
44259	-9.317475	1.373130	2.255546	-0.697563	-0.362480	-0.494132	0.371279
44260	-9.302943	1.431052	2.269395	-0.698188	-0.362529	-0.493325	0.371130
44261	-9.264601	1.405062	2.242681	-0.698715	-0.362556	-0.492647	0.371011
44262	-9.241937	1.371144	2.239066	-0.699170	-0.362515	-0.492064	0.370969
44263	-9.291745	1.364621	2.249060	-0.699472	-0.362632	-0.491524	0.371001
