// Start Time: Unknown
// Update Rate: 60.0Hz
// Filter Profile: human (46.1)
// Option Flags: AHS Disabled ICC Disabled 
// Firmware Version: 4.3.5
PacketCounter	Acc_X	Acc_Y	Acc_Z	Quat_q0	Quat_q1	Quat_q2	Quat_q3
39183	-2.100208	0.795931	9.602869	-0.808164	0.031914	-0.112680	-0.577196
39184	-2.050007	0.866598	9.504962	-0.808274	0.031751	-0.112535	-0.577080
39185	-2.109545	0.653043	9.500844	-0.808443	0.031490	-0.112468	-0.576871
39186	-2.124487	0.679180	9.483843	-0.808629	0.031042	-0.112600	-0.576608
39187	-2.088738	0.778801	9.501216	-0.808775	0.030555	-0.112796	-0.576391
39188	-2.089024	0.827847	9.529530	-0.808894	0.030220	-0.112942	-0.576213
39189	-2.132713	0.864656	9.478981	-0.808988	0.030050	-0.112984	-0.576081
39190	-2.156141	0.885893	9.505277	-0.809079	0.030192	-0.112917	-0.575960
39191	-2.065607	0.584937	9.477325	-0.809142	0.030542	-0.112885	-0.575858
39192	-2.094980	0.615793	9.443334	-0.809203	0.030401	-0.113171	-0.575725
39193	-2.112119	0.819656	9.540453	-0.809222	0.030244	-0.113557	-0.575630
39194	-2.085867	0.771814	9.514118	-0.809198	0.030131	-0.113995	-0.575583
39195	-2.111477	0.903869	9.551852	-0.809190	0.029985	-0.114429	-0.575516
39196	-2.231140	0.902040	9.535873	-0.809222	0.030152	-0.114698	-0.575409
39197	-2.204518	0.775433	9.555756	-0.809303	0.030287	-0.114917	-0.575244
39198	-2.155222	0.765453	9.694569	-0.809384	0.030203	-0.115239	-0.575070
39199	-2.128129	0.905889	9.738813	-0.809385	0.029907	-0.115724	-0.574987
39200	-2.185117	1.060295	9.712675	-0.809340	0.029821	-0.116032	-0.574993
39201	-2.199708	0.990111	9.682023	-0.809262	0.029901	-0.116221	-0.575060
39202	-2.262382	1.003220	9.732355	-0.809181	0.030090	-0.116333	-0.575141
39203	-2.190247	0.822266	9.641538	-0.809125	0.030010	-0.116561	-0.575178
39204	-2.212515	1.006158	9.619348	-0.809083	0.029598	-0.116949	-0.575180
39205	-2.250251	1.067804	9.671387	-0.809017	0.029465	-0.117156	-0.575236
39206	-2.137055	1.031783	9.657175	-0.808928	0.029526	-0.117176	-0.575356
39207	-2.178027	1.051547	9.651532	-0.808839	0.029722	-0.117060	-0.575494
39208	-2.168709	0.921845	9.685373	-0.808693	0.029948	-0.116921	-0.575716
39209	-2.159534	0.854809	9.584633	-0.808503	0.029986	-0.116941	-0.575976
39210	-2.213505	0.962966	9.560411	-0.808366	0.029778	-0.117015	-0.576164
39211	-2.084541	0.987524	9.473425	-0.808278	0.029736	-0.116946	-0.576303
39212	-2.125326	0.885466	9.588589	-0.808192	0.029849	-0.116809	-0.576446
39213	-2.182738	0.708633	9.555210	-0.808074	0.029955	-0.116735	-0.576621
39214	-2.169296	0.935620	9.552574	-0.808000	0.029809	-0.116727	-0.576734
39215	-2.136638	1.066304	9.451089	-0.807975	0.029908	-0.116552	-0.576800
39216	-2.125832	0.715096	9.312088	-0.807988	0.030214	-0.116217	-0.576832
39217	-2.116291	0.668122	9.388511	-0.808025	0.030242	-0.116109	-0.576801
39218	-2.133323	0.606904	9.638571	-0.807991	0.030412	-0.116189	-0.576823
39219	-2.044753	0.509025	9.607282	-0.807909	0.030296	-0.116507	-0.576880
39220	-2.109450	0.667961	9.491434	-0.807755	0.029666	-0.117245	-0.576979
39221	-2.172446	1.039651	9.459412	-0.807633	0.029144	-0.117766	-0.577070
39222	-2.185310	0.860899	9.297895	-0.807609	0.028938	-0.118042	-0.577058
39223	-2.433180	0.923378	9.440342	-0.807754	0.028762	-0.118171	-0.576838
39224	-2.141883	0.596874	9.604502	-0.807892	0.028941	-0.118284	-0.576612
39225	-2.039611	0.531395	9.560044	-0.807932	0.028575	-0.118771	-0.576474
39226	-2.090350	0.846338	9.633676	-0.807874	0.028321	-0.119360	-0.576446
39227	-2.106629	0.892408	9.407451	-0.807825	0.028279	-0.119837	-0.576419
39228	-2.251001	0.902382	9.194368	-0.807879	0.028138	-0.120213	-0.576271
39229	-2.233043	0.562441	9.115956	-0.808052	0.027950	-0.120562	-0.575964
39230	-2.177844	0.140498	8.734722	-0.808215	0.026980	-0.121528	-0.575580
39231	-2.078790	0.320595	9.082738	-0.808213	0.025231	-0.123379	-0.575268
39232	-1.946702	0.671507	9.205648	-0.808002	0.023794	-0.125522	-0.575162
39233	-2.091399	0.998444	9.228477	-0.807686	0.023101	-0.127509	-0.575197
39234	-2.119032	1.210750	9.093594	-0.807457	0.023679	-0.128949	-0.575173
39235	-2.237396	0.955991	8.743312	-0.807398	0.024836	-0.130189	-0.574928
39236	-2.379908	0.711394	8.358212	-0.807490	0.025442	-0.131705	-0.574427
39237	-2.480108	0.747405	8.485187	-0.807631	0.024886	-0.134026	-0.573715
39238	-2.034304	0.915227	8.438477	-0.807751	0.024231	-0.136653	-0.572954
39239	-1.876509	0.633364	8.682152	-0.807729	0.024263	-0.139566	-0.572282
39240	-2.005776	0.681858	8.357294	-0.807751	0.024653	-0.142841	-0.571425
39241	-2.382468	0.875548	8.261213	-0.807896	0.025263	-0.146253	-0.570330
39242	-2.652264	1.040249	8.582854	-0.808117	0.025987	-0.149852	-0.569048
39243	-2.334331	1.117914	9.062227	-0.808196	0.027227	-0.153594	-0.567879
39244	-2.311018	1.397811	9.192358	-0.808185	0.028737	-0.157476	-0.566755
39245	-2.728420	1.434994	9.368757	-0.808114	0.031021	-0.161234	-0.565679
39246	-3.058136	1.362272	9.670991	-0.807971	0.033444	-0.164958	-0.564671
39247	-3.209821	1.284538	10.280218	-0.807638	0.035240	-0.169099	-0.563812
39248	-3.154345	1.955507	10.930556	-0.807028	0.036377	-0.173513	-0.563273
39249	-3.667301	2.300787	11.482942	-0.806174	0.037764	-0.177357	-0.563207
39250	-3.975352	2.117452	11.516989	-0.805308	0.039116	-0.180240	-0.563439
39251	-4.018154	1.885476	11.349617	-0.804558	0.039718	-0.182425	-0.563764
39252	-4.021854	1.995466	11.061048	-0.803964	0.039285	-0.183972	-0.564138
39253	-3.865380	1.756370	10.539866	-0.803534	0.038154	-0.184948	-0.564511
39254	-3.527433	1.462099	9.754238	-0.803416	0.036215	-0.185735	-0.564547
39255	-3.223377	1.142407	8.553861	-0.803689	0.033538	-0.186673	-0.564015
39256	-3.431176	1.204756	8.128618	-0.804291	0.030130	-0.188066	-0.562885
39257	-3.096646	1.837196	7.860285	-0.805112	0.027475	-0.189049	-0.561516
39258	-2.610483	1.615686	7.778445	-0.805983	0.027333	-0.189291	-0.560190
39259	-2.552905	0.923759	7.318439	-0.806906	0.028801	-0.189598	-0.558682
39260	-2.594680	0.237799	6.721937	-0.807743	0.030438	-0.190650	-0.557025
39261	-2.499768	0.294433	5.975857	-0.808425	0.031290	-0.193089	-0.555146
39262	-2.440760	1.175171	5.223861	-0.809092	0.032128	-0.196695	-0.552856
39263	-2.892357	2.248874	5.893674	-0.809704	0.035478	-0.200208	-0.550488
39264	-3.235331	1.306672	6.510462	-0.810068	0.042353	-0.203101	-0.548403
39265	-2.929784	0.193111	6.417010	-0.810179	0.050129	-0.206531	-0.546299
39266	-2.895353	-0.011765	5.841001	-0.810115	0.056737	-0.211482	-0.543847
39267	-2.984797	1.071615	5.381840	-0.809948	0.063475	-0.217791	-0.540854
39268	-4.215348	1.056971	6.305437	-0.809475	0.071272	-0.224807	-0.537710
39269	-4.639344	0.710048	6.220858	-0.808677	0.079939	-0.232158	-0.534559
39270	-4.375770	0.191467	6.299002	-0.807597	0.087743	-0.240746	-0.531158
39271	-4.018403	0.181621	6.160994	-0.806308	0.094923	-0.251063	-0.527091
39272	-4.042422	0.093474	5.275058	-0.804685	0.102893	-0.262745	-0.522359
39273	-6.025052	0.625687	5.145890	-0.802832	0.109891	-0.276293	-0.516766
39274	-8.285064	1.683926	6.809483	-0.801029	0.116284	-0.289400	-0.510958
39275	-7.069043	2.193650	7.194639	-0.799236	0.124754	-0.300438	-0.505366
39276	-5.716825	1.006363	6.419552	-0.797189	0.134163	-0.311235	-0.499622
39277	-5.612329	0.240511	5.080962	-0.794929	0.143978	-0.322855	-0.493074
39278	-6.502405	-0.592799	3.988994	-0.792157	0.152882	-0.336986	-0.485339
39279	-9.745662	-1.580491	5.299401	-0.789472	0.156663	-0.354372	-0.476037
39280	-10.030517	0.551327	5.309911	-0.787949	0.155945	-0.372341	-0.464952
39281	-8.371896	2.328760	6.109411	-0.786512	0.155109	-0.389968	-0.453062
39282	-7.776402	2.013031	4.699560	-0.784559	0.157365	-0.406912	-0.440597
39283	-7.659911	0.736203	3.908210	-0.781707	0.162783	-0.424084	-0.427304
39284	-9.199211	-0.634700	3.190573	-0.778332	0.167302	-0.442683	-0.412603
39285	-11.359492	-0.960294	4.064034	-0.775865	0.167091	-0.462272	-0.395498
39286	-11.255691	1.115098	5.350932	-0.774676	0.164266	-0.480186	-0.377247
39287	-9.860349	2.489114	6.143123	-0.773083	0.162610	-0.496842	-0.359233
39288	-9.754106	1.803064	4.912305	-0.769726	0.164766	-0.513060	-0.342262
39289	-10.797326	0.835283	3.634950	-0.764598	0.170543	-0.529720	-0.325118
39290	-13.620837	-0.592488	3.240504	-0.759141	0.176496	-0.545926	-0.307440
39291	-14.888958	-0.180004	4.476504	-0.756462	0.177124	-0.560147	-0.287451
39292	-13.235138	2.442078	6.751215	-0.755643	0.176263	-0.571579	-0.266893
39293	-11.828808	3.272286	7.411886	-0.753865	0.179413	-0.581000	-0.248874
39294	-11.165002	1.806589	6.920948	-0.750543	0.186763	-0.589337	-0.233425
39295	-11.759094	0.149187	5.519948	-0.746171	0.195352	-0.597545	-0.219103
39296	-12.949239	-0.456760	4.825383	-0.742864	0.201952	-0.604649	-0.204374
39297	-13.115411	0.781245	5.721910	-0.741591	0.206684	-0.609617	-0.188924
39298	-12.396382	1.167910	6.279097	-0.741129	0.211821	-0.612748	-0.174353
39299	-11.793783	0.623700	6.224014	-0.741309	0.216706	-0.614682	-0.160203
39300	-11.086827	-0.016313	5.961869	-0.741831	0.221228	-0.616073	-0.145601
39301	-10.575132	-0.793194	5.396318	-0.742464	0.225425	-0.617233	-0.130212
39302	-10.714735	-1.887196	5.131719	-0.743387	0.228902	-0.618120	-0.113608
39303	-10.734772	-2.828766	4.769353	-0.744870	0.231065	-0.618612	-0.095376
39304	-10.701077	-3.395573	4.476839	-0.746940	0.231267	-0.618769	-0.075640
39305	-10.587035	-3.493079	4.078504	-0.749945	0.229419	-0.618006	-0.054934
39306	-10.807708	-3.412656	3.783974	-0.753648	0.226391	-0.616117	-0.034090
39307	-10.865273	-3.727536	3.521867	-0.758256	0.223486	-0.612300	-0.013822
39308	-10.637121	-4.197306	3.347836	-0.763199	0.222039	-0.606787	0.005974
39309	-10.443558	-4.773637	3.258404	-0.768344	0.222256	-0.599664	0.025541
39310	-9.950497	-5.530970	3.246424	-0.773663	0.223975	-0.590975	0.045058
39311	-9.435050	-5.904263	3.204490	-0.779451	0.225699	-0.580787	0.064820
39312	-9.033756	-5.355729	3.374588	-0.785679	0.227371	-0.569051	0.084805
39313	-8.490912	-5.261487	3.638672	-0.791786	0.230517	-0.555943	0.104234
39314	-7.975933	-6.312401	3.776216	-0.796819	0.235862	-0.542631	0.122471
39315	-8.095783	-7.249408	3.670265	-0.801784	0.241274	-0.528277	0.140898
39316	-7.727350	-7.146272	3.984481	-0.807468	0.245188	-0.512023	0.160345
39317	-6.942463	-6.648046	4.232710	-0.813101	0.248797	-0.494698	0.179558
39318	-6.189570	-6.041384	4.363022	-0.818050	0.252689	-0.477048	0.198413
39319	-5.920777	-5.765216	4.128694	-0.821404	0.258197	-0.460374	0.216068
39320	-6.061766	-6.697916	3.736225	-0.823367	0.266060	-0.444406	0.231912
39321	-6.318018	-7.649208	3.555673	-0.824913	0.274057	-0.428018	0.247409
39322	-5.964917	-7.264755	3.529416	-0.827214	0.280478	-0.409875	0.262778
39323	-4.804092	-6.181413	3.944502	-0.829981	0.285710	-0.390572	0.277409
39324	-3.660030	-5.212584	4.217385	-0.831840	0.292087	-0.372146	0.290234
39325	-2.820402	-5.290568	4.331020	-0.831869	0.300559	-0.356056	0.301465
39326	-3.097239	-6.366793	3.806189	-0.830793	0.309346	-0.341653	0.312028
39327	-3.096838	-6.823652	3.828292	-0.830259	0.316672	-0.326591	0.322066
39328	-2.454668	-6.711814	4.096940	-0.830374	0.322262	-0.311385	0.331159
39329	-1.703304	-6.208607	4.616399	-0.830887	0.326044	-0.296690	0.339554
39330	-1.268079	-5.509154	4.829296	-0.830486	0.330152	-0.284438	0.346968
39331	-1.358354	-6.097550	4.677052	-0.828856	0.335629	-0.275022	0.353147
39332	-1.732701	-6.936406	4.331343	-0.827146	0.340747	-0.267288	0.358160
39333	-1.869697	-7.295861	4.489740	-0.826399	0.344027	-0.259955	0.362124
39334	-1.483405	-7.070566	4.649194	-0.826782	0.345468	-0.252593	0.365075
39335	-1.209403	-6.366680	5.144088	-0.827127	0.346991	-0.246301	0.367144
39336	-1.139816	-6.290609	5.252640	-0.826731	0.349275	-0.241589	0.368996
39337	-0.933420	-6.857846	5.178971	-0.825649	0.352403	-0.238273	0.370595
39338	-0.869185	-7.469993	4.783763	-0.825021	0.354638	-0.235814	0.371434
39339	-0.772991	-7.348521	5.239640	-0.825536	0.355058	-0.233375	0.371431
39340	-0.728497	-6.843923	5.871172	-0.826353	0.355146	-0.231800	0.370514
39341	-0.738070	-6.858092	6.242772	-0.827113	0.355684	-0.230990	0.368805
39342	-0.313177	-7.086791	6.356781	-0.827407	0.357112	-0.231244	0.366599
39343	-0.150579	-7.457828	6.006181	-0.827693	0.358319	-0.232381	0.364049
39344	-0.138036	-7.786823	5.898352	-0.828575	0.357954	-0.234061	0.361313
39345	-0.822969	-7.479116	6.451810	-0.830345	0.355567	-0.236210	0.358195
39346	-1.552797	-7.528599	6.826403	-0.832348	0.352921	-0.239554	0.353918
39347	-2.350277	-7.952453	7.053585	-0.834209	0.350397	-0.244321	0.348748
39348	-3.190599	-8.277139	6.535269	-0.835790	0.348216	-0.250453	0.342746
39349	-3.669172	-8.320826	5.881572	-0.837468	0.345823	-0.257327	0.335912
39350	-3.653332	-7.968466	5.447278	-0.839360	0.342001	-0.265832	0.328394
39351	-4.893245	-7.418242	5.075144	-0.840764	0.337977	-0.277249	0.319408
39352	-6.783664	-7.239998	4.736527	-0.841785	0.334670	-0.290384	0.308338
39353	-7.711557	-7.782876	4.211699	-0.843095	0.330670	-0.303880	0.295812
39354	-8.080048	-7.278751	3.925717	-0.845398	0.324249	-0.316909	0.282371
39355	-8.385044	-5.960991	4.171103	-0.847557	0.317317	-0.329875	0.268587
39356	-8.564816	-5.327016	4.197719	-0.848291	0.312256	-0.343391	0.254912
39357	-8.374736	-4.839852	3.960696	-0.847460	0.307827	-0.358325	0.242191
39358	-8.596652	-4.665673	3.805712	-0.844977	0.304269	-0.375333	0.229258
39359	-9.375528	-5.494236	3.607241	-0.841899	0.301505	-0.392837	0.214429
39360	-9.248157	-6.846727	3.390135	-0.839608	0.296813	-0.409047	0.199101
39361	-8.963759	-6.726290	3.679870	-0.838329	0.289116	-0.423473	0.185167
39362	-8.528498	-5.459139	4.308873	-0.836848	0.280784	-0.437109	0.172573
39363	-8.107395	-4.723012	4.462130	-0.833636	0.275026	-0.451538	0.159765
39364	-7.950324	-4.892482	3.941783	-0.828511	0.271800	-0.467362	0.145832
39365	-8.495846	-5.660843	3.583662	-0.822694	0.270232	-0.483009	0.129813
39366	-9.002628	-6.995882	3.160350	-0.817860	0.268130	-0.496451	0.112903
39367	-9.257530	-6.926188	3.524609	-0.814521	0.264252	-0.507226	0.097206
39368	-8.754493	-5.935825	4.256648	-0.811096	0.261578	-0.516622	0.082472
39369	-8.102239	-5.642923	4.129471	-0.806574	0.261467	-0.525726	0.068451
39370	-7.982184	-5.616018	3.921807	-0.801562	0.262924	-0.534318	0.053601
39371	-7.709895	-6.436821	3.672843	-0.797171	0.264641	-0.541358	0.037627
39372	-7.426206	-6.748750	3.710674	-0.793648	0.264870	-0.547209	0.023009
39373	-7.293459	-5.931391	4.144486	-0.790494	0.264869	-0.552148	0.009800
39374	-6.767448	-5.495117	4.412590	-0.787152	0.265987	-0.556450	-0.002560
39375	-6.453486	-5.845320	3.824578	-0.783112	0.268381	-0.560804	-0.014397
39376	-6.763543	-5.810493	3.391402	-0.779032	0.270343	-0.565144	-0.025228
39377	-7.071071	-5.287487	3.294511	-0.775847	0.271283	-0.568515	-0.035463
39378	-6.776136	-4.886373	3.797950	-0.773334	0.271985	-0.570914	-0.045113
39379	-6.421750	-4.519571	4.291983	-0.770679	0.273448	-0.573021	-0.054101
39380	-6.318489	-4.474953	4.510893	-0.767451	0.276289	-0.575101	-0.062783
39381	-6.622746	-4.877568	4.014816	-0.763987	0.279974	-0.576983	-0.070909
39382	-6.797396	-4.832597	3.637875	-0.760916	0.283109	-0.578581	-0.078109
39383	-7.132981	-4.331313	3.554461	-0.758055	0.285673	-0.580095	-0.085048
39384	-7.399389	-4.263387	3.610117	-0.755505	0.288135	-0.581163	-0.091875
39385	-7.234902	-4.267297	3.901518	-0.753334	0.290342	-0.581914	-0.097804
39386	-6.974221	-4.111023	4.162747	-0.751292	0.292267	-0.582744	-0.102713
39387	-6.796944	-4.034990	4.087685	-0.749106	0.294451	-0.583652	-0.107185
39388	-6.838251	-4.355206	3.662252	-0.746902	0.296535	-0.584681	-0.111138
39389	-6.787020	-4.251586	3.496858	-0.745188	0.297193	-0.586007	-0.113870
39390	-7.004458	-3.797671	3.888266	-0.743441	0.297079	-0.587855	-0.116042
39391	-7.345557	-3.841554	3.928205	-0.741269	0.297231	-0.590099	-0.118140
39392	-7.740235	-3.877501	3.894650	-0.738919	0.296942	-0.592933	-0.119394
39393	-7.958118	-3.668933	4.059619	-0.736371	0.296505	-0.596175	-0.120077
39394	-7.712085	-4.172756	4.037497	-0.733247	0.296182	-0.600219	-0.119844
39395	-8.194372	-4.265676	3.555116	-0.729846	0.294891	-0.605227	-0.118595
39396	-9.006927	-4.090946	3.153415	-0.726870	0.292726	-0.610142	-0.117041
39397	-9.185572	-3.944581	2.945866	-0.724773	0.289534	-0.614632	-0.114465
39398	-9.139239	-3.558217	2.771088	-0.722940	0.286430	-0.618863	-0.111012
39399	-9.219807	-3.408606	2.261249	-0.721549	0.283822	-0.622312	-0.107426
39400	-8.801892	-3.756420	2.016424	-0.721158	0.281541	-0.624485	-0.103364
39401	-8.295402	-4.070221	1.863448	-0.721936	0.279393	-0.625305	-0.098705
39402	-7.743731	-4.503260	2.009059	-0.723452	0.278029	-0.624910	-0.093829
39403	-8.256264	-5.049318	2.087351	-0.725381	0.277794	-0.623464	-0.089138
39404	-8.576243	-5.753115	2.220278	-0.728619	0.278112	-0.620289	-0.083728
39405	-8.404824	-5.940424	2.525530	-0.733234	0.278738	-0.615445	-0.076811
39406	-7.512694	-6.203570	2.884140	-0.739083	0.279978	-0.608892	-0.067968
39407	-6.747204	-7.117823	3.161356	-0.745451	0.281705	-0.601461	-0.056477
39408	-8.456686	-7.552196	2.841287	-0.751490	0.284727	-0.593473	-0.044533
39409	-11.160104	-8.181562	2.234638	-0.759284	0.287911	-0.582677	-0.032903
39410	-11.582001	-8.056461	2.490592	-0.769057	0.290981	-0.568780	-0.019253
39411	-9.648755	-7.068412	3.027742	-0.779081	0.295278	-0.553021	-0.003328
39412	-7.580649	-7.409463	3.370710	-0.788366	0.300861	-0.536450	0.013509
39413	-7.478480	-8.760883	3.554814	-0.796972	0.305697	-0.519986	0.031619
39414	-9.002565	-9.721328	3.404653	-0.805379	0.308478	-0.503551	0.051398
39415	-10.935583	-9.377653	3.002776	-0.814334	0.309292	-0.485863	0.071668
39416	-11.141924	-8.402835	3.147884	-0.823266	0.309673	-0.466708	0.092298
39417	-10.015650	-7.685166	3.285897	-0.830665	0.311808	-0.447108	0.113430
39418	-8.941984	-8.273592	3.644797	-0.836503	0.315119	-0.427580	0.134678
39419	-8.631266	-9.285194	3.649053	-0.841663	0.317461	-0.407976	0.156134
39420	-9.310534	-9.702904	3.357619	-0.846877	0.317619	-0.387601	0.177995
39421	-9.196180	-8.735544	3.121497	-0.852609	0.315255	-0.365606	0.200012
39422	-8.038242	-6.997495	3.594971	-0.857111	0.313076	-0.343547	0.222080
39423	-6.944449	-6.460518	3.794451	-0.859183	0.313180	-0.322958	0.243762
39424	-6.160119	-6.915372	3.625265	-0.859615	0.314217	-0.303610	0.264860
39425	-6.029198	-7.370623	3.554952	-0.859381	0.315027	-0.284967	0.284632
39426	-5.679541	-7.699384	3.255063	-0.859544	0.314022	-0.265622	0.303347
39427	-4.635150	-7.332737	3.224145	-0.860215	0.310866	-0.245427	0.321182
39428	-3.685419	-6.143732	3.606128	-0.860435	0.307042	-0.225727	0.338267
39429	-3.339177	-5.235176	4.043762	-0.859404	0.304689	-0.207830	0.354113
39430	-3.036741	-5.413658	4.176886	-0.857186	0.304687	-0.192173	0.368058
39431	-2.871541	-5.887049	4.246249	-0.854755	0.305841	-0.178238	0.379587
39432	-2.610879	-6.163286	4.021530	-0.852832	0.306582	-0.165176	0.389105
39433	-2.114181	-5.708866	3.847424	-0.851613	0.305998	-0.152201	0.397435
39434	-1.293495	-4.812806	4.386188	-0.850599	0.304645	-0.139883	0.405100
39435	-0.628288	-4.192797	4.860310	-0.849190	0.304243	-0.129172	0.411859
39436	-0.054805	-4.305326	5.212515	-0.847398	0.305053	-0.120600	0.417511
39437	-0.011604	-4.607753	5.393031	-0.845609	0.306566	-0.113923	0.421881
39438	-0.015498	-5.094914	5.284693	-0.844119	0.308191	-0.108395	0.425126
39439	0.182421	-5.196429	5.215110	-0.843310	0.308804	-0.103423	0.427519
39440	0.235469	-4.779992	5.275000	-0.843317	0.307927	-0.098514	0.429293
39441	0.383511	-3.918857	6.164811	-0.843509	0.306679	-0.093970	0.430825
39442	0.762665	-4.024521	6.526316	-0.843215	0.306952	-0.090823	0.431880
39443	1.078410	-5.009485	6.769655	-0.843045	0.307421	-0.088175	0.432426
39444	1.263386	-5.484864	7.028115	-0.843259	0.307193	-0.085958	0.432618
39445	1.476387	-5.253587	7.262566	-0.843756	0.306612	-0.084298	0.432386
39446	1.945441	-5.001230	7.818590	-0.844244	0.306269	-0.083621	0.431809
39447	2.090582	-5.548650	8.023438	-0.844829	0.305867	-0.084377	0.430801
39448	1.946523	-5.916667	7.944507	-0.845939	0.305529	-0.086114	0.428513
39449	1.773033	-6.005681	8.499534	-0.847597	0.305195	-0.089039	0.424861
39450	1.546820	-6.162231	8.708896	-0.849314	0.305176	-0.093799	0.420398
39451	1.298116	-6.604064	8.724265	-0.851094	0.304930	-0.099933	0.415536
39452	0.502958	-6.949933	8.985395	-0.853031	0.304332	-0.107226	0.410150
39453	-1.204849	-6.996869	8.672922	-0.855242	0.303595	-0.115646	0.403753
39454	-3.702661	-7.156041	8.582576	-0.857540	0.302532	-0.124828	0.396886
39455	-5.333785	-7.574303	7.736662	-0.859658	0.301396	-0.135261	0.389683
39456	-6.305935	-7.870994	7.086130	-0.862334	0.298634	-0.146511	0.381749
39457	-6.111205	-7.645183	6.890640	-0.865342	0.295116	-0.159349	0.372420
39458	-5.473361	-7.484238	6.455936	-0.868072	0.291974	-0.174970	0.361370
39459	-6.096460	-7.604448	6.740663	-0.870146	0.290191	-0.193371	0.348201
39460	-7.068887	-8.246839	6.519772	-0.872010	0.288996	-0.213200	0.332603
39461	-7.131452	-7.757147	6.077450	-0.874739	0.285774	-0.233125	0.314352
39462	-6.495665	-6.362169	6.222944	-0.877413	0.281244	-0.254660	0.293594
39463	-7.203094	-5.426577	6.203686	-0.877754	0.278339	-0.280039	0.271392
39464	-8.680789	-5.539889	5.733592	-0.875524	0.276936	-0.307111	0.249895
39465	-9.574663	-6.711172	5.834615	-0.871991	0.275742	-0.333212	0.229276
39466	-9.513792	-6.857272	5.541350	-0.868405	0.273091	-0.357262	0.208943
39467	-8.862034	-6.125497	5.579193	-0.864951	0.268586	-0.379424	0.189100
39468	-8.085351	-5.050523	5.323638	-0.860623	0.263737	-0.401096	0.169978
39469	-7.404591	-4.264162	4.711189	-0.855011	0.258894	-0.423002	0.151654
39470	-6.900858	-3.691918	4.706521	-0.847700	0.254941	-0.445655	0.133421
39471	-7.452649	-4.498849	4.080708	-0.838465	0.253499	-0.468681	0.114249
39472	-8.811508	-6.177530	3.351583	-0.829051	0.252220	-0.489741	0.095985
39473	-8.850385	-6.556441	3.051803	-0.821596	0.248785	-0.506580	0.080389
39474	-7.776130	-5.661024	3.198167	-0.815076	0.244478	-0.520956	0.066981
39475	-7.403696	-4.744507	3.272684	-0.807660	0.242536	-0.534768	0.053718
39476	-8.087938	-5.129861	2.897927	-0.799365	0.244258	-0.547557	0.039180
39477	-9.009774	-6.410990	2.242903	-0.791680	0.247359	-0.558090	0.024317
39478	-8.979442	-6.571749	2.159221	-0.785974	0.249760	-0.565473	0.010234
39479	-7.995526	-5.739999	2.746850	-0.781480	0.252372	-0.570601	-0.003484
39480	-7.699087	-5.200055	3.210348	-0.776840	0.257019	-0.574596	-0.017311
39481	-7.368847	-5.393172	3.548052	-0.771473	0.264233	-0.577964	-0.031106
39482	-7.112515	-6.039373	3.345037	-0.765812	0.272386	-0.580854	-0.044115
39483	-7.147412	-6.291937	3.126595	-0.760524	0.279571	-0.583367	-0.055919
39484	-7.116475	-5.952616	3.208183	-0.756108	0.285132	-0.585272	-0.066764
39485	-7.023905	-5.367487	3.424236	-0.752378	0.289497	-0.586752	-0.076424
39486	-7.138566	-4.621732	4.031165	-0.748986	0.293507	-0.587937	-0.084876
39487	-6.900234	-4.371847	4.426471	-0.745189	0.298607	-0.589054	-0.092426
39488	-6.657049	-4.530384	4.347912	-0.741147	0.304333	-0.590204	-0.098699
39489	-6.348975	-4.412359	4.320915	-0.737652	0.309491	-0.591046	-0.103678
39490	-5.827764	-4.124915	4.431729	-0.734855	0.313599	-0.591697	-0.107420
39491	-5.904864	-3.822271	4.486910	-0.732386	0.317181	-0.592356	-0.110092
39492	-6.284858	-3.883398	4.374573	-0.730311	0.320476	-0.592886	-0.111477
39493	-6.480660	-3.714959	4.197047	-0.728991	0.323280	-0.592973	-0.111556
39494	-6.490727	-3.538871	4.066407	-0.728281	0.325923	-0.592530	-0.110858
39495	-6.643848	-3.553151	3.895939	-0.727785	0.328770	-0.591705	-0.110108
39496	-7.258281	-4.330060	3.520316	-0.727175	0.331933	-0.590737	-0.109849
39497	-8.627348	-5.327881	2.620509	-0.726583	0.334627	-0.589872	-0.110238
39498	-10.441034	-5.395139	1.805491	-0.726900	0.335872	-0.588669	-0.110790
39499	-11.734556	-4.756519	1.462343	-0.728297	0.336162	-0.586657	-0.111412
39500	-12.144921	-4.438682	1.275909	-0.730417	0.336344	-0.583910	-0.111416
39501	-12.022279	-4.566627	1.135914	-0.732957	0.336258	-0.581037	-0.110000
39502	-11.947227	-4.621365	0.831813	-0.735641	0.335820	-0.578310	-0.107778
39503	-12.098197	-4.722814	0.382926	-0.738344	0.335176	-0.575724	-0.105106
39504	-11.988152	-4.738254	0.352269	-0.741446	0.334057	-0.572949	-0.101948
39505	-11.289498	-4.349265	0.707478	-0.745260	0.331825	-0.570020	-0.097761
39506	-9.952115	-3.382628	1.609540	-0.749532	0.328859	-0.567007	-0.092502
39507	-8.281927	-3.112984	2.313861	-0.753000	0.326606	-0.564667	-0.086432
39508	-7.026425	-3.904250	2.498158	-0.754924	0.324789	-0.564223	-0.079085
39509	-6.684144	-4.702716	2.563359	-0.755577	0.322542	-0.565747	-0.070712
39510	-6.822335	-5.295436	2.430710	-0.755867	0.318206	-0.568926	-0.061100
39511	-7.124377	-5.237200	2.308439	-0.756603	0.310497	-0.573298	-0.049731
39512	-7.522726	-4.585353	2.233496	-0.757294	0.300307	-0.578783	-0.036499
39513	-8.055300	-3.704294	1.933591	-0.757005	0.289649	-0.585282	-0.022152
39514	-8.601484	-3.847499	1.018219	-0.755564	0.279877	-0.592227	-0.007715
39515	-8.966590	-4.655081	-0.545578	-0.753568	0.270185	-0.599241	0.006795
39516	-9.552635	-4.515199	-1.759443	-0.752222	0.259195	-0.605415	0.021269
39517	-10.179119	-3.678619	-2.428380	-0.751797	0.247724	-0.610121	0.034443
39518	-10.729255	-3.170419	-2.751796	-0.752302	0.236843	-0.613057	0.045909
39519	-10.716812	-2.940055	-2.811661	-0.753516	0.226657	-0.614537	0.056430
39520	-10.524022	-2.526207	-2.795557	-0.754702	0.217882	-0.615320	0.065831
39521	-10.635838	-2.327020	-3.068705	-0.755325	0.211146	-0.616037	0.073492
39522	-11.031899	-2.306441	-3.342156	-0.756050	0.205574	-0.616247	0.079800
39523	-11.200211	-2.089613	-3.074346	-0.757480	0.200341	-0.615522	0.084974
39524	-11.163174	-1.962128	-2.692336	-0.759080	0.196112	-0.614402	0.088586
39525	-11.133319	-1.835581	-2.607415	-0.760547	0.192828	-0.613281	0.090952
39526	-10.848349	-1.531660	-2.117592	-0.761958	0.190697	-0.612050	0.091923
39527	-10.267422	-1.835895	-1.836845	-0.762734	0.190357	-0.611306	0.091135
39528	-9.750712	-2.603726	-1.629605	-0.763168	0.190520	-0.610975	0.089363
39529	-9.262895	-3.000544	-1.200633	-0.763831	0.189692	-0.610721	0.087178
39530	-8.859280	-2.687655	-0.591861	-0.764625	0.188009	-0.610653	0.084283
39531	-8.631462	-2.299008	-0.020684	-0.765074	0.186619	-0.611054	0.080300
39532	-8.521872	-2.165874	0.288892	-0.764859	0.186107	-0.612089	0.075515
39533	-8.481275	-2.341782	0.473400	-0.764052	0.187116	-0.613468	0.069781
39534	-8.371392	-2.998787	0.500117	-0.763080	0.189226	-0.614736	0.063265
39535	-8.343043	-3.620564	0.533215	-0.762403	0.191492	-0.615527	0.056552
39536	-8.683888	-3.645985	0.594024	-0.762087	0.193646	-0.615833	0.049752
39537	-9.135148	-3.652996	0.620937	-0.761960	0.196238	-0.615682	0.042939
39538	-9.473014	-3.842540	0.803300	-0.761978	0.199445	-0.615058	0.036251
39539	-9.391041	-3.932290	1.023526	-0.762230	0.203201	-0.613860	0.029854
39540	-9.136740	-4.046797	1.453273	-0.762480	0.207617	-0.612339	0.023679
39541	-8.922649	-4.113751	1.589799	-0.762645	0.212447	-0.610673	0.017824
39542	-8.662508	-4.125240	1.596215	-0.762649	0.217729	-0.608946	0.012049
39543	-8.709225	-4.247139	1.499776	-0.762763	0.222716	-0.607079	0.006762
39544	-8.771687	-4.123868	1.585013	-0.763082	0.227249	-0.605028	0.002064
39545	-8.829606	-4.067836	1.604938	-0.763189	0.232091	-0.603051	-0.002478
39546	-9.091840	-4.176118	1.547085	-0.763142	0.237022	-0.601157	-0.006714
39547	-9.187871	-4.001800	1.509367	-0.763216	0.241887	-0.599063	-0.010799
39548	-9.102914	-3.738873	1.493338	-0.763397	0.246851	-0.596711	-0.015015
39549	-8.860074	-3.717412	1.469498	-0.763675	0.251942	-0.594097	-0.019351
39550	-8.472156	-3.735250	1.575634	-0.763973	0.257012	-0.591384	-0.023561
39551	-8.261558	-3.747752	1.618788	-0.764165	0.261793	-0.588869	-0.027386
39552	-8.223482	-3.497213	1.722653	-0.764296	0.266311	-0.586485	-0.031081
39553	-8.254023	-3.404176	1.786615	-0.764316	0.270984	-0.584084	-0.035131
39554	-8.391668	-3.634615	1.796854	-0.764240	0.275803	-0.581643	-0.039516
39555	-8.444266	-3.933711	1.727739	-0.764089	0.280441	-0.579310	-0.043828
39556	-8.654305	-3.879715	1.792120	-0.763775	0.284849	-0.577221	-0.048206
39557	-8.961299	-4.018128	1.717023	-0.763172	0.289312	-0.575389	-0.052871
39558	-9.245838	-4.012654	1.628266	-0.762712	0.293299	-0.573520	-0.057622
39559	-9.232782	-3.704673	1.744684	-0.762498	0.296886	-0.571459	-0.062364
39560	-9.221839	-3.594600	1.818246	-0.761971	0.300996	-0.569449	-0.067303
39561	-9.551587	-3.803952	1.742735	-0.761066	0.305637	-0.567555	-0.072421
39562	-9.542629	-4.012552	1.657045	-0.760265	0.309954	-0.565640	-0.077304
39563	-9.121165	-3.892017	1.933555	-0.759797	0.313383	-0.563768	-0.081644
39564	-8.782300	-3.550824	2.165622	-0.759121	0.316532	-0.562297	-0.085815
39565	-8.918781	-3.500300	2.037252	-0.757930	0.320013	-0.561231	-0.090298
39566	-8.916778	-3.615766	1.761868	-0.756789	0.323491	-0.560052	-0.094687
39567	-8.764828	-3.505337	1.700557	-0.755930	0.326740	-0.558593	-0.098917
39568	-8.735991	-3.450264	1.645416	-0.754959	0.330276	-0.557023	-0.103344
39569	-8.896961	-3.588435	1.568285	-0.753920	0.333850	-0.555403	-0.108059
39570	-9.037264	-3.767568	1.744996	-0.753082	0.337021	-0.553640	-0.112990
39571	-8.772533	-3.759111	2.011270	-0.752290	0.339878	-0.551956	-0.117846
39572	-8.565593	-3.712166	2.241197	-0.751223	0.342679	-0.550647	-0.122571
39573	-8.388978	-3.862729	2.434324	-0.749689	0.345517	-0.549916	-0.127187
39574	-8.419987	-4.373813	2.422859	-0.747723	0.348238	-0.549839	-0.131596
39575	-8.522985	-4.633778	2.395765	-0.745867	0.349975	-0.550349	-0.135334
39576	-8.442911	-4.420824	2.601871	-0.744162	0.350854	-0.551323	-0.138447
39577	-8.509215	-4.417555	2.748483	-0.742281	0.351577	-0.552705	-0.141173
39578	-8.794032	-4.717379	2.727466	-0.740414	0.352143	-0.554320	-0.143218
39579	-8.795168	-4.825596	2.780587	-0.739045	0.352169	-0.555852	-0.144282
39580	-8.617069	-4.750361	2.860550	-0.738249	0.351657	-0.557254	-0.144197
39581	-8.526289	-4.521432	2.940757	-0.737861	0.350955	-0.558443	-0.143293
39582	-8.505168	-4.507300	2.924328	-0.737841	0.350410	-0.559216	-0.141708
39583	-8.321954	-4.644002	2.804342	-0.738477	0.349782	-0.559360	-0.139359
39584	-8.254720	-4.572263	2.844252	-0.739594	0.349033	-0.559045	-0.136547
39585	-8.494254	-4.706591	2.813363	-0.741004	0.348421	-0.558243	-0.133717
39586	-8.715396	-4.901147	2.693749	-0.742923	0.347435	-0.557087	-0.130419
39587	-8.789512	-4.634673	2.709182	-0.745439	0.345834	-0.555646	-0.126403
39588	-8.636585	-4.397483	2.753045	-0.748050	0.344275	-0.554102	-0.121931
39589	-8.531102	-4.541144	2.724844	-0.750665	0.342683	-0.552608	-0.117024
39590	-8.429320	-4.875362	2.636447	-0.753299	0.340770	-0.551307	-0.111705
39591	-8.365816	-4.968176	2.582917	-0.756157	0.338065	-0.550177	-0.106040
39592	-8.347173	-4.763289	2.633996	-0.759018	0.335080	-0.549091	-0.100560
39593	-8.873042	-4.950080	2.575559	-0.761613	0.332359	-0.548043	-0.095565
39594	-9.222675	-5.191901	2.489995	-0.764100	0.329679	-0.547068	-0.090444
39595	-9.262666	-5.319606	2.502322	-0.766447	0.326830	-0.546325	-0.085260
39596	-9.204121	-5.487162	2.514486	-0.768618	0.323406	-0.546091	-0.080118
39597	-9.090418	-5.676786	2.679010	-0.770994	0.318489	-0.546456	-0.074292
39598	-8.860227	-5.164852	2.844772	-0.773707	0.312109	-0.547204	-0.067330
39599	-8.697041	-4.451577	2.902098	-0.776324	0.305650	-0.548025	-0.059726
39600	-8.503537	-4.340796	2.579178	-0.778638	0.300166	-0.548572	-0.051881
39601	-8.022406	-4.839036	2.107814	-0.781118	0.294929	-0.548615	-0.043512
39602	-7.655743	-5.134888	1.850554	-0.783956	0.289166	-0.548268	-0.034616
39603	-7.567802	-5.141436	1.777050	-0.787026	0.283095	-0.547527	-0.025715
39604	-7.537076	-5.137419	1.797412	-0.790318	0.276740	-0.546382	-0.016693
39605	-7.170164	-5.032429	1.885140	-0.793613	0.270594	-0.544888	-0.007442
39606	-6.433184	-5.204421	1.904180	-0.796459	0.264938	-0.543559	0.002389
39607	-5.671467	-5.470883	1.856815	-0.798575	0.259551	-0.542902	0.012963
39608	-5.061756	-5.944878	1.653619	-0.799802	0.253987	-0.543349	0.024064
39609	-4.801860	-6.275532	1.422067	-0.800388	0.247013	-0.545061	0.035658
39610	-4.671282	-6.368446	1.325322	-0.800279	0.238418	-0.548165	0.047179
39611	-4.714379	-6.275970	1.332809	-0.799451	0.227771	-0.552801	0.058388
39612	-4.891778	-5.948748	1.459302	-0.797791	0.215235	-0.558979	0.068896
39613	-4.909818	-5.929541	1.432254	-0.795039	0.201539	-0.566729	0.078187
39614	-5.734213	-6.130018	1.242652	-0.790991	0.185827	-0.576458	0.086593
39615	-7.304119	-5.363440	0.659877	-0.786150	0.168247	-0.587113	0.094653
39616	-8.307514	-4.662719	0.527712	-0.780890	0.149660	-0.597564	0.103588
39617	-8.603589	-3.699650	0.688019	-0.775222	0.130322	-0.607653	0.113153
39618	-8.388389	-3.100256	1.148537	-0.768661	0.111775	-0.617955	0.121651
39619	-8.943577	-3.449128	0.862985	-0.760730	0.094496	-0.629352	0.127579
39620	-10.834086	-4.214621	-0.490190	-0.752307	0.077733	-0.640880	0.131397
39621	-12.423152	-4.396276	-1.721918	-0.744822	0.059093	-0.650558	0.136097
39622	-12.633657	-3.499949	-2.218806	-0.738488	0.038854	-0.657742	0.143185
39623	-11.856306	-2.144273	-2.055587	-0.732464	0.018179	-0.663261	0.152481
39624	-11.513519	-1.457307	-2.089301	-0.726321	-0.001304	-0.667873	0.162484
39625	-11.566925	-1.271659	-2.402328	-0.720247	-0.020239	-0.671364	0.173505
39626	-11.881930	-1.197950	-2.426151	-0.714306	-0.038514	-0.673655	0.185668
39627	-11.882015	-0.864260	-2.220309	-0.708780	-0.055885	-0.674529	0.198791
39628	-11.784128	-0.904746	-1.606268	-0.703166	-0.071703	-0.674661	0.212720
39629	-11.715556	-1.191927	-1.076943	-0.697475	-0.085870	-0.674278	0.226946
39630	-11.782853	-1.370490	-0.494831	-0.691892	-0.099161	-0.673230	0.241274
39631	-11.714134	-1.416101	0.027706	-0.686378	-0.111613	-0.671821	0.255118
39632	-11.439472	-1.439442	0.453861	-0.681119	-0.123164	-0.670153	0.267962
39633	-10.947317	-1.653339	0.815969	-0.676165	-0.133545	-0.668480	0.279466
39634	-10.274061	-2.280408	0.847826	-0.671433	-0.142858	-0.666912	0.289823
39635	-9.610731	-2.792633	0.660917	-0.666584	-0.152726	-0.664938	0.300331
39636	-8.912354	-2.939047	0.717568	-0.661359	-0.164160	-0.662276	0.311523
39637	-8.483578	-3.052446	0.838244	-0.655919	-0.177404	-0.658687	0.323155
39638	-8.309852	-3.100838	0.846015	-0.650286	-0.192446	-0.654129	0.334975
39639	-8.533088	-2.761183	0.849306	-0.644566	-0.208683	-0.648719	0.346625
39640	-8.763113	-2.498989	0.852235	-0.638953	-0.224788	-0.643109	0.357239
39641	-8.970590	-2.610630	0.641591	-0.633481	-0.240474	-0.637528	0.366650
39642	-9.167891	-2.551107	0.322603	-0.628358	-0.255796	-0.631803	0.374914
39643	-9.558218	-2.387335	0.104574	-0.623841	-0.270762	-0.625728	0.382068
39644	-10.008345	-2.248897	-0.261835	-0.619885	-0.285089	-0.619432	0.388293
39645	-10.565299	-1.852523	-0.570659	-0.616348	-0.298589	-0.612995	0.393949
39646	-10.533086	-1.565739	-0.707771	-0.613217	-0.310757	-0.606498	0.399443
39647	-10.301804	-1.446506	-0.859656	-0.610035	-0.321868	-0.599940	0.405376
39648	-10.286173	-1.138778	-0.894721	-0.606728	-0.331979	-0.593190	0.412064
39649	-10.369276	-0.898995	-0.944257	-0.603471	-0.340871	-0.586150	0.419592
39650	-10.375747	-0.675075	-0.929648	-0.600354	-0.348237	-0.579148	0.427661
39651	-10.291458	-0.669196	-0.851719	-0.597307	-0.353898	-0.572650	0.435951
39652	-10.243191	-0.958972	-0.960135	-0.594251	-0.358047	-0.566479	0.444713
39653	-10.024031	-1.087283	-1.154012	-0.591048	-0.361117	-0.560218	0.454327
39654	-9.929221	-0.741876	-1.072700	-0.587713	-0.363307	-0.553857	0.464589
39655	-10.110563	-0.335281	-0.851112	-0.584879	-0.363739	-0.548073	0.474581
39656	-10.337975	-0.192478	-0.673883	-0.582798	-0.361807	-0.543625	0.483647
39657	-10.433290	-0.299581	-0.575204	-0.581554	-0.357430	-0.540848	0.491450
39658	-10.131559	-0.600086	-0.454446	-0.581066	-0.351002	-0.539668	0.497914
39659	-9.667789	-1.049847	-0.381178	-0.580897	-0.343569	-0.539627	0.503310
39660	-9.254201	-1.329735	-0.125801	-0.580785	-0.336173	-0.539843	0.508179
39661	-8.950369	-1.420110	0.234248	-0.580660	-0.329327	-0.539960	0.512661
39662	-8.790760	-1.467256	0.599751	-0.580386	-0.323174	-0.540020	0.516807
39663	-8.849527	-1.481991	0.788480	-0.579656	-0.317906	-0.540285	0.520603
39664	-8.944018	-1.347571	0.958351	-0.578547	-0.313580	-0.540668	0.524050
39665	-8.904590	-1.161974	1.270728	-0.577362	-0.310033	-0.541129	0.526984
39666	-8.792742	-1.118303	1.539707	-0.576091	-0.307094	-0.541956	0.529242
39667	-8.694113	-1.248155	1.747678	-0.574763	-0.304479	-0.543520	0.530591
39668	-8.809148	-1.784878	1.805875	-0.573240	-0.302429	-0.545689	0.531184
39669	-8.923811	-2.465652	1.781502	-0.571235	-0.301582	-0.547785	0.531667
39670	-8.889490	-2.762318	1.757360	-0.568710	-0.302497	-0.549265	0.532327
39671	-8.916829	-2.558897	2.001017	-0.565947	-0.305044	-0.549961	0.533099
39672	-8.802474	-2.181095	2.326130	-0.563405	-0.308535	-0.550315	0.533418
39673	-8.912985	-2.112260	2.532906	-0.561424	-0.312217	-0.551107	0.532546
39674	-9.023148	-2.395936	2.343037	-0.559800	-0.316115	-0.552157	0.530865
39675	-8.978319	-2.376580	2.356498	-0.558074	-0.320604	-0.552944	0.529168
39676	-8.998445	-2.136220	2.383554	-0.556442	-0.325273	-0.553936	0.526995
39677	-8.899328	-2.000566	2.268333	-0.554984	-0.330064	-0.555125	0.524296
39678	-8.969643	-2.140391	2.292248	-0.553807	-0.335167	-0.556411	0.520930
39679	-9.236404	-2.340415	2.082046	-0.552837	-0.341005	-0.557290	0.517219
39680	-9.740039	-1.943334	1.877948	-0.551860	-0.347579	-0.557192	0.513980
39681	-9.847504	-1.272936	1.891545	-0.551008	-0.354023	-0.556508	0.511230
39682	-9.587907	-1.181398	1.666088	-0.550070	-0.360082	-0.556028	0.508525
39683	-9.670096	-1.072291	1.353661	-0.549111	-0.365866	-0.555687	0.505798
39684	-9.995111	-1.372267	1.301828	-0.548493	-0.371501	-0.555278	0.502801
39685	-10.265669	-1.835125	0.964147	-0.547990	-0.377578	-0.553994	0.500232
39686	-10.471232	-1.483388	0.765556	-0.547394	-0.384329	-0.551521	0.498473
39687	-10.563458	-0.489484	0.757983	-0.547163	-0.390776	-0.548496	0.497050
39688	-10.403189	0.252535	0.822442	-0.547631	-0.395553	-0.546380	0.495083
39689	-10.340143	0.234412	0.833044	-0.548874	-0.398085	-0.545849	0.492254
39690	-10.220308	-0.455689	0.742723	-0.550609	-0.398967	-0.546752	0.488586
39691	-10.224336	-1.373344	0.484070	-0.552507	-0.399480	-0.547762	0.484881
39692	-10.069556	-1.767618	0.215024	-0.553946	-0.401084	-0.547608	0.482080
39693	-9.878178	-1.168305	0.393868	-0.554840	-0.404126	-0.546061	0.480263
39694	-9.693249	-0.386056	0.687704	-0.555665	-0.407559	-0.544164	0.478558
39695	-9.520445	-0.258974	0.808643	-0.556729	-0.410642	-0.542954	0.476053
39696	-9.519168	-0.615551	0.482246	-0.557759	-0.413791	-0.542161	0.473015
39697	-9.593334	-0.852529	0.356020	-0.558470	-0.417418	-0.541154	0.470134
39698	-9.625266	-1.000732	0.331775	-0.558647	-0.421625	-0.540037	0.467447
39699	-9.598168	-1.103237	0.089197	-0.558332	-0.426627	-0.538649	0.464878
39700	-9.603962	-0.892636	0.129443	-0.557481	-0.432884	-0.536113	0.463044
39701	-9.593958	-0.360335	0.467237	-0.556379	-0.440026	-0.532548	0.461749
39702	-9.843587	0.673896	0.655931	-0.555535	-0.446782	-0.529218	0.460104
39703	-9.922870	0.729725	0.774136	-0.555456	-0.451715	-0.527304	0.457572
39704	-9.976932	0.427971	0.468278	-0.555925	-0.455453	-0.526006	0.454784
39705	-10.067010	0.354056	0.473003	-0.556818	-0.458667	-0.524697	0.451964
39706	-10.254777	0.329640	0.444211	-0.558046	-0.461431	-0.523482	0.449036
39707	-10.253107	0.297493	0.443728	-0.559486	-0.463649	-0.522230	0.446408
39708	-10.023320	0.592401	0.588381	-0.560918	-0.465217	-0.521602	0.443706
39709	-9.943597	0.597773	0.659438	-0.562703	-0.466008	-0.521559	0.440656
39710	-9.934977	0.170485	0.627136	-0.564888	-0.466408	-0.521409	0.437604
39711	-9.853249	-0.274326	0.472309	-0.566785	-0.467186	-0.520451	0.435456
39712	-9.745488	-0.193218	0.447917	-0.568078	-0.468773	-0.518588	0.434287
39713	-9.707575	0.073213	0.662942	-0.569062	-0.470755	-0.516326	0.433550
39714	-9.510419	0.233613	0.661225	-0.570296	-0.472559	-0.514196	0.432496
39715	-9.307567	-0.122884	0.552834	-0.571760	-0.474183	-0.512128	0.431238
39716	-9.348678	-0.308808	0.487573	-0.572864	-0.476173	-0.509718	0.430434
39717	-9.847259	-0.126777	0.462039	-0.573805	-0.478427	-0.506835	0.430087
39718	-10.165717	0.273216	0.391755	-0.574814	-0.480455	-0.503922	0.429900
39719	-10.290054	0.541350	0.168720	-0.576213	-0.481476	-0.501819	0.429345
39720	-10.270366	0.304107	-0.188988	-0.577749	-0.481775	-0.500450	0.428543
39721	-10.225200	0.182383	-0.243937	-0.578910	-0.482155	-0.499118	0.428102
39722	-10.112706	0.035901	-0.221442	-0.579521	-0.482789	-0.497525	0.428414
39723	-9.790942	0.242835	-0.130681	-0.579309	-0.484050	-0.495503	0.429620
39724	-9.188444	0.750475	0.297574	-0.578878	-0.485226	-0.493770	0.430869
39725	-8.955287	0.249550	0.374605	-0.578625	-0.486027	-0.492554	0.431695
39726	-8.962625	-0.124711	0.354606	-0.577875	-0.487547	-0.490892	0.432878
39727	-9.266925	0.060555	0.259313	-0.576530	-0.489948	-0.488492	0.434673
39728	-9.542720	0.449618	0.209403	-0.574713	-0.492782	-0.485717	0.436979
39729	-9.716715	0.923253	-0.032380	-0.572711	-0.495469	-0.483014	0.439556
39730	-9.652649	1.365356	0.068104	-0.571012	-0.497402	-0.480660	0.442158
39731	-9.464833	1.273650	0.157005	-0.569913	-0.498089	-0.479080	0.444510
39732	-9.512173	0.909441	0.156266	-0.569014	-0.498170	-0.477847	0.446892
39733	-9.679720	0.809900	0.144234	-0.568154	-0.498110	-0.476573	0.449405
39734	-9.838163	1.014356	0.013932	-0.567293	-0.497979	-0.475243	0.452040
39735	-9.857923	1.268147	0.094605	-0.566575	-0.497372	-0.474202	0.454693
39736	-9.815563	1.300366	0.002632	-0.566020	-0.496158	-0.473727	0.457200
39737	-9.837219	1.335168	0.121780	-0.565504	-0.494754	-0.473558	0.459528
39738	-9.891056	1.200456	0.162579	-0.564827	-0.493528	-0.473352	0.461886
39739	-9.836226	1.308643	0.147823	-0.563862	-0.492672	-0.472919	0.464416
39740	-9.680655	1.572129	0.311883	-0.562719	-0.492005	-0.472354	0.467076
39741	-9.493783	1.774096	0.488583	-0.561732	-0.491142	-0.471995	0.469528
39742	-9.384106	1.721376	0.631132	-0.560999	-0.490118	-0.471820	0.471647
39743	-9.502338	1.720294	0.741180	-0.560492	-0.489064	-0.471565	0.473595
39744	-9.645469	1.741528	0.743222	-0.560136	-0.487999	-0.471209	0.475464
39745	-9.750870	1.723383	0.680425	-0.560052	-0.486756	-0.471085	0.476957
39746	-9.996432	1.408039	0.616217	-0.560066	-0.485702	-0.470926	0.478172
39747	-10.202784	1.235341	0.508263	-0.559894	-0.485227	-0.470501	0.479273
39748	-10.608960	1.371138	0.626192	-0.559502	-0.485373	-0.469694	0.480373
39749	-10.926269	1.506155	0.767789	-0.559226	-0.485535	-0.469042	0.481167
39750	-10.966783	1.346384	0.839401	-0.559136	-0.485584	-0.468584	0.481668
39751	-10.814106	1.101813	0.877166	-0.559104	-0.485736	-0.468209	0.481917
39752	-10.713686	0.991579	0.908554	-0.558939	-0.486143	-0.467625	0.482265
39753	-10.571078	1.122095	1.142223	-0.558730	-0.486599	-0.467060	0.482595
39754	-10.459808	1.072172	1.318799	-0.558505	-0.487082	-0.466801	0.482617
39755	-10.495613	0.778248	1.417605	-0.558178	-0.487759	-0.466506	0.482598
39756	-10.461590	0.724795	1.564294	-0.557519	-0.489026	-0.465676	0.482879
39757	-10.281570	0.920972	1.676515	-0.556614	-0.490616	-0.464460	0.483480
39758	-9.913282	1.002967	1.720307	-0.555666	-0.492198	-0.463225	0.484147
39759	-9.797847	0.911310	1.863158	-0.554693	-0.493887	-0.461793	0.484911
39760	-9.761993	0.876545	1.844750	-0.553692	-0.495581	-0.460021	0.486009
39761	-9.680768	0.921104	1.958792	-0.552591	-0.497200	-0.457966	0.487547
39762	-9.565905	1.064815	1.887925	-0.551515	-0.498438	-0.456068	0.489277
39763	-9.411434	0.920313	1.895041	-0.550663	-0.499124	-0.454426	0.491062
39764	-9.185245	0.588136	1.825269	-0.549726	-0.499732	-0.452653	0.493128
39765	-9.000701	0.437470	1.762881	-0.548512	-0.500678	-0.450468	0.495515
39766	-8.979421	0.289543	1.791398	-0.546881	-0.502294	-0.447669	0.498211
39767	-9.063317	0.396344	1.756154	-0.544771	-0.504542	-0.444158	0.501384
39768	-8.910234	0.491992	1.833076	-0.542335	-0.506968	-0.440324	0.504947
39769	-8.731901	0.647641	1.833860	-0.539811	-0.509121	-0.436841	0.508498
