// Start Time: Unknown
// Update Rate: 60.0Hz
// Filter Profile: human (46.1)
// Option Flags: AHS Disabled ICC Disabled 
// Firmware Version: 4.3.5
PacketCounter	Acc_X	Acc_Y	Acc_Z	Quat_q0	Quat_q1	Quat_q2	Quat_q3
43442	-1.333055	2.824836	9.377841	-0.764294	-0.065926	-0.138080	-0.626452
43443	-1.372192	2.845483	9.399325	-0.764230	-0.065802	-0.138036	-0.626553
43444	-1.443037	2.732791	9.471701	-0.764167	-0.065579	-0.137855	-0.626693
43445	-1.313805	2.617326	9.410783	-0.764178	-0.065356	-0.137635	-0.626751
43446	-1.285021	2.612315	9.328921	-0.764187	-0.065356	-0.137852	-0.626693
43447	-1.428657	2.841953	9.435161	-0.764261	-0.065379	-0.137965	-0.626575
43448	-1.282543	2.858631	9.453906	-0.764327	-0.065265	-0.138048	-0.626488
43449	-1.287908	2.818330	9.209218	-0.764387	-0.065133	-0.138127	-0.626412
43450	-1.433036	2.742746	9.341632	-0.764390	-0.064792	-0.138304	-0.626405
43451	-1.378519	2.728335	9.500901	-0.764468	-0.064540	-0.138392	-0.626315
43452	-1.243566	2.709129	9.418478	-0.764586	-0.064489	-0.138630	-0.626124
43453	-1.377496	2.908820	9.357564	-0.764669	-0.064452	-0.139018	-0.625941
43454	-1.483549	2.991560	9.420809	-0.764694	-0.064215	-0.139246	-0.625884
43455	-1.449422	2.751628	9.464761	-0.764687	-0.063743	-0.139324	-0.625923
43456	-1.334585	2.565974	9.428278	-0.764739	-0.063418	-0.139448	-0.625865
43457	-1.426470	2.646960	9.486692	-0.764768	-0.063400	-0.139829	-0.625746
43458	-1.369317	2.783978	9.562520	-0.764738	-0.063492	-0.140392	-0.625647
43459	-1.529412	2.817928	9.568531	-0.764749	-0.063434	-0.140710	-0.625568
43460	-1.582179	2.647313	9.575496	-0.764882	-0.063293	-0.140600	-0.625445
43461	-1.368239	2.678665	9.437521	-0.765090	-0.063492	-0.140681	-0.625152
43462	-1.372381	2.908989	9.292478	-0.765235	-0.063682	-0.141052	-0.624871
43463	-1.500663	3.034360	9.412515	-0.765401	-0.063582	-0.141213	-0.624642
43464	-1.472065	2.915649	9.340336	-0.765602	-0.063254	-0.140948	-0.624489
43465	-1.382628	2.690361	9.268483	-0.765781	-0.063101	-0.141005	-0.624272
43466	-1.322740	2.644503	9.320592	-0.765943	-0.063036	-0.141369	-0.623998
43467	-1.426079	2.696797	9.274706	-0.766054	-0.063143	-0.142175	-0.623667
43468	-1.617766	2.950442	9.361526	-0.766184	-0.062980	-0.142763	-0.623390
43469	-1.420264	2.744653	9.305420	-0.766282	-0.062646	-0.143262	-0.623188
43470	-1.358219	2.716057	9.255062	-0.766444	-0.062311	-0.143790	-0.622900
43471	-1.353244	2.469196	9.278025	-0.766664	-0.062036	-0.144549	-0.622481
43472	-1.496821	2.625710	9.219522	-0.766886	-0.061921	-0.145525	-0.621992
43473	-1.540061	2.873407	9.265145	-0.767004	-0.061831	-0.146821	-0.621551
43474	-1.586837	2.975637	9.144835	-0.766984	-0.061743	-0.148276	-0.621238
43475	-1.537052	3.248440	9.031159	-0.766820	-0.061436	-0.149971	-0.621065
43476	-1.674494	3.032125	9.473055	-0.766661	-0.060308	-0.151066	-0.621106
43477	-1.503632	2.456778	9.580123	-0.766617	-0.059642	-0.152258	-0.620934
43478	-1.495244	2.516344	9.142747	-0.766599	-0.059336	-0.153736	-0.620621
43479	-1.659980	2.646932	9.098893	-0.766376	-0.059348	-0.156138	-0.620295
43480	-1.794636	3.139791	9.221876	-0.766171	-0.058960	-0.158157	-0.620074
43481	-1.778433	3.262702	9.091613	-0.765987	-0.057795	-0.159931	-0.619956
43482	-1.660567	2.854939	9.068494	-0.765993	-0.056018	-0.160943	-0.619850
43483	-1.405041	2.456795	8.904244	-0.766068	-0.054425	-0.162481	-0.619498
43484	-1.776909	2.576245	8.935988	-0.766058	-0.052909	-0.164855	-0.619014
43485	-2.368800	2.924672	9.200036	-0.765983	-0.051265	-0.167235	-0.618607
43486	-2.025833	2.965403	9.473190	-0.766035	-0.049527	-0.169142	-0.618165
43487	-1.733371	2.726783	9.297056	-0.766136	-0.047978	-0.171176	-0.617602
43488	-1.890555	2.806527	9.239734	-0.766227	-0.046687	-0.173515	-0.616936
43489	-2.464436	3.167246	9.318768	-0.766194	-0.045173	-0.175860	-0.616424
43490	-2.457933	3.366654	9.555509	-0.766181	-0.043129	-0.177182	-0.616209
43491	-1.961444	2.909443	9.382794	-0.765973	-0.041195	-0.178683	-0.616166
43492	-2.278270	2.933929	9.224939	-0.765687	-0.039590	-0.180446	-0.616113
43493	-2.520823	2.949319	9.432258	-0.765320	-0.038059	-0.182020	-0.616202
43494	-2.575886	3.140545	9.593547	-0.764853	-0.037083	-0.183926	-0.616276
43495	-2.838800	3.575030	9.865293	-0.764594	-0.035772	-0.184859	-0.616395
43496	-2.391417	3.091010	10.054089	-0.764466	-0.034519	-0.184924	-0.616607
43497	-2.287128	2.873126	9.930622	-0.764371	-0.033682	-0.184791	-0.616810
43498	-2.507551	2.881368	9.738416	-0.764303	-0.033543	-0.184508	-0.616987
43499	-3.095109	3.372102	9.949259	-0.764197	-0.033782	-0.183930	-0.617278
43500	-2.730685	3.333759	10.228137	-0.764118	-0.034098	-0.182420	-0.617806
43501	-2.565445	3.179802	9.768654	-0.763853	-0.034888	-0.180862	-0.618547
43502	-2.857776	3.291398	9.550228	-0.763578	-0.035931	-0.178761	-0.619437
43503	-2.756799	3.445043	9.897954	-0.763225	-0.037437	-0.176281	-0.620493
43504	-2.755350	3.515047	10.328085	-0.762677	-0.039510	-0.173774	-0.621744
43505	-2.429237	3.214400	10.165369	-0.761952	-0.041908	-0.171155	-0.623201
43506	-2.159195	2.975375	9.861771	-0.761245	-0.044666	-0.168926	-0.624480
43507	-2.274040	2.407603	9.594676	-0.760758	-0.047142	-0.166300	-0.625595
43508	-2.096066	2.133982	9.021186	-0.760500	-0.050291	-0.163619	-0.626370
43509	-1.599739	2.111707	8.389735	-0.760270	-0.053393	-0.161462	-0.626952
43510	-1.546950	2.377256	8.489435	-0.760219	-0.056456	-0.159686	-0.627200
43511	-1.662855	2.639184	8.787420	-0.760461	-0.059140	-0.157888	-0.627115
43512	-1.354102	2.645229	8.546548	-0.760820	-0.061458	-0.156228	-0.626871
43513	-1.433945	2.676715	8.423253	-0.761155	-0.063403	-0.155279	-0.626508
43514	-1.309990	2.738217	8.519667	-0.761507	-0.064935	-0.154868	-0.626024
43515	-1.309202	2.826767	8.692812	-0.761796	-0.066087	-0.155114	-0.625491
43516	-1.336726	2.675745	8.795318	-0.762172	-0.066726	-0.155518	-0.624865
43517	-1.374530	2.791344	8.903897	-0.762696	-0.067210	-0.156127	-0.624021
43518	-1.315848	2.531895	8.941643	-0.763356	-0.067320	-0.156739	-0.623048
43519	-1.453035	2.806882	9.094131	-0.764009	-0.067492	-0.157913	-0.621931
43520	-1.548058	2.847614	9.133762	-0.764600	-0.067476	-0.158919	-0.620949
43521	-1.547869	3.202807	9.112246	-0.765077	-0.067333	-0.160026	-0.620093
43522	-1.586493	3.252386	9.103308	-0.765426	-0.066679	-0.160940	-0.619496
43523	-1.625676	3.109315	9.206289	-0.765588	-0.066164	-0.162228	-0.619015
43524	-2.044951	3.223195	9.451551	-0.765715	-0.065664	-0.163558	-0.618561
43525	-1.967915	3.217318	9.521196	-0.765798	-0.065131	-0.164485	-0.618269
43526	-1.705823	3.136337	9.360049	-0.765575	-0.064897	-0.165968	-0.618173
43527	-1.907959	3.183227	9.463631	-0.765275	-0.064735	-0.167330	-0.618195
43528	-2.012082	3.225462	9.431703	-0.764851	-0.064931	-0.168724	-0.618319
43529	-1.938375	3.087889	9.519741	-0.764447	-0.064940	-0.169603	-0.618578
43530	-1.768881	2.691228	9.537684	-0.763930	-0.065453	-0.170856	-0.618818
43531	-1.762642	2.719670	9.342965	-0.763267	-0.066278	-0.172285	-0.619151
43532	-2.097307	3.058957	9.292972	-0.762499	-0.067623	-0.174037	-0.619462
43533	-1.974789	3.303179	9.322623	-0.761860	-0.068374	-0.175041	-0.619883
43534	-1.816545	3.094351	9.221597	-0.761214	-0.069074	-0.176009	-0.620325
43535	-1.702724	2.692633	9.058043	-0.760486	-0.069953	-0.177249	-0.620766
43536	-1.736472	2.752227	8.914071	-0.759596	-0.071355	-0.179301	-0.621106
43537	-1.955469	3.279989	8.954081	-0.758797	-0.072760	-0.181610	-0.621250
43538	-2.014102	3.771182	9.170657	-0.758352	-0.073330	-0.183136	-0.621277
43539	-1.814405	3.516818	9.005643	-0.758120	-0.072880	-0.183849	-0.621403
43540	-1.855105	3.275361	8.766034	-0.757871	-0.072303	-0.184815	-0.621488
43541	-1.946288	3.203292	8.649585	-0.757636	-0.071483	-0.185993	-0.621518
43542	-1.915771	3.094144	8.603928	-0.757387	-0.070998	-0.187890	-0.621307
43543	-1.950697	3.363970	8.500619	-0.757124	-0.070368	-0.190209	-0.620993
43544	-1.825296	3.296952	8.301817	-0.756723	-0.069532	-0.193427	-0.620581
43545	-1.758090	3.387020	8.033499	-0.756005	-0.068516	-0.198426	-0.619992
43546	-1.612861	3.206146	7.797848	-0.754854	-0.067117	-0.205992	-0.619079
43547	-2.548784	2.591793	7.108958	-0.752804	-0.066405	-0.216307	-0.618133
43548	-2.597718	3.915815	6.088978	-0.750551	-0.067484	-0.228100	-0.616514
43549	-2.051100	4.966713	5.830621	-0.747389	-0.067647	-0.242616	-0.614794
43550	-2.353461	5.174333	6.626346	-0.743767	-0.065988	-0.256452	-0.613749
43551	-2.336896	4.326798	7.335320	-0.740598	-0.063041	-0.269338	-0.612370
43552	-2.780038	4.375710	7.108289	-0.737974	-0.059934	-0.282606	-0.609866
43553	-3.359779	3.684158	6.216874	-0.735635	-0.054841	-0.293687	-0.607932
43554	-3.447380	4.222159	6.409838	-0.732996	-0.051297	-0.307252	-0.604716
43555	-3.684858	4.673801	7.403998	-0.728598	-0.048637	-0.324850	-0.601042
43556	-4.347594	4.702765	8.050657	-0.723440	-0.046709	-0.343523	-0.597029
43557	-5.804355	4.607569	8.024347	-0.717916	-0.045885	-0.362549	-0.592494
43558	-5.972974	5.241620	7.528673	-0.713491	-0.044732	-0.377923	-0.588306
43559	-5.390416	5.335737	7.402783	-0.709024	-0.043228	-0.393300	-0.583723
43560	-5.378275	5.212487	7.501512	-0.703872	-0.042732	-0.408863	-0.579283
43561	-5.203156	4.868021	6.610118	-0.698531	-0.043516	-0.424704	-0.574271
43562	-5.621749	4.677497	6.412585	-0.692819	-0.044533	-0.441498	-0.568417
43563	-6.083498	5.153386	6.296444	-0.687301	-0.046085	-0.459041	-0.561048
43564	-6.227351	6.167845	6.661488	-0.681639	-0.048122	-0.476519	-0.553156
43565	-6.781618	6.072654	6.979158	-0.676358	-0.049955	-0.490953	-0.546818
43566	-6.184751	5.175315	6.094453	-0.671897	-0.052411	-0.502615	-0.541466
43567	-5.585951	5.260252	4.686398	-0.667615	-0.056340	-0.514761	-0.534918
43568	-6.253756	5.386092	4.098081	-0.662831	-0.061141	-0.528133	-0.527250
43569	-7.510447	6.548112	4.061825	-0.657303	-0.067648	-0.543544	-0.517626
43570	-7.228471	8.076639	4.653885	-0.652254	-0.075845	-0.557850	-0.507558
43571	-6.367066	8.332095	4.360671	-0.647027	-0.083498	-0.570288	-0.499155
43572	-6.318644	8.320436	4.047999	-0.641172	-0.091156	-0.581309	-0.492614
43573	-7.477694	8.035180	3.553898	-0.635706	-0.097841	-0.589874	-0.488214
43574	-8.581461	7.844111	2.936216	-0.630283	-0.104562	-0.597567	-0.484483
43575	-7.816340	7.212403	2.564031	-0.625092	-0.110478	-0.604785	-0.480926
43576	-6.004584	5.981069	1.157327	-0.619164	-0.115588	-0.613085	-0.476867
43577	-4.754614	6.009004	0.417952	-0.610290	-0.118976	-0.624751	-0.472310
43578	-5.873956	6.470156	0.590506	-0.599413	-0.122049	-0.638461	-0.467093
43579	-7.087088	8.362375	2.214068	-0.588389	-0.130447	-0.653533	-0.457905
43580	-6.054273	8.486557	2.181526	-0.579706	-0.137251	-0.664600	-0.451010
43581	-5.385268	6.533234	0.870388	-0.571017	-0.140518	-0.674054	-0.447042
43582	-6.321553	7.194111	0.011739	-0.560725	-0.142623	-0.684447	-0.443597
43583	-7.301711	7.788966	0.204102	-0.552085	-0.142102	-0.693059	-0.441223
43584	-6.163755	4.933616	0.337331	-0.543256	-0.139502	-0.701997	-0.438876
43585	-6.698706	5.322185	1.889214	-0.532501	-0.141545	-0.713925	-0.432110
43586	-7.031269	6.526642	3.056028	-0.524207	-0.146786	-0.722724	-0.425830
43587	-7.416178	6.590725	2.266802	-0.517776	-0.152785	-0.728822	-0.421169
43588	-7.231068	6.223027	1.218120	-0.513033	-0.157620	-0.732827	-0.418231
43589	-6.331866	5.665399	-0.495558	-0.507455	-0.161937	-0.737850	-0.414540
43590	-5.434181	5.117856	-1.876221	-0.501387	-0.167592	-0.743957	-0.408720
43591	-4.413191	5.679231	-2.589926	-0.494683	-0.175526	-0.751138	-0.400338
43592	-4.275069	8.025034	-2.290201	-0.486406	-0.185121	-0.759035	-0.391160
43593	-4.817506	9.599420	-1.720122	-0.477972	-0.195142	-0.765439	-0.384143
43594	-4.976891	8.830220	-2.201665	-0.470837	-0.203413	-0.769274	-0.380989
43595	-5.157798	7.553296	-3.129115	-0.464589	-0.209642	-0.771514	-0.380755
43596	-5.252160	7.050227	-3.905079	-0.457725	-0.214751	-0.773913	-0.381350
43597	-5.076233	6.728834	-4.479815	-0.449863	-0.219647	-0.777295	-0.381039
43598	-4.784008	7.056021	-4.540909	-0.440982	-0.225697	-0.781774	-0.378717
43599	-4.499086	8.198096	-4.243418	-0.431856	-0.231965	-0.786180	-0.376316
43600	-4.662452	9.450673	-4.083135	-0.423221	-0.238346	-0.790345	-0.373404
43601	-4.764180	10.062864	-4.163617	-0.416631	-0.243542	-0.792994	-0.371843
43602	-4.920210	9.795827	-4.918933	-0.411435	-0.247068	-0.794587	-0.371902
43603	-5.137092	9.629752	-5.379405	-0.407215	-0.249412	-0.795698	-0.372605
43604	-4.968903	9.607395	-5.787383	-0.403490	-0.251537	-0.797120	-0.372188
43605	-5.059869	10.257937	-5.656858	-0.400680	-0.253812	-0.798698	-0.370292
43606	-5.379676	10.868953	-5.417419	-0.399676	-0.256157	-0.799762	-0.367455
43607	-5.491442	11.131038	-5.577127	-0.401060	-0.257490	-0.799515	-0.365547
43608	-5.378956	10.864553	-5.970587	-0.404498	-0.257619	-0.797880	-0.365242
43609	-5.044788	10.453707	-6.352006	-0.408830	-0.256884	-0.795774	-0.365531
43610	-4.858533	10.052525	-6.385338	-0.413593	-0.255551	-0.793759	-0.365489
43611	-4.836410	9.908432	-6.072362	-0.418975	-0.253705	-0.791690	-0.365131
43612	-4.770338	9.774194	-5.932425	-0.425341	-0.251272	-0.789136	-0.364982
43613	-4.610905	9.681061	-5.474819	-0.432501	-0.248036	-0.786155	-0.365213
43614	-4.617551	9.170463	-4.896186	-0.440451	-0.243453	-0.782698	-0.366220
43615	-4.646833	8.559192	-4.519203	-0.449341	-0.237363	-0.778604	-0.368140
43616	-4.537610	8.029699	-4.130314	-0.458894	-0.230386	-0.774310	-0.369842
43617	-4.451554	7.717450	-3.734559	-0.468883	-0.222883	-0.769858	-0.371203
43618	-4.467842	7.343515	-3.325645	-0.479382	-0.214941	-0.765041	-0.372432
43619	-4.390916	7.065790	-3.086381	-0.490220	-0.206520	-0.759729	-0.373959
43620	-4.358061	6.714207	-3.022106	-0.501143	-0.197786	-0.754116	-0.375559
43621	-4.201151	6.463499	-2.686547	-0.511595	-0.189121	-0.748817	-0.376534
43622	-4.375088	6.347776	-2.089263	-0.521256	-0.180402	-0.744066	-0.376979
43623	-4.821684	6.379608	-1.405420	-0.530898	-0.171705	-0.739115	-0.377324
43624	-5.040605	6.168015	-1.067270	-0.540918	-0.162492	-0.733324	-0.378471
43625	-5.102277	5.881152	-1.030773	-0.550797	-0.152756	-0.726999	-0.380475
43626	-5.348522	5.608637	-0.933200	-0.560212	-0.142704	-0.720616	-0.382767
43627	-5.394083	5.186691	-0.806953	-0.569085	-0.132537	-0.714400	-0.384980
43628	-5.461089	5.095580	-0.499545	-0.576950	-0.122635	-0.708990	-0.386553
43629	-5.956765	5.170503	-0.099949	-0.584132	-0.113118	-0.704034	-0.387723
43630	-6.181130	5.354083	0.179889	-0.591139	-0.103634	-0.699011	-0.388842
43631	-6.176334	5.232843	0.333837	-0.598212	-0.093943	-0.693524	-0.390310
43632	-6.132560	5.009035	0.289952	-0.605174	-0.084409	-0.687893	-0.391719
43633	-6.224951	4.896497	0.342724	-0.611957	-0.075168	-0.682320	-0.392808
43634	-6.392641	4.916825	0.453113	-0.618482	-0.066198	-0.676987	-0.393430
43635	-6.782012	5.038435	0.684397	-0.625037	-0.057169	-0.671529	-0.393839
43636	-7.143668	5.091351	0.708261	-0.631905	-0.047917	-0.665431	-0.394463
43637	-7.244312	5.109072	0.888562	-0.638707	-0.038748	-0.659075	-0.395187
43638	-7.292221	5.153840	1.059739	-0.645325	-0.029347	-0.652305	-0.396474
43639	-7.394599	5.051225	1.183758	-0.651550	-0.019836	-0.645285	-0.398367
43640	-7.681084	4.720835	1.436980	-0.657418	-0.010519	-0.638111	-0.400630
43641	-8.030826	4.212756	1.651492	-0.663044	-0.001748	-0.630929	-0.402863
43642	-8.248222	3.850622	2.124212	-0.668144	0.006279	-0.624244	-0.404801
43643	-8.414250	3.701394	2.824721	-0.672742	0.013716	-0.618058	-0.406491
43644	-8.773390	3.426218	3.479522	-0.676799	0.021614	-0.612147	-0.408352
43645	-9.268477	3.272246	3.822985	-0.680585	0.029578	-0.606472	-0.410027
43646	-9.861430	3.104195	4.284013	-0.684055	0.037655	-0.601085	-0.411518
43647	-10.242669	2.819115	4.703781	-0.687251	0.045177	-0.596218	-0.412515
43648	-10.444746	2.730719	4.996078	-0.690056	0.051382	-0.592308	-0.412740
43649	-10.402387	2.780116	5.190912	-0.692353	0.055792	-0.589423	-0.412451
43650	-10.331254	2.959631	5.350387	-0.694016	0.058390	-0.587641	-0.411839
43651	-10.401940	3.148166	5.284981	-0.695022	0.059261	-0.586997	-0.410934
43652	-10.523589	3.214141	4.845092	-0.695600	0.058721	-0.587270	-0.409641
43653	-10.701507	3.298201	4.404512	-0.695794	0.056775	-0.588495	-0.407825
43654	-10.666776	3.561488	4.200810	-0.695716	0.053455	-0.590436	-0.405595
43655	-10.564491	3.912212	4.211037	-0.695239	0.049657	-0.592830	-0.403397
43656	-10.414095	4.102869	4.223198	-0.694615	0.045360	-0.595355	-0.401255
43657	-9.965124	4.448591	4.156077	-0.693902	0.040128	-0.598088	-0.398974
43658	-9.561608	4.557353	3.973898	-0.693062	0.034180	-0.600783	-0.396934
43659	-9.055461	4.343183	3.557062	-0.692094	0.026847	-0.603639	-0.394848
43660	-8.641350	4.459716	3.425672	-0.690590	0.018164	-0.607216	-0.392485
43661	-8.428686	4.715026	3.239842	-0.688589	0.008975	-0.611175	-0.390167
43662	-8.318414	4.789049	2.758061	-0.686391	-0.000190	-0.615208	-0.387797
43663	-7.921278	4.847418	2.234243	-0.683772	-0.009448	-0.619818	-0.384958
43664	-7.499205	5.197769	2.117494	-0.680469	-0.018863	-0.625252	-0.381663
43665	-7.014466	5.303777	2.097574	-0.676680	-0.027788	-0.630703	-0.378874
43666	-6.562128	4.896988	1.721908	-0.672533	-0.036284	-0.636012	-0.376660
43667	-6.265855	4.537884	1.452131	-0.667747	-0.044640	-0.641845	-0.374373
43668	-6.050795	4.281321	1.247188	-0.662151	-0.052676	-0.648603	-0.371611
43669	-5.718682	4.297342	1.156906	-0.655857	-0.060113	-0.656164	-0.368357
43670	-5.402353	4.156881	0.942819	-0.648939	-0.066480	-0.664194	-0.365108
43671	-5.026718	3.843645	0.506788	-0.641304	-0.072150	-0.672892	-0.361579
43672	-4.899623	3.797954	0.296805	-0.632648	-0.077807	-0.682626	-0.357385
43673	-4.932654	3.624098	0.047497	-0.623383	-0.083399	-0.692875	-0.352650
43674	-5.072277	3.761488	-0.180359	-0.613420	-0.089290	-0.703719	-0.347162
43675	-5.421937	3.944238	-0.491637	-0.603147	-0.094944	-0.714463	-0.341676
43676	-5.742696	4.033127	-0.854997	-0.592685	-0.100157	-0.724936	-0.336394
43677	-6.167553	4.173778	-1.334106	-0.581668	-0.105368	-0.735569	-0.330906
43678	-6.678575	4.571821	-1.590769	-0.570172	-0.110829	-0.746236	-0.325197
43679	-6.914058	4.930798	-2.014730	-0.558273	-0.116584	-0.756579	-0.319887
43680	-7.257584	5.463728	-2.561585	-0.545774	-0.123102	-0.766685	-0.314914
43681	-7.607410	6.135246	-2.952806	-0.532688	-0.130757	-0.776586	-0.309936
43682	-7.940180	6.857096	-3.481363	-0.519312	-0.139108	-0.785979	-0.305287
43683	-8.029121	7.495850	-3.993940	-0.506039	-0.147830	-0.794464	-0.301492
43684	-7.859163	8.003504	-4.614782	-0.493017	-0.156406	-0.801871	-0.299122
43685	-7.728595	8.303131	-5.092658	-0.480048	-0.164789	-0.808387	-0.298176
43686	-7.724517	8.644098	-5.249182	-0.467233	-0.172898	-0.814044	-0.298551
43687	-7.976839	9.273858	-5.090444	-0.454807	-0.180917	-0.818713	-0.300215
43688	-8.358864	9.468628	-4.902870	-0.443583	-0.188249	-0.821692	-0.304334
43689	-8.382803	8.901925	-5.096884	-0.433520	-0.195216	-0.823129	-0.310499
43690	-8.145342	8.493792	-5.362059	-0.424177	-0.201979	-0.823339	-0.318420
43691	-7.730585	8.189568	-5.800148	-0.414993	-0.209014	-0.823000	-0.326751
43692	-7.244254	8.705476	-5.708765	-0.406068	-0.216495	-0.822476	-0.334324
43693	-6.727017	9.300498	-5.444937	-0.398463	-0.224184	-0.820799	-0.342430
43694	-6.228069	9.454407	-5.434025	-0.392811	-0.231958	-0.817406	-0.351771
43695	-5.768655	9.355705	-5.713916	-0.389125	-0.239665	-0.812102	-0.362812
43696	-5.586537	9.013436	-5.892197	-0.387057	-0.246968	-0.805402	-0.374862
43697	-5.443945	8.659130	-6.440502	-0.386245	-0.253904	-0.798035	-0.386637
43698	-5.449056	9.058507	-6.506116	-0.386227	-0.260400	-0.790741	-0.397178
43699	-5.165290	9.466959	-6.333428	-0.387189	-0.266379	-0.783273	-0.406952
43700	-4.677290	10.019290	-6.215604	-0.389162	-0.271865	-0.775335	-0.416532
43701	-4.123074	10.304814	-6.021687	-0.392859	-0.276666	-0.766319	-0.426466
43702	-2.967665	10.492204	-5.634820	-0.397981	-0.280645	-0.756376	-0.436744
43703	-2.329491	10.463478	-5.284883	-0.404668	-0.283310	-0.745223	-0.447908
43704	-1.868440	9.847218	-5.050363	-0.412890	-0.284800	-0.733073	-0.459364
43705	-1.986733	9.447048	-4.862819	-0.422199	-0.284757	-0.720671	-0.470419
43706	-2.111517	9.033918	-4.519121	-0.432899	-0.283216	-0.708230	-0.480414
43707	-1.439454	8.800563	-3.928501	-0.444615	-0.279702	-0.695927	-0.489664
43708	-0.801719	8.610404	-2.887581	-0.457104	-0.273886	-0.683700	-0.498595
43709	-0.144582	8.206256	-1.656616	-0.469986	-0.266015	-0.671552	-0.507313
43710	-0.037395	7.500052	-0.863129	-0.483353	-0.256339	-0.659245	-0.515807
43711	-0.210049	6.743816	-0.061910	-0.497027	-0.245941	-0.647707	-0.522449
43712	-0.150047	6.516848	1.002892	-0.510544	-0.234984	-0.637594	-0.526878
43713	-0.467841	6.038493	1.953665	-0.524447	-0.222946	-0.627883	-0.530107
43714	-0.576787	5.399636	2.836741	-0.539183	-0.209741	-0.617902	-0.532436
43715	-0.900391	4.380928	3.152085	-0.554440	-0.195741	-0.607796	-0.533727
43716	-1.587142	3.360677	3.085712	-0.569207	-0.182095	-0.599381	-0.532528
43717	-2.060072	3.166910	3.558492	-0.583761	-0.169153	-0.593132	-0.528020
43718	-2.455104	3.409624	4.013223	-0.598319	-0.156702	-0.588319	-0.520902
43719	-2.769966	3.590275	4.064642	-0.612782	-0.144715	-0.584089	-0.512246
43720	-3.015419	3.985731	3.962976	-0.627058	-0.133674	-0.580079	-0.502432
43721	-3.697504	4.295715	4.004511	-0.640750	-0.123121	-0.576227	-0.492181
43722	-4.615202	3.914468	3.625311	-0.654013	-0.112217	-0.572028	-0.482140
43723	-5.465966	3.384152	3.195181	-0.666539	-0.100769	-0.568258	-0.471862
43724	-5.975258	3.272610	3.120449	-0.677995	-0.089354	-0.565480	-0.461054
43725	-6.237918	3.085865	3.082420	-0.688402	-0.077383	-0.563447	-0.450157
43726	-6.386939	3.024533	3.322673	-0.697607	-0.065332	-0.562619	-0.438790
43727	-6.656847	2.987274	3.577248	-0.705945	-0.053049	-0.562217	-0.427481
43728	-6.993648	2.543070	3.576989	-0.713393	-0.040362	-0.562004	-0.416645
43729	-7.500518	2.154865	3.639938	-0.719782	-0.028262	-0.562574	-0.405742
43730	-7.982920	2.029608	3.858095	-0.725046	-0.017371	-0.564211	-0.394554
43731	-8.439954	2.098780	4.124000	-0.729329	-0.007353	-0.566719	-0.383216
43732	-8.941796	2.015299	3.942715	-0.732892	0.002485	-0.569384	-0.372378
43733	-9.262263	1.898199	3.541475	-0.735744	0.011526	-0.572668	-0.361385
43734	-9.495037	2.222021	3.277836	-0.737565	0.019296	-0.577403	-0.349615
43735	-9.861991	2.553854	3.309129	-0.738463	0.026041	-0.583237	-0.337385
43736	-10.311242	2.666989	3.227233	-0.738815	0.032192	-0.589272	-0.325384
43737	-10.396731	2.531780	2.807681	-0.738635	0.037625	-0.595493	-0.313673
43738	-10.213732	2.440132	2.345679	-0.737708	0.042110	-0.602169	-0.302334
43739	-9.818947	2.208957	1.899777	-0.735931	0.045434	-0.609509	-0.291272
43740	-9.353546	1.801871	1.414104	-0.733129	0.048199	-0.617570	-0.280725
43741	-9.168539	1.435844	1.261548	-0.729380	0.050070	-0.626408	-0.270390
43742	-9.268092	1.120417	1.060509	-0.724946	0.051200	-0.635571	-0.260541
43743	-9.586149	0.781097	0.726482	-0.719792	0.051684	-0.645105	-0.251133
43744	-9.955411	0.915513	0.179494	-0.713997	0.051101	-0.655077	-0.241809
43745	-10.268508	1.556315	-0.300986	-0.707318	0.049597	-0.665745	-0.232430
43746	-10.710641	2.301895	-0.544578	-0.699955	0.047034	-0.676895	-0.222856
43747	-11.134964	3.165978	-0.547720	-0.692183	0.043591	-0.688151	-0.213146
43748	-11.571106	3.903491	-0.517545	-0.684376	0.040176	-0.698719	-0.204469
43749	-11.644629	4.147519	-0.870675	-0.676569	0.036713	-0.708460	-0.197459
43750	-11.704565	4.301127	-1.165443	-0.668420	0.032483	-0.717902	-0.191771
43751	-11.721112	4.600194	-1.470061	-0.659789	0.027066	-0.727267	-0.187160
43752	-11.848167	5.010107	-1.603741	-0.650491	0.020232	-0.736769	-0.183369
43753	-11.780719	5.142422	-1.894253	-0.640416	0.012754	-0.746351	-0.180736
43754	-11.598200	4.734683	-2.440350	-0.629646	0.004540	-0.756051	-0.178639
43755	-11.289995	4.598430	-2.898503	-0.618240	-0.004598	-0.765859	-0.176684
43756	-10.780953	4.713575	-3.178527	-0.606159	-0.014380	-0.775706	-0.175056
43757	-10.368523	5.002624	-3.215926	-0.593446	-0.024258	-0.785450	-0.174073
43758	-10.185338	4.854808	-3.236354	-0.580578	-0.033620	-0.794587	-0.174444
43759	-9.955140	4.684062	-3.584034	-0.568040	-0.042362	-0.802844	-0.176005
43760	-9.645943	4.729909	-3.801702	-0.555682	-0.050430	-0.810490	-0.178268
43761	-9.336650	4.886147	-3.997748	-0.543398	-0.058236	-0.817685	-0.180881
43762	-9.308340	5.047442	-4.156882	-0.530943	-0.066096	-0.824573	-0.183875
43763	-9.365291	5.215964	-4.035959	-0.518575	-0.073833	-0.830905	-0.187685
43764	-9.342264	5.216953	-3.925655	-0.506422	-0.081215	-0.836548	-0.192687
43765	-9.148111	5.028381	-4.035685	-0.494477	-0.088467	-0.841568	-0.198568
43766	-8.855114	5.035055	-4.416871	-0.482363	-0.096002	-0.846307	-0.204632
43767	-8.775564	5.397311	-4.724452	-0.469274	-0.103913	-0.851232	-0.210687
43768	-8.814394	5.777821	-4.830197	-0.455508	-0.112229	-0.856023	-0.217121
43769	-8.850529	5.964985	-4.974185	-0.441610	-0.120764	-0.860314	-0.224182
43770	-8.780080	6.177987	-5.224891	-0.427910	-0.129112	-0.863997	-0.231803
43771	-8.929255	6.521865	-5.329208	-0.414621	-0.136876	-0.867018	-0.240072
43772	-9.059649	6.783881	-5.227684	-0.402513	-0.144050	-0.868921	-0.249419
43773	-8.953097	6.699079	-5.188462	-0.391881	-0.150996	-0.869395	-0.260350
43774	-9.316699	6.441750	-5.223639	-0.382855	-0.158440	-0.868480	-0.272144
43775	-9.490072	6.760983	-5.124238	-0.376318	-0.166808	-0.866110	-0.283574
43776	-8.943390	7.170662	-5.142365	-0.371696	-0.175761	-0.862628	-0.294659
43777	-8.535019	7.536725	-5.156270	-0.368337	-0.185509	-0.858454	-0.304912
43778	-7.972037	7.762857	-5.304716	-0.366371	-0.195473	-0.853163	-0.315713
43779	-7.105099	7.450043	-5.773064	-0.365518	-0.205551	-0.846857	-0.327077
43780	-5.947070	7.271290	-6.051399	-0.364630	-0.215966	-0.840174	-0.338395
43781	-5.320723	7.349100	-5.864422	-0.364004	-0.226860	-0.832901	-0.349731
43782	-4.850839	7.331188	-5.587467	-0.364598	-0.238027	-0.824660	-0.361037
43783	-4.703057	7.157198	-5.704908	-0.367274	-0.248713	-0.815103	-0.372638
43784	-4.400821	7.074394	-6.086079	-0.371534	-0.258425	-0.804535	-0.384581
43785	-3.859354	7.182489	-5.981166	-0.376246	-0.266990	-0.793906	-0.396066
43786	-3.380202	7.150109	-5.468425	-0.381473	-0.274415	-0.783307	-0.406947
43787	-3.273043	7.031851	-4.771132	-0.387574	-0.280850	-0.772467	-0.417379
43788	-3.151794	7.147052	-4.397766	-0.395155	-0.286625	-0.760820	-0.427610
43789	-2.870485	7.307366	-4.326976	-0.403989	-0.292013	-0.748405	-0.437506
43790	-2.389202	7.526198	-4.186631	-0.413866	-0.297735	-0.735722	-0.445848
43791	-1.404835	7.851889	-3.705518	-0.424579	-0.303424	-0.723024	-0.452661
43792	-0.357146	8.201045	-3.380246	-0.436401	-0.308223	-0.709886	-0.458929
43793	0.329286	8.281464	-3.331646	-0.448950	-0.310540	-0.696293	-0.466031
43794	0.201947	7.542876	-3.370269	-0.461712	-0.310255	-0.682674	-0.473835
43795	-0.016924	7.278486	-3.264326	-0.473816	-0.308722	-0.670372	-0.480407
43796	-0.476702	7.488852	-2.434934	-0.485658	-0.306141	-0.659521	-0.485227
43797	-0.486185	7.781840	-1.281256	-0.497815	-0.302578	-0.649517	-0.488624
43798	-0.393628	7.990617	-0.425570	-0.510840	-0.297311	-0.639173	-0.492043
43799	-0.593959	7.748943	-0.071335	-0.525154	-0.290646	-0.628030	-0.495294
43800	-0.635997	7.531932	0.536310	-0.539638	-0.283444	-0.617330	-0.497347
43801	-0.815593	7.128990	0.846319	-0.553876	-0.275841	-0.607428	-0.498161
43802	-0.857185	6.877921	1.221475	-0.567762	-0.267760	-0.598417	-0.497843
43803	-1.169431	6.711371	1.652478	-0.581456	-0.259023	-0.590091	-0.496596
43804	-1.575288	6.300934	1.681978	-0.594672	-0.249507	-0.582645	-0.494608
43805	-2.055945	5.754343	1.925548	-0.607084	-0.239068	-0.576549	-0.491820
43806	-2.512325	5.865646	2.363660	-0.618485	-0.228180	-0.572079	-0.487991
43807	-2.953824	6.125227	3.027617	-0.629414	-0.216328	-0.568283	-0.483833
43808	-3.455684	5.752459	3.280057	-0.639975	-0.203055	-0.564777	-0.479820
43809	-4.238409	5.267827	3.457619	-0.649646	-0.189353	-0.562299	-0.475316
43810	-5.057634	4.961027	3.871885	-0.658289	-0.175864	-0.561031	-0.470076
43811	-5.536799	4.828627	4.140988	-0.666261	-0.162794	-0.560454	-0.464205
43812	-5.566077	4.643618	4.412047	-0.673662	-0.150054	-0.560207	-0.458073
43813	-5.731747	4.443543	4.443547	-0.680367	-0.137778	-0.560198	-0.451990
43814	-6.183129	4.171071	4.342050	-0.686425	-0.126500	-0.560454	-0.445769
43815	-6.679741	3.809776	4.207315	-0.691815	-0.116332	-0.561268	-0.439133
43816	-7.262521	3.517542	4.167629	-0.696682	-0.106962	-0.562558	-0.432113
43817	-7.590772	3.425726	3.891452	-0.701106	-0.098238	-0.564377	-0.424592
43818	-7.928264	3.538668	3.578619	-0.704863	-0.090342	-0.567026	-0.416519
43819	-8.175189	3.761101	3.473256	-0.707907	-0.083547	-0.570570	-0.407845
43820	-8.314799	3.987240	3.297077	-0.710197	-0.077045	-0.574889	-0.398982
43821	-8.607796	4.279394	3.143218	-0.711897	-0.070917	-0.579512	-0.390307
43822	-8.926462	4.467111	2.923031	-0.713082	-0.065172	-0.584232	-0.382021
43823	-9.432323	4.767266	3.055458	-0.713633	-0.059649	-0.589255	-0.374097
43824	-9.776286	4.805938	3.122666	-0.713663	-0.054372	-0.594319	-0.366761
43825	-9.756891	4.766910	3.075835	-0.712977	-0.049711	-0.599593	-0.360113
43826	-9.867187	5.081880	2.982213	-0.711566	-0.046449	-0.605263	-0.353799
43827	-10.254840	5.276555	3.003657	-0.709612	-0.044589	-0.610968	-0.348111
43828	-10.364364	5.870263	2.891457	-0.707325	-0.044626	-0.616662	-0.342678
43829	-10.358264	6.865533	2.942809	-0.704744	-0.045453	-0.622017	-0.338178
43830	-10.393851	6.629468	2.653755	-0.702644	-0.045914	-0.625556	-0.335952
43831	-9.520719	6.297720	1.925695	-0.700386	-0.047334	-0.628707	-0.334584
43832	-9.017338	6.689185	1.588673	-0.697039	-0.049884	-0.632758	-0.333564
43833	-9.053642	6.924244	1.823756	-0.693081	-0.052945	-0.636990	-0.333287
43834	-9.219946	6.899150	1.706568	-0.689449	-0.055803	-0.640169	-0.334261
43835	-9.099379	6.776234	1.559556	-0.686182	-0.058418	-0.642462	-0.336131
43836	-9.039152	6.821086	1.994030	-0.682995	-0.060692	-0.644509	-0.338294
43837	-8.884506	6.389801	2.577307	-0.679945	-0.062167	-0.646208	-0.340918
43838	-8.696056	5.869787	2.697450	-0.677385	-0.063223	-0.647052	-0.344204
43839	-8.484927	5.871695	2.891887	-0.675190	-0.064960	-0.647487	-0.347360
43840	-8.398023	6.078841	3.445079	-0.673514	-0.067204	-0.647478	-0.350191
43841	-7.910249	5.977193	3.733321	-0.672910	-0.069751	-0.646503	-0.352649
43842	-7.197045	5.832813	4.180449	-0.673371	-0.071107	-0.644314	-0.355493
43843	-7.042882	5.219483	4.531441	-0.674950	-0.069989	-0.640663	-0.359297
43844	-7.489389	4.485812	5.048014	-0.677893	-0.067535	-0.635606	-0.363187
43845	-7.868519	3.782004	6.172093	-0.681780	-0.064752	-0.629720	-0.366655
43846	-7.676181	3.266358	7.017769	-0.687279	-0.062334	-0.622043	-0.369897
43847	-7.847729	2.443837	6.881551	-0.693595	-0.061012	-0.613349	-0.372836
43848	-8.343654	1.555674	6.876151	-0.700992	-0.061643	-0.604380	-0.373544
43849	-8.465737	1.627414	7.797344	-0.709100	-0.064044	-0.595856	-0.371527
43850	-8.238405	1.881740	7.766351	-0.718229	-0.066351	-0.586462	-0.368519
43851	-8.089169	1.828754	7.323030	-0.728012	-0.069389	-0.577200	-0.363351
43852	-8.185230	1.598303	7.199831	-0.738401	-0.073383	-0.568362	-0.355447
43853	-8.655677	1.039149	7.348283	-0.749979	-0.077716	-0.558713	-0.345444
43854	-9.243183	0.064245	6.654509	-0.762369	-0.083337	-0.548554	-0.333073
43855	-9.861157	-0.231569	6.393493	-0.775140	-0.092415	-0.538221	-0.317703
43856	-11.053789	1.012143	6.755395	-0.787405	-0.105708	-0.529295	-0.297767
43857	-11.792545	2.668292	6.455469	-0.800974	-0.119322	-0.517009	-0.277318
43858	-11.328453	2.509806	4.809198	-0.815813	-0.128756	-0.500653	-0.259265
43859	-11.973757	1.559337	3.452871	-0.830526	-0.136927	-0.482910	-0.241401
43860	-12.960234	1.025286	2.764536	-0.844781	-0.146660	-0.464537	-0.221455
43861	-13.524523	3.174925	2.857133	-0.857765	-0.161969	-0.445939	-0.197847
43862	-12.530644	5.608139	3.027969	-0.870495	-0.174670	-0.425070	-0.176191
43863	-10.969856	6.845419	3.521136	-0.882478	-0.182714	-0.403785	-0.157497
43864	-10.509882	6.395473	3.582284	-0.893390	-0.186911	-0.382966	-0.142322
43865	-10.957009	6.210318	2.956558	-0.903181	-0.192285	-0.361505	-0.128857
43866	-10.092871	6.772046	2.084695	-0.911895	-0.196348	-0.340747	-0.117413
43867	-9.292881	5.231292	1.634383	-0.920189	-0.197492	-0.320852	-0.106318
43868	-8.376148	6.069080	2.257567	-0.925855	-0.203619	-0.304338	-0.093329
43869	-8.597813	8.213574	4.149978	-0.931212	-0.207277	-0.288029	-0.083186
43870	-6.997853	7.189475	6.137850	-0.937317	-0.205533	-0.270995	-0.075861
43871	-6.766976	3.965967	5.595417	-0.944030	-0.199219	-0.252972	-0.071588
43872	-5.709398	1.177125	4.658408	-0.949564	-0.195906	-0.235744	-0.066133
43873	-5.185614	2.073694	5.176411	-0.953127	-0.197391	-0.221456	-0.059524
43874	-4.672889	2.077917	6.568238	-0.956613	-0.197852	-0.207443	-0.052093
43875	-4.324897	2.845335	7.288407	-0.959872	-0.197705	-0.193942	-0.044111
43876	-4.588356	3.085589	6.864427	-0.963099	-0.195884	-0.180983	-0.036253
43877	-4.968127	3.051043	6.995326	-0.966125	-0.192930	-0.169016	-0.028543
43878	-4.896679	2.207767	7.403956	-0.969217	-0.187952	-0.157740	-0.020281
43879	-5.099084	1.259287	7.111733	-0.972077	-0.182726	-0.146874	-0.010246
43880	-4.562686	1.324399	6.817608	-0.974724	-0.176784	-0.136597	0.001012
43881	-4.263812	0.774068	7.199180	-0.976709	-0.172208	-0.127343	0.012963
43882	-4.037853	1.482841	7.755517	-0.978182	-0.168206	-0.119240	0.025456
43883	-4.395851	0.980561	8.222927	-0.979575	-0.163005	-0.111348	0.038263
43884	-4.184051	0.322318	8.441431	-0.980423	-0.158449	-0.104476	0.052441
43885	-4.292921	-0.148584	9.124935	-0.980935	-0.153466	-0.097926	0.068010
43886	-3.931836	-0.396745	8.890013	-0.980740	-0.150203	-0.091521	0.084923
43887	-3.916845	-0.075047	8.859773	-0.979780	-0.148528	-0.085705	0.103082
43888	-4.640413	0.131382	9.203431	-0.978134	-0.147991	-0.079950	0.122317
43889	-4.656890	0.717008	9.326841	-0.975955	-0.147505	-0.074006	0.142401
43890	-4.611571	1.274609	9.370342	-0.973326	-0.146386	-0.068153	0.162982
43891	-4.208036	0.889112	9.372988	-0.970260	-0.144409	-0.061900	0.184144
43892	-4.208082	1.406985	8.903888	-0.966376	-0.143106	-0.055633	0.206262
43893	-3.859488	1.598961	9.441686	-0.961788	-0.142026	-0.049746	0.228729
43894	-3.868805	1.440576	9.762113	-0.956438	-0.141979	-0.044129	0.251239
43895	-4.322897	1.923344	9.190403	-0.950350	-0.142428	-0.038330	0.274008
43896	-4.122812	2.507582	8.937408	-0.943584	-0.142587	-0.032670	0.297071
43897	-3.267377	2.199498	8.371137	-0.936546	-0.141148	-0.026509	0.319774
43898	-2.026682	2.282675	8.028170	-0.928909	-0.140955	-0.020714	0.341804
43899	-2.097619	2.004463	8.854273	-0.921023	-0.140226	-0.015402	0.363066
43900	-1.972346	1.570966	9.609010	-0.912777	-0.139497	-0.010312	0.383761
43901	-2.164158	1.755058	9.886566	-0.904189	-0.138449	-0.005833	0.404029
43902	-2.029597	2.350814	10.205377	-0.895246	-0.137149	-0.001962	0.423936
43903	-1.916299	2.928825	10.371727	-0.886005	-0.135375	0.001263	0.443471
43904	-1.323349	2.969118	10.357807	-0.876598	-0.133182	0.003900	0.462411
43905	-1.060449	2.544083	9.911074	-0.867010	-0.131394	0.006382	0.480613
43906	-1.043528	2.113317	9.413028	-0.857237	-0.130333	0.008940	0.498075
43907	-0.943712	2.046000	9.003332	-0.847329	-0.129533	0.011721	0.514895
43908	-0.897391	1.962148	8.946775	-0.837428	-0.128728	0.014719	0.530968
43909	-0.693172	2.036484	9.134841	-0.827581	-0.127752	0.017896	0.546324
43910	-0.649418	1.506283	9.582295	-0.817659	-0.126188	0.021186	0.561304
43911	-0.608474	1.778863	9.394727	-0.807390	-0.125150	0.024918	0.576054
43912	-0.776406	2.175335	9.217116	-0.796871	-0.123969	0.028682	0.590597
43913	-0.909539	2.311888	8.820759	-0.786151	-0.122764	0.032570	0.604843
43914	-0.645104	2.808656	8.610845	-0.775088	-0.121613	0.036628	0.618956
43915	-0.661156	2.991214	8.827834	-0.763723	-0.120063	0.040250	0.633003
43916	-0.747145	2.609669	8.738980	-0.752125	-0.118368	0.043783	0.646823
43917	-1.038131	2.759514	8.647957	-0.740193	-0.117235	0.047153	0.660415
43918	-0.969751	2.701950	9.174652	-0.727927	-0.115573	0.050029	0.673989
43919	-1.490212	2.907894	9.721100	-0.715298	-0.113937	0.052501	0.687467
43920	-1.336009	2.825989	10.125588	-0.702461	-0.111402	0.054554	0.700830
43921	-1.506912	2.055147	10.126401	-0.689609	-0.108348	0.056691	0.713783
43922	-1.754102	2.214633	10.761312	-0.676289	-0.106831	0.059546	0.726412
43923	-2.424692	2.550133	11.851849	-0.662838	-0.104594	0.061948	0.738829
43924	-2.811167	3.042504	12.626462	-0.649450	-0.102131	0.063988	0.750793
43925	-4.335624	2.865081	12.884227	-0.636391	-0.097917	0.064611	0.762394
43926	-4.841017	1.686110	11.787921	-0.623575	-0.091709	0.064898	0.773648
43927	-4.394886	0.749922	10.003197	-0.610779	-0.085023	0.066351	0.784422
43928	-3.611264	0.589168	9.876247	-0.597728	-0.080490	0.069333	0.794629
43929	-4.047770	0.652226	10.686235	-0.584580	-0.077403	0.074234	0.804216
43930	-4.116342	1.512892	10.611341	-0.571194	-0.073945	0.080322	0.813522
43931	-3.758222	2.053865	9.954366	-0.557509	-0.069372	0.085748	0.822811
43932	-3.650357	1.696308	9.805195	-0.543503	-0.064152	0.090949	0.831996
43933	-3.437889	2.197263	9.727990	-0.528948	-0.058345	0.096036	0.841182
43934	-3.043797	1.880265	9.321786	-0.513891	-0.050902	0.099866	0.850501
43935	-2.703591	1.154513	9.018288	-0.498149	-0.043337	0.103799	0.859765
43936	-2.409245	1.487960	9.111664	-0.481476	-0.036083	0.107847	0.869050
43937	-2.310470	1.122134	9.276954	-0.464007	-0.028592	0.111781	0.878285
43938	-2.009046	1.333841	9.341630	-0.446012	-0.022340	0.116006	0.887196
43939	-1.931097	1.884868	9.538457	-0.427585	-0.016923	0.120033	0.895811
43940	-2.108993	1.513239	9.620262	-0.409156	-0.010228	0.122590	0.904134
43941	-1.523096	0.978988	9.278154	-0.390516	-0.003349	0.124410	0.912145
43942	-1.635922	0.621501	9.377566	-0.371539	0.004147	0.125068	0.919945
43943	-1.433606	0.305318	9.846115	-0.352186	0.011416	0.125110	0.927460
43944	-1.300376	0.343039	9.864116	-0.332494	0.018926	0.124308	0.934685
43945	-1.323624	0.682131	10.020330	-0.312574	0.025571	0.123546	0.941478
43946	-1.540331	0.241180	10.017078	-0.292457	0.032730	0.121669	0.947942
43947	-1.299108	0.280988	10.056666	-0.272150	0.038944	0.120136	0.953931
43948	-1.363815	0.085624	10.319175	-0.251793	0.044983	0.117844	0.959526
43949	-0.955420	-0.035476	10.304422	-0.231240	0.051176	0.115117	0.964706
43950	-0.800820	-0.038462	9.855660	-0.210290	0.056583	0.112237	0.969525
43951	-1.201764	-0.246419	9.782376	-0.188429	0.061902	0.109356	0.974014
43952	-1.350583	-0.012202	9.171276	-0.166036	0.066302	0.107843	0.977960
43953	-1.537830	0.843054	9.646637	-0.143057	0.069677	0.107148	0.981427
43954	-1.406181	1.137623	10.068712	-0.119627	0.072613	0.106286	0.984439
43955	-0.917351	1.720353	9.856224	-0.095195	0.075948	0.104981	0.986990
43956	0.038121	1.596351	9.993464	-0.070209	0.078430	0.103195	0.989075
43957	0.249077	1.247690	10.124206	-0.044879	0.080857	0.101245	0.990554
43958	0.014258	0.929040	9.776004	-0.019431	0.082644	0.100194	0.991339
43959	-0.322695	0.928813	9.506804	0.006386	0.084384	0.099053	0.991477
43960	-0.026185	1.029461	9.382123	0.032098	0.085909	0.097787	0.990973
43961	0.124471	1.078643	9.578044	0.057626	0.087114	0.096128	0.989874
43962	0.376195	1.072452	9.635732	0.082833	0.088174	0.093922	0.988202
43963	0.574324	1.843745	9.972164	0.107814	0.088626	0.091798	0.985949
43964	0.621961	1.736947	10.482280	0.132616	0.088898	0.088577	0.983191
43965	0.660937	1.630062	10.637646	0.157026	0.088942	0.086305	0.979788
43966	0.592225	1.643897	10.521196	0.181138	0.088807	0.084165	0.975817
43967	0.512920	1.561153	10.231940	0.204872	0.088710	0.082314	0.971279
43968	0.145218	1.348746	9.699334	0.227888	0.089053	0.080992	0.966218
43969	-0.025211	1.728251	9.596726	0.250525	0.089649	0.080999	0.960541
43970	-0.310471	1.809969	9.632602	0.272900	0.090751	0.080012	0.954404
43971	0.055476	1.967681	9.524054	0.294640	0.092273	0.080397	0.947739
43972	-0.092702	2.417387	9.491838	0.315926	0.093492	0.079864	0.940783
43973	-0.037092	2.531174	9.501210	0.336422	0.094615	0.079387	0.933577
43974	-0.022590	2.221955	9.066283	0.356220	0.095519	0.078207	0.926211
43975	0.152979	2.261364	8.611772	0.375572	0.096274	0.077856	0.918485
43976	-0.218458	2.084838	8.456367	0.394955	0.096393	0.077931	0.910300
43977	-0.182360	2.061456	9.243810	0.414113	0.095362	0.079520	0.901717
43978	-0.303406	2.526070	9.912883	0.432783	0.094483	0.080819	0.892883
43979	-0.148705	2.411195	8.762841	0.450505	0.093235	0.081137	0.884177
43980	-0.455127	2.544430	8.420563	0.467283	0.091146	0.081769	0.875587
43981	-0.464600	1.846777	8.634858	0.483650	0.088786	0.082492	0.866830
43982	-0.181801	2.458847	9.748519	0.499209	0.085582	0.085349	0.858010
43983	-0.502002	1.782794	9.779621	0.513661	0.082538	0.087673	0.849502
43984	-0.894146	1.960555	9.073228	0.526899	0.079944	0.091347	0.841214
43985	-1.918207	1.977350	8.848987	0.539133	0.076386	0.094720	0.833384
43986	-2.738492	2.196855	8.508335	0.550761	0.073671	0.098897	0.825502
43987	-3.168224	3.332528	7.648165	0.562171	0.071736	0.105170	0.817164
43988	-2.361665	5.281216	9.405505	0.573768	0.069900	0.112451	0.808244
43989	-2.188044	4.649882	9.291127	0.585110	0.067206	0.115927	0.799807
43990	-2.688789	4.642290	9.509705	0.595866	0.063705	0.119583	0.791571
43991	-3.801756	2.900027	10.095662	0.605977	0.058817	0.121842	0.783892
43992	-4.341856	2.462604	9.825266	0.615276	0.055526	0.126542	0.776105
43993	-4.242075	3.041960	8.799803	0.624176	0.053117	0.132714	0.768095
43994	-4.548221	4.691019	9.955046	0.632747	0.051045	0.139691	0.759942
43995	-4.127282	5.515411	11.364366	0.641369	0.048421	0.143681	0.752102
43996	-3.565943	4.249387	10.354877	0.649598	0.045252	0.145453	0.744861
43997	-3.511358	3.471542	9.575993	0.657505	0.043074	0.147750	0.737565
43998	-3.953645	3.600894	9.233355	0.665202	0.041710	0.150434	0.730162
43999	-4.053818	4.268484	9.142472	0.673250	0.041423	0.152475	0.722336
44000	-3.737652	3.957892	8.747585	0.681535	0.040931	0.152539	0.714539
44001	-3.506233	4.294347	10.062754	0.689455	0.040931	0.153163	0.706766
44002	-3.557437	3.923359	10.420790	0.697135	0.040342	0.151303	0.699630
44003	-3.622698	3.364609	9.624062	0.704363	0.040151	0.149253	0.692809
44004	-3.719861	3.391112	9.486639	0.711383	0.040174	0.146932	0.686099
44005	-3.568470	3.195032	9.231498	0.717938	0.040800	0.144911	0.679633
44006	-3.466588	3.363334	9.136696	0.724292	0.041950	0.142975	0.673201
44007	-3.217840	3.267576	9.216879	0.730375	0.043560	0.141317	0.666847
44008	-3.207074	3.745782	9.245112	0.736068	0.045239	0.139815	0.660764
44009	-3.085222	3.942361	9.046100	0.741452	0.046367	0.137276	0.655175
44010	-2.973462	2.994684	8.904221	0.746433	0.046685	0.133853	0.650186
44011	-2.619531	2.760881	8.317748	0.750971	0.047113	0.131034	0.645487
44012	-2.426388	2.745851	8.713234	0.755070	0.047589	0.129343	0.640995
44013	-2.299748	3.041729	9.039249	0.759039	0.047487	0.127639	0.636642
44014	-1.922624	2.917531	8.516021	0.762948	0.047378	0.126314	0.632227
44015	-1.710418	3.142512	8.405982	0.766868	0.046959	0.125156	0.627729
44016	-1.696032	3.337978	8.554184	0.770398	0.046741	0.124438	0.623553
44017	-1.462996	3.145246	8.663853	0.773628	0.046196	0.123479	0.619773
44018	-1.039154	2.475287	8.330861	0.776724	0.045999	0.122798	0.616040
44019	-0.784067	2.540268	8.897468	0.779544	0.046019	0.123659	0.612292
44020	-1.062270	2.892469	9.316036	0.782106	0.046318	0.125397	0.608639
44021	-0.857128	3.762913	9.690034	0.784409	0.046220	0.127536	0.605228
44022	-0.814951	4.084781	10.041731	0.786325	0.045730	0.129478	0.602360
44023	-0.527382	3.812883	10.191337	0.787963	0.044823	0.130585	0.600044
44024	-0.499014	3.220037	9.776770	0.789288	0.044178	0.131198	0.598214
44025	-0.691595	2.593661	9.529253	0.790403	0.043639	0.131857	0.596634
44026	-0.888863	2.229429	9.666333	0.791429	0.042895	0.132399	0.595207
44027	-1.095607	2.103284	10.097213	0.792074	0.042235	0.132950	0.594271
44028	-0.801944	2.083918	10.102692	0.792489	0.041952	0.133886	0.593528
44029	-0.727334	2.442051	9.751674	0.792667	0.041347	0.135209	0.593033
44030	-1.042316	2.797479	10.313648	0.792592	0.040870	0.137095	0.592733
44031	-0.741784	2.721709	10.155803	0.792509	0.040095	0.138681	0.592528
44032	-0.531568	3.045034	9.639022	0.792383	0.039917	0.141277	0.592095
44033	-0.689355	3.340192	8.995762	0.792273	0.039814	0.144418	0.591491
44034	-0.613832	3.678273	7.979445	0.792075	0.040062	0.148225	0.590798
44035	-0.719589	3.477828	6.966131	0.791216	0.039552	0.153498	0.590636
44036	-0.725540	3.865226	6.478497	0.789295	0.039492	0.161183	0.591163
44037	-1.095447	4.240892	6.049061	0.786118	0.038622	0.171329	0.592598
44038	-1.525907	5.120408	5.847349	0.781646	0.036585	0.183237	0.595076
44039	-2.617606	6.870369	6.473109	0.775788	0.031709	0.195448	0.599123
44040	-2.248152	6.978233	6.594981	0.768594	0.023027	0.205081	0.605536
44041	-1.973058	6.897581	5.867852	0.758462	0.015339	0.218083	0.613954
44042	-3.488508	6.643937	7.501493	0.746163	0.006506	0.230784	0.624450
44043	-4.015586	4.345179	6.957586	0.732895	-0.002289	0.243405	0.635306
44044	-4.037733	2.592075	7.113476	0.719014	-0.012077	0.257296	0.645501
44045	-3.845765	0.813480	7.482530	0.706315	-0.021204	0.271409	0.653458
44046	-3.209660	-0.199827	7.512208	0.695525	-0.029950	0.287245	0.657905
44047	-4.083169	-0.782978	8.736390	0.688201	-0.038053	0.303846	0.657730
44048	-5.270073	-0.991778	9.687383	0.683823	-0.046550	0.321501	0.653343
44049	-6.650517	-2.049760	9.097535	0.681322	-0.057748	0.334417	0.648560
44050	-6.102135	-2.647967	9.751380	0.680186	-0.065852	0.346146	0.642801
44051	-6.571205	-1.903216	11.583003	0.681917	-0.066887	0.360446	0.632925
44052	-7.855361	-0.692360	11.196414	0.686820	-0.065728	0.374605	0.619378
44053	-10.686645	-1.496396	11.644721	0.694523	-0.061909	0.386402	0.603738
44054	-10.143440	0.693545	12.317311	0.705039	-0.054037	0.397443	0.584840
44055	-10.446963	3.821451	12.314962	0.717054	-0.046444	0.403402	0.566519
44056	-12.103104	5.552847	11.624652	0.729807	-0.036931	0.405196	0.549394
44057	-10.708378	4.791898	10.803747	0.742888	-0.026642	0.401676	0.534850
44058	-10.162226	5.986644	9.819327	0.755614	-0.015179	0.396969	0.520801
44059	-8.248482	6.133151	7.981281	0.767614	-0.000658	0.390918	0.507890
44060	-7.275750	6.883658	7.893745	0.778665	0.012006	0.382439	0.497269
44061	-6.449438	7.625937	5.703912	0.788025	0.024562	0.373833	0.488530
44062	-6.349252	7.112134	5.365327	0.795873	0.033713	0.363405	0.483101
44063	-5.376295	6.130755	4.644182	0.802483	0.041574	0.352594	0.479552
44064	-4.176785	7.004249	4.339791	0.807534	0.047324	0.342830	0.477615
44065	-3.928636	5.866579	4.490079	0.811248	0.050137	0.333180	0.477864
44066	-3.602747	4.684214	4.629397	0.814159	0.050196	0.323886	0.479294
44067	-3.510711	4.450369	4.488118	0.815689	0.049930	0.316630	0.481564
44068	-3.611477	3.871635	5.313747	0.816040	0.049745	0.311382	0.484401
44069	-3.453724	4.254740	5.778079	0.815427	0.049334	0.308071	0.487583
44070	-3.901201	3.552274	6.228159	0.814320	0.048057	0.305565	0.491125
44071	-4.001150	3.297440	6.491384	0.812753	0.046763	0.304232	0.494659
44072	-4.377137	3.315857	7.233945	0.811336	0.045345	0.303115	0.497794
44073	-4.439781	3.182135	7.512809	0.810383	0.043064	0.301441	0.500557
44074	-4.466366	2.816458	7.691699	0.809415	0.041408	0.300503	0.502823
44075	-4.566807	2.885852	7.988105	0.808428	0.040945	0.300338	0.504544
44076	-4.528434	3.242810	8.172549	0.807489	0.040731	0.300548	0.505938
44077	-4.642665	3.427125	8.209531	0.806672	0.040427	0.300773	0.507131
44078	-4.673101	3.156940	8.258276	0.806041	0.040151	0.300856	0.508105
44079	-4.460620	3.187306	8.318994	0.805539	0.040790	0.301093	0.508710
44080	-4.440778	3.561564	8.704398	0.805119	0.041502	0.301237	0.509233
44081	-4.598776	3.582728	8.388631	0.804885	0.041678	0.300990	0.509733
44082	-4.669896	3.372582	8.505504	0.804739	0.041820	0.300691	0.510128
44083	-4.410936	3.544277	8.415029	0.804762	0.042321	0.300205	0.510337
44084	-4.296200	3.620453	8.646816	0.804712	0.042813	0.299601	0.510730
44085	-4.303089	3.551087	8.714958	0.804793	0.043681	0.298460	0.511197
44086	-4.297593	3.734484	8.600310	0.804795	0.044531	0.297288	0.511802
44087	-4.360939	3.641407	8.331197	0.804817	0.045135	0.296155	0.512372
44088	-4.196240	3.290115	8.101851	0.804843	0.045929	0.295293	0.512757
44089	-4.060793	3.285264	8.478893	0.804584	0.047131	0.295014	0.513216
44090	-3.964526	3.716811	8.596892	0.804290	0.048125	0.294366	0.513956
44091	-3.784571	3.515784	8.152684	0.803951	0.049347	0.293801	0.514693
44092	-3.776276	3.362943	7.973086	0.803696	0.050720	0.293426	0.515172
44093	-3.757511	3.381152	7.595375	0.803535	0.052038	0.293376	0.515320
44094	-3.643227	3.195553	7.379728	0.803311	0.053358	0.293962	0.515200
44095	-3.427535	3.174541	7.137416	0.803074	0.054672	0.295259	0.514689
44096	-3.339347	3.001719	6.617495	0.802914	0.055906	0.297455	0.513542
44097	-3.471060	2.647374	6.114028	0.803198	0.057888	0.300442	0.511133
44098	-3.339132	2.745214	5.720539	0.804119	0.060578	0.304421	0.507002
44099	-2.947042	3.005495	5.072331	0.805276	0.062207	0.310075	0.501511
44100	-2.807927	2.685117	4.617890	0.806004	0.061737	0.318160	0.495297
44101	-3.000594	2.344104	4.447085	0.806407	0.059696	0.328836	0.487863
44102	-3.010783	2.342336	4.128726	0.806561	0.056107	0.341663	0.479144
44103	-3.073032	2.256068	3.695587	0.806329	0.050203	0.356420	0.469338
44104	-3.166050	2.004029	3.303616	0.805674	0.041991	0.373178	0.458108
44105	-3.692105	1.622620	2.912491	0.804641	0.031773	0.392040	0.444802
44106	-4.872611	1.480301	2.570044	0.803044	0.019179	0.412347	0.429794
44107	-5.928469	0.891109	2.466384	0.800930	0.004196	0.432669	0.413874
44108	-7.834179	1.007569	2.649312	0.797546	-0.014167	0.454717	0.396173
44109	-9.552008	2.459478	3.153637	0.794108	-0.033808	0.476344	0.375961
44110	-10.066305	3.478596	3.789911	0.790004	-0.056904	0.496332	0.355402
44111	-10.751198	2.696843	4.339017	0.784128	-0.082597	0.515563	0.335434
44112	-11.766276	1.206279	5.582115	0.776724	-0.113325	0.532459	0.316773
44113	-14.164977	-1.348069	5.188762	0.767683	-0.147349	0.547485	0.298684
44114	-15.697875	-2.775198	6.905870	0.760291	-0.175150	0.560142	0.278426
44115	-14.685658	-4.246136	8.456504	0.754556	-0.196574	0.570916	0.257018
44116	-13.815729	-2.805433	10.033328	0.751478	-0.206835	0.582770	0.229954
44117	-13.267901	-2.219193	9.854593	0.748137	-0.217896	0.591660	0.206765
44118	-13.123517	-4.092402	6.655093	0.746672	-0.226724	0.597612	0.184224
44119	-9.398255	-1.479449	3.892014	0.748311	-0.223803	0.604142	0.157972
44120	-6.820587	1.392277	0.186718	0.745758	-0.215304	0.616197	0.133382
44121	-9.473939	4.117860	-3.399668	0.737913	-0.198885	0.635153	0.111847
44122	-12.859846	8.231737	-2.928499	0.728094	-0.174390	0.656450	0.092417
44123	-15.181142	9.459032	1.043712	0.716236	-0.151946	0.676429	0.079766
44124	-14.821348	10.049695	0.064931	0.705793	-0.133811	0.691503	0.075986
44125	-14.984398	9.437773	-0.608299	0.696374	-0.119642	0.703524	0.076182
44126	-15.534637	6.508941	6.056666	0.692799	-0.116567	0.706313	0.086969
44127	-13.303709	0.792492	8.058902	0.697672	-0.119795	0.698176	0.107016
44128	-9.929585	-3.377463	1.868355	0.702774	-0.128330	0.686879	0.133556
44129	-8.328501	-6.741017	-2.923784	0.704282	-0.134503	0.679427	0.155802
44130	-8.098003	-7.053090	-1.468063	0.706838	-0.128861	0.675495	0.165774
44131	-8.013275	-6.178643	1.484035	0.709992	-0.113994	0.675149	0.164590
44132	-8.549676	-4.262578	2.897040	0.713341	-0.093419	0.677051	0.154982
44133	-8.864731	-1.867013	2.659869	0.717331	-0.071655	0.678261	0.142350
44134	-8.954293	-0.171932	2.328911	0.722098	-0.052352	0.677089	0.131847
44135	-9.293428	-0.597825	1.600952	0.727035	-0.038004	0.673904	0.125811
44136	-10.177187	-1.781056	0.423729	0.731631	-0.025221	0.670566	0.120087
44137	-10.556368	-2.276768	-0.999760	0.736039	-0.013120	0.667477	0.112021
44138	-10.343761	-1.965721	-1.571835	0.740065	-0.001051	0.664921	0.100913
44139	-10.068946	-1.229125	-1.720010	0.743181	0.011145	0.663249	0.087511
44140	-10.440475	-0.169706	-1.365391	0.745208	0.022376	0.662382	0.073580
44141	-10.808620	0.841289	-0.819595	0.747197	0.030729	0.661052	0.061347
44142	-10.498205	1.216590	-0.764043	0.749611	0.035675	0.658882	0.051826
44143	-10.064508	1.358396	-0.779434	0.751747	0.038730	0.656805	0.044528
44144	-10.003405	1.360868	-0.522033	0.753464	0.040780	0.655057	0.039102
44145	-10.007280	1.261122	-0.342440	0.754765	0.042709	0.653674	0.034870
44146	-9.863592	1.362593	-0.069311	0.755827	0.044849	0.652462	0.031733
44147	-9.741831	1.295142	0.127418	0.756593	0.047008	0.651513	0.029807
44148	-9.530013	1.061340	0.328348	0.757277	0.049034	0.650606	0.028978
44149	-9.312711	0.771733	0.409801	0.757922	0.051171	0.649698	0.028768
44150	-9.221344	0.538123	0.535928	0.758477	0.053177	0.648878	0.029008
44151	-9.305932	0.285448	0.632387	0.759128	0.054718	0.647968	0.029460
44152	-9.565762	0.057806	0.790897	0.759809	0.055904	0.647064	0.029532
44153	-10.007175	-0.288866	0.991620	0.760480	0.056281	0.646262	0.029125
44154	-10.058809	-0.530869	1.034629	0.761118	0.055885	0.645604	0.027776
44155	-9.888864	-0.441909	1.389070	0.761441	0.054800	0.645422	0.025216
44156	-9.915378	-0.400106	1.688020	0.761372	0.053002	0.645781	0.021682
44157	-9.728734	-0.289782	1.759762	0.761144	0.050688	0.646370	0.017217
44158	-9.354159	-0.298794	1.807331	0.760598	0.048325	0.647311	0.011986
44159	-9.083667	-0.324568	1.713825	0.759538	0.046512	0.648769	0.006031
44160	-8.813539	0.018753	1.629402	0.758023	0.045565	0.650634	-0.000535
44161	-8.863654	0.374023	1.750519	0.756180	0.045578	0.652732	-0.007376
44162	-9.212427	0.536948	1.667365	0.754263	0.046375	0.654772	-0.014519
44163	-9.429802	0.633740	1.568057	0.752507	0.047212	0.656527	-0.021832
44164	-9.639208	0.332460	1.551765	0.750715	0.047867	0.658257	-0.028874
44165	-9.971233	-0.049917	1.524569	0.748869	0.049152	0.659895	-0.036300
44166	-10.108107	-0.040350	1.388419	0.747077	0.051373	0.661247	-0.044596
44167	-9.871195	0.122879	1.374963	0.745305	0.054510	0.662324	-0.053625
44168	-9.657876	0.360231	1.397386	0.743515	0.058371	0.663198	-0.062826
44169	-9.560119	0.418826	1.384972	0.741813	0.062550	0.663821	-0.071717
44170	-9.592967	0.390182	1.217492	0.740230	0.067101	0.664145	-0.080422
44171	-9.573442	0.472116	1.072578	0.738804	0.072189	0.664085	-0.089152
44172	-9.572343	0.516972	1.053717	0.737516	0.077506	0.663727	-0.097614
44173	-9.756402	0.408176	1.010907	0.736333	0.082875	0.663160	-0.105665
44174	-9.931860	0.337214	0.822277	0.735452	0.088295	0.662122	-0.113616
44175	-9.969184	0.315248	0.759914	0.734727	0.093514	0.660833	-0.121370
44176	-9.904922	0.292256	0.784115	0.734116	0.098563	0.659317	-0.129076
44177	-9.919657	0.275608	0.822022	0.733582	0.103314	0.657654	-0.136654
44178	-10.021617	0.219422	0.810237	0.733228	0.107741	0.655756	-0.144055
44179	-10.031858	0.229308	0.730211	0.733048	0.111761	0.653633	-0.151373
44180	-9.972634	0.165026	0.649452	0.733050	0.115164	0.651366	-0.158420
44181	-9.972146	0.059803	0.644107	0.733127	0.118110	0.649066	-0.165191
44182	-10.065735	0.082407	0.658218	0.733385	0.120609	0.646628	-0.171673
44183	-10.057036	0.144110	0.633581	0.733657	0.122755	0.644238	-0.177865
44184	-10.052737	0.239873	0.608438	0.733900	0.124552	0.641980	-0.183680
44185	-10.057705	0.263300	0.651241	0.734069	0.125892	0.639982	-0.188989
44186	-10.057860	0.300705	0.684329	0.734171	0.126924	0.638226	-0.193782
44187	-10.041475	0.433481	0.708401	0.734259	0.127729	0.636666	-0.198006
44188	-9.929678	0.592404	0.754482	0.734414	0.128293	0.635255	-0.201563
44189	-9.783843	0.678507	0.799078	0.734687	0.128548	0.634031	-0.204243
44190	-9.690728	0.713473	0.847671	0.735055	0.128589	0.633006	-0.206063
44191	-9.681318	0.682696	0.875281	0.735604	0.128319	0.632158	-0.206874
44192	-9.674041	0.568666	0.923517	0.736218	0.127828	0.631529	-0.206918
44193	-9.697839	0.461063	1.063153	0.736869	0.127173	0.631119	-0.206254
44194	-9.811704	0.282367	1.212103	0.737531	0.126276	0.630976	-0.204869
44195	-9.904726	0.077237	1.258862	0.738212	0.125177	0.631038	-0.202891
44196	-9.957063	-0.078934	1.330645	0.738858	0.123933	0.631301	-0.200468
44197	-9.923887	-0.237729	1.432423	0.739448	0.122581	0.631741	-0.197720
44198	-9.859612	-0.392417	1.527938	0.739954	0.121235	0.632335	-0.194737
44199	-9.737667	-0.489562	1.565672	0.740347	0.119950	0.633082	-0.191586
44200	-9.631251	-0.575605	1.609509	0.740604	0.118806	0.633976	-0.188322
44201	-9.529767	-0.624907	1.650481	0.740708	0.117852	0.634999	-0.185035
44202	-9.423856	-0.596463	1.628565	0.740666	0.117177	0.636086	-0.181874
44203	-9.334334	-0.610669	1.604282	0.740519	0.116676	0.637224	-0.178784
44204	-9.345152	-0.611396	1.539729	0.740245	0.116394	0.638410	-0.175848
44205	-9.416585	-0.593856	1.496744	0.739901	0.116224	0.639610	-0.173026
44206	-9.538505	-0.600680	1.412893	0.739474	0.116136	0.640824	-0.170397
44207	-9.614172	-0.517822	1.360748	0.739004	0.116076	0.641999	-0.168037
44208	-9.703277	-0.422609	1.335312	0.738567	0.115853	0.643139	-0.165737
44209	-9.800482	-0.408631	1.366273	0.738053	0.115406	0.644401	-0.163423
44210	-9.860247	-0.361845	1.353648	0.737515	0.114607	0.645755	-0.161051
44211	-9.746781	-0.247055	1.340957	0.737061	0.113565	0.647059	-0.158619
44212	-9.657867	-0.154156	1.336820	0.736672	0.112299	0.648374	-0.155931
44213	-9.630273	-0.205966	1.255143	0.736365	0.111059	0.649590	-0.153187
44214	-9.651436	-0.276250	1.315365	0.736016	0.109847	0.650848	-0.150368
44215	-9.761496	-0.312899	1.405979	0.735676	0.108712	0.652068	-0.147546
44216	-9.776285	-0.332128	1.359383	0.735438	0.107502	0.653166	-0.144734
44217	-9.787811	-0.294971	1.345318	0.735283	0.106300	0.654136	-0.142003
44218	-9.760393	-0.339979	1.282235	0.735123	0.105125	0.655060	-0.139423
44219	-9.777570	-0.369477	1.334669	0.734986	0.103915	0.655924	-0.136974
44220	-9.784566	-0.435528	1.337828	0.734917	0.102637	0.656685	-0.134635
44221	-9.792338	-0.444489	1.311922	0.734925	0.101205	0.657362	-0.132355
44222	-9.794207	-0.439297	1.299657	0.734995	0.099682	0.657946	-0.130202
44223	-9.807383	-0.465496	1.280939	0.735062	0.098196	0.658484	-0.128218
44224	-9.803285	-0.475541	1.305039	0.735147	0.096690	0.658967	-0.126384
44225	-9.819742	-0.431828	1.316492	0.735315	0.095122	0.659319	-0.124744
44226	-9.812955	-0.397309	1.273942	0.735557	0.093473	0.659579	-0.123179
44227	-9.795909	-0.385136	1.314491	0.735822	0.091785	0.659796	-0.121697
44228	-9.776285	-0.413000	1.335406	0.736118	0.090101	0.659953	-0.120311
44229	-9.822636	-0.411771	1.346621	0.736414	0.088474	0.660081	-0.118994
44230	-9.843124	-0.390562	1.355958	0.736759	0.086862	0.660139	-0.117717
44231	-9.848573	-0.382241	1.340435	0.737122	0.085271	0.660145	-0.116570
44232	-9.803309	-0.359522	1.355716	0.737494	0.083828	0.660100	-0.115517
44233	-9.798426	-0.373011	1.422595	0.737879	0.082517	0.660001	-0.114556
44234	-9.777123	-0.403446	1.434635	0.738266	0.081340	0.659877	-0.113623
44235	-9.796424	-0.382283	1.433882	0.738617	0.080320	0.659759	-0.112749
44236	-9.822006	-0.372740	1.435576	0.738979	0.079429	0.659599	-0.111939
44237	-9.814827	-0.332030	1.419015	0.739373	0.078634	0.659374	-0.111221
44238	-9.845023	-0.310944	1.375678	0.739769	0.077903	0.659122	-0.110593
44239	-9.804873	-0.298000	1.383262	0.740199	0.077210	0.658821	-0.109993
44240	-9.745099	-0.277635	1.391506	0.740668	0.076537	0.658472	-0.109398
44241	-9.670503	-0.297211	1.394144	0.741159	0.075930	0.658094	-0.108765
44242	-9.609222	-0.309296	1.394750	0.741625	0.075435	0.657730	-0.108136
44243	-9.582089	-0.315260	1.422199	0.742077	0.075091	0.657360	-0.107522
44244	-9.599672	-0.319983	1.417911	0.742539	0.074882	0.656954	-0.106957
44245	-9.693717	-0.415923	1.428020	0.743000	0.074747	0.656538	-0.106401
44246	-9.785764	-0.363894	1.440662	0.743432	0.074796	0.656102	-0.106038
44247	-9.734849	-0.220418	1.429265	0.744007	0.074741	0.655519	-0.105653
44248	-9.714760	-0.317734	1.565662	0.744459	0.074521	0.655113	-0.105143
44249	-9.685149	-0.392176	1.575214	0.744810	0.074400	0.654793	-0.104735
44250	-9.571278	-0.339227	1.504602	0.745232	0.074425	0.654360	-0.104417
44251	-9.486413	-0.258172	1.503390	0.745638	0.074636	0.653942	-0.103984
44252	-9.584179	-0.321258	1.374368	0.746097	0.075025	0.653435	-0.103597
44253	-9.562061	-0.279819	1.322224	0.746620	0.075684	0.652783	-0.103465
44254	-9.603811	-0.227052	1.445534	0.747091	0.076270	0.652194	-0.103347
44255	-9.666895	-0.222418	1.427025	0.747557	0.076690	0.651639	-0.103165
44256	-9.723062	-0.268113	1.432881	0.748050	0.076913	0.651092	-0.102885
44257	-9.694412	-0.248753	1.398878	0.748539	0.076939	0.650575	-0.102579
44258	-9.672628	-0.241897	1.380645	0.748971	0.076909	0.650120	-0.102330
44259	-9.705162	-0.201281	1.412886	0.749363	0.076826	0.649705	-0.102153
44260	-9.703698	-0.228222	1.442831	0.749724	0.076808	0.649305	-0.102070
44261	-9.684014	-0.152018	1.453834	0.750104	0.076784	0.648881	-0.101989
44262	-9.677191	-0.128639	1.504050	0.750455	0.076767	0.648490	-0.101907
44263	-9.728948	-0.099040	1.521183	0.750776	0.076716	0.648140	-0.101808
