// Start Time: Unknown
// Update Rate: 60.0Hz
// Filter Profile: human (46.1)
// Option Flags: AHS Disabled ICC Disabled 
// Firmware Version: 4.3.5
PacketCounter	Acc_X	Acc_Y	Acc_Z	Quat_q0	Quat_q1	Quat_q2	Quat_q3
34999	-0.060279	9.525007	2.679158	-0.486437	-0.374325	0.474146	0.631225
35000	-0.183339	9.469436	2.682377	-0.487111	-0.374841	0.473693	0.630739
35001	-0.182279	9.438757	2.592238	-0.487602	-0.375451	0.473463	0.630170
35002	-0.155956	9.601680	2.534034	-0.488000	-0.375985	0.473272	0.629687
35003	-0.195182	9.363973	2.432411	-0.488351	-0.376170	0.473194	0.629363
35004	0.112302	9.371881	2.570572	-0.488783	-0.376724	0.473178	0.628707
35005	0.102487	9.603693	2.522631	-0.489381	-0.377675	0.472918	0.627866
35006	0.051468	9.452831	2.220412	-0.490303	-0.379163	0.472173	0.626810
35007	-0.190214	9.399391	2.404647	-0.491612	-0.381933	0.470868	0.625083
35008	-0.305512	9.490064	2.614123	-0.492952	-0.384335	0.469601	0.623505
35009	0.004535	9.623739	2.681290	-0.493632	-0.386276	0.469206	0.622064
35010	0.046307	9.142649	2.663351	-0.494093	-0.388175	0.468974	0.620690
35011	-0.226747	9.342665	2.648556	-0.494239	-0.390233	0.469266	0.619060
35012	-0.422088	9.725513	2.630453	-0.494386	-0.391666	0.469526	0.617840
35013	-0.280353	9.813861	2.402969	-0.494425	-0.392540	0.469774	0.617065
35014	-0.184945	9.487424	2.472810	-0.495077	-0.393031	0.469000	0.616818
35015	-0.315717	9.382081	2.456638	-0.495544	-0.393461	0.468475	0.616568
35016	-0.300429	9.502690	2.312258	-0.495394	-0.393495	0.468683	0.616509
35017	-0.244614	9.585453	2.501889	-0.495543	-0.393325	0.468218	0.616850
35018	-0.220928	9.427686	2.508860	-0.495798	-0.392891	0.467734	0.617289
35019	-0.143202	9.461224	2.498511	-0.495626	-0.392400	0.467963	0.617567
35020	0.129594	9.521482	2.430359	-0.495123	-0.392130	0.468527	0.617713
35021	0.155770	9.652457	2.451571	-0.494962	-0.392185	0.468510	0.617820
35022	0.041905	9.647199	2.457424	-0.495069	-0.392388	0.468173	0.617862
35023	-0.026740	9.746033	2.534760	-0.495281	-0.392533	0.467874	0.617826
35024	-0.134709	9.578580	2.577808	-0.496024	-0.392423	0.466946	0.618002
35025	-0.252752	9.396546	2.516568	-0.496586	-0.392351	0.466315	0.618072
35026	-0.325227	9.327488	2.493988	-0.496942	-0.392278	0.466025	0.618051
35027	-0.308809	9.098759	2.406461	-0.496999	-0.392416	0.466150	0.617824
35028	-0.071870	9.354485	2.401303	-0.497043	-0.393180	0.466496	0.617041
35029	-0.112557	9.779751	2.416586	-0.497974	-0.394187	0.466062	0.615975
35030	-0.174033	9.693690	2.536509	-0.499307	-0.394702	0.465236	0.615190
35031	-0.084210	9.393764	2.591768	-0.500629	-0.395442	0.464302	0.614345
35032	-0.403493	9.208245	2.543308	-0.501873	-0.396999	0.463265	0.613108
35033	-0.588207	9.056298	2.238294	-0.502813	-0.399211	0.462529	0.611455
35034	-0.665075	9.436696	2.182948	-0.503734	-0.402692	0.461865	0.608910
35035	-0.760768	9.858400	2.140282	-0.504817	-0.405517	0.460935	0.606840
35036	-0.073101	10.088501	2.330988	-0.505759	-0.406743	0.460472	0.605585
35037	0.322185	9.388300	2.455103	-0.507479	-0.408032	0.458963	0.604424
35038	-0.184438	8.727036	2.546383	-0.509158	-0.410528	0.457115	0.602719
35039	-0.872880	9.418084	2.660814	-0.509256	-0.412856	0.457760	0.600553
35040	-0.642644	9.984158	2.299393	-0.508502	-0.413875	0.459640	0.599053
35041	-0.523286	9.944366	2.215265	-0.508661	-0.414334	0.459721	0.598538
35042	-0.601011	9.880132	2.433863	-0.509120	-0.414254	0.459254	0.598562
35043	-0.340370	9.557452	2.614822	-0.509394	-0.413624	0.459144	0.598849
35044	-0.095603	9.287804	2.380687	-0.508884	-0.413292	0.459830	0.598985
35045	-0.262198	9.331500	2.269937	-0.508478	-0.412912	0.460395	0.599158
35046	0.064652	9.243353	2.077408	-0.507808	-0.411903	0.461163	0.599830
35047	-0.047173	9.659414	2.344581	-0.507321	-0.411329	0.461802	0.600144
35048	-0.164399	9.817276	2.223659	-0.506813	-0.410527	0.462605	0.600504
35049	-0.173850	10.002443	2.405143	-0.506617	-0.409259	0.463150	0.601114
35050	0.005349	9.555931	2.314765	-0.506816	-0.407573	0.463165	0.602080
35051	-0.011774	9.505495	2.363190	-0.506956	-0.406074	0.463210	0.602939
35052	-0.133058	9.793979	2.294841	-0.506945	-0.404448	0.463438	0.603866
35053	-0.229420	10.244267	2.512443	-0.507575	-0.402191	0.462689	0.605416
35054	-0.392023	9.964496	2.861034	-0.509252	-0.399241	0.460247	0.607817
35055	-0.637095	9.064328	3.109611	-0.511588	-0.396591	0.456697	0.610263
35056	-0.703154	8.885555	3.068713	-0.513079	-0.394832	0.454612	0.611707
35057	-0.500101	9.293078	2.868100	-0.513093	-0.393110	0.455208	0.612361
35058	0.102510	9.325571	2.568618	-0.512198	-0.391830	0.456747	0.612785
35059	0.059633	9.488057	2.492430	-0.512519	-0.391087	0.456135	0.613446
35060	-0.188500	9.288660	2.722309	-0.513125	-0.390156	0.455129	0.614279
35061	-0.178031	8.909184	2.776479	-0.513226	-0.389502	0.454707	0.614921
35062	-0.037563	9.015153	2.852682	-0.512719	-0.389106	0.454860	0.615482
35063	-0.106241	9.316531	2.834222	-0.511896	-0.389324	0.455334	0.615679
35064	-0.257285	9.355958	2.673400	-0.511186	-0.389280	0.455512	0.616164
35065	-0.208292	9.419266	2.758216	-0.510364	-0.389295	0.455789	0.616632
35066	-0.096848	9.511256	2.785689	-0.509546	-0.389251	0.456232	0.617007
35067	-0.129065	9.263255	3.011442	-0.509265	-0.388980	0.456179	0.617450
35068	-0.176192	9.099451	2.962474	-0.508630	-0.388809	0.456740	0.617667
35069	-0.224572	9.459547	2.771765	-0.507970	-0.388439	0.457505	0.617877
35070	-0.201916	9.614102	2.793689	-0.507390	-0.387929	0.458120	0.618218
35071	-0.096973	9.517993	2.802064	-0.506841	-0.387592	0.458672	0.618470
35072	-0.173952	9.524029	2.789756	-0.506655	-0.387098	0.458730	0.618888
35073	-0.148738	9.577309	2.669118	-0.506254	-0.386467	0.459087	0.619346
35074	-0.057295	9.372077	2.796360	-0.506041	-0.385895	0.459155	0.619826
35075	-0.128593	9.236162	2.817415	-0.505867	-0.385524	0.459276	0.620109
35076	-0.057839	9.406861	2.680009	-0.505387	-0.385209	0.459809	0.620302
35077	-0.042240	9.520422	2.656781	-0.505117	-0.385152	0.459994	0.620419
35078	-0.019866	9.546155	2.628522	-0.505193	-0.385342	0.459687	0.620467
35079	-0.097925	9.528852	2.655499	-0.505184	-0.385455	0.459487	0.620552
35080	-0.194777	9.435214	2.730028	-0.505188	-0.385620	0.459303	0.620583
35081	-0.102461	9.478416	2.713663	-0.505196	-0.385747	0.459195	0.620577
35082	-0.052586	9.502257	2.639515	-0.505162	-0.385794	0.459181	0.620586
35083	-0.124636	9.408023	2.702387	-0.505243	-0.386041	0.458965	0.620527
35084	-0.121173	9.260803	2.752951	-0.505164	-0.386321	0.458999	0.620391
35085	-0.148040	9.429576	2.825140	-0.505150	-0.386635	0.459057	0.620164
35086	-0.142942	9.429296	2.747651	-0.505072	-0.386837	0.459262	0.619950
35087	-0.124525	9.542535	2.686163	-0.505013	-0.386939	0.459474	0.619777
35088	-0.227347	9.536897	2.765268	-0.505077	-0.386942	0.459456	0.619737
35089	-0.205145	9.460505	2.715112	-0.505099	-0.386924	0.459537	0.619669
35090	-0.103540	9.419458	2.760757	-0.505144	-0.386908	0.459540	0.619640
35091	-0.045365	9.331005	2.731127	-0.505193	-0.387020	0.459610	0.619479
35092	-0.105171	9.609325	2.748523	-0.505232	-0.387247	0.459823	0.619148
35093	-0.196847	9.572980	2.702071	-0.505587	-0.387399	0.459685	0.618865
35094	-0.209939	9.418827	2.639851	-0.505869	-0.387476	0.459602	0.618648
35095	-0.202417	9.403383	2.652871	-0.506031	-0.387435	0.459651	0.618504
35096	-0.058733	9.349057	2.683615	-0.506204	-0.387452	0.459793	0.618247
35097	0.000731	9.490481	2.729212	-0.506504	-0.387566	0.459898	0.617851
35098	0.018064	9.487058	2.733934	-0.506969	-0.387727	0.459879	0.617383
35099	-0.006937	9.352082	2.764830	-0.507631	-0.388001	0.459667	0.616824
35100	0.013874	9.367043	2.891467	-0.508455	-0.388559	0.459324	0.616049
35101	-0.155422	9.447313	2.978725	-0.509436	-0.389434	0.458761	0.615106
35102	-0.237590	9.490462	2.840610	-0.510397	-0.390192	0.458213	0.614236
35103	-0.115591	9.637101	2.754526	-0.511046	-0.390656	0.458068	0.613509
35104	0.001325	9.639004	2.831059	-0.511908	-0.391145	0.457570	0.612850
35105	-0.045631	9.436219	2.914803	-0.513434	-0.391801	0.456059	0.612280
35106	-0.173249	9.237130	2.953211	-0.515018	-0.392793	0.454452	0.611509
35107	-0.249433	9.215293	3.026546	-0.516394	-0.394062	0.453158	0.610492
35108	-0.186479	9.148121	2.989326	-0.517768	-0.395539	0.452011	0.609222
35109	-0.136599	9.347420	2.912560	-0.518612	-0.397394	0.451609	0.607593
35110	-0.211053	9.543908	2.509522	-0.518773	-0.399080	0.451855	0.606166
35111	-0.249093	9.545053	2.596768	-0.519606	-0.400064	0.451181	0.605305
35112	-0.252880	9.297320	2.767575	-0.521059	-0.400885	0.449706	0.604611
35113	-0.230875	9.446013	3.059103	-0.522293	-0.402036	0.448458	0.603707
35114	-0.139362	9.539827	2.798279	-0.523029	-0.403112	0.447755	0.602874
35115	0.001517	9.601010	2.364528	-0.523438	-0.404090	0.447340	0.602172
35116	0.182449	9.675119	2.343122	-0.524033	-0.404977	0.446713	0.601524
35117	0.055790	9.261326	2.439680	-0.525705	-0.405829	0.444805	0.600904
35118	-0.124288	9.375956	2.662414	-0.527401	-0.406614	0.443247	0.600038
35119	-0.120568	9.411020	2.688649	-0.529063	-0.407317	0.441869	0.599114
35120	-0.141702	9.629222	2.594264	-0.530008	-0.408738	0.441298	0.597730
35121	-0.034815	9.715614	2.611342	-0.531243	-0.409838	0.440249	0.596653
35122	0.088184	9.504342	2.697852	-0.533067	-0.410928	0.438475	0.595581
35123	-0.107668	9.474971	2.643904	-0.534793	-0.412071	0.437086	0.594264
35124	-0.111958	9.349445	2.661042	-0.536281	-0.413353	0.436098	0.592757
35125	-0.193513	9.215775	2.567309	-0.537779	-0.414684	0.435037	0.591247
35126	-0.218431	9.271046	2.647962	-0.539209	-0.416025	0.434124	0.589672
35127	-0.155453	9.406921	2.707756	-0.540828	-0.417296	0.433059	0.588072
35128	-0.088595	9.579962	2.682017	-0.542473	-0.418814	0.431970	0.586277
35129	-0.143018	9.575273	2.618041	-0.544318	-0.420452	0.430550	0.584436
35130	-0.265931	9.486282	2.751210	-0.546616	-0.421839	0.428635	0.582696
35131	-0.373378	9.380790	2.789760	-0.549057	-0.423119	0.426657	0.580923
35132	-0.469483	9.371960	2.933324	-0.551104	-0.424333	0.425283	0.579102
35133	-0.346364	9.454137	2.928321	-0.552692	-0.425241	0.424536	0.577470
35134	-0.291244	9.366194	2.802559	-0.554320	-0.425949	0.423535	0.576121
35135	-0.209234	9.294464	2.681509	-0.555638	-0.426441	0.422720	0.575084
35136	-0.179402	9.360728	2.669079	-0.556994	-0.426952	0.421666	0.574167
35137	-0.234081	9.393442	2.766064	-0.558618	-0.427255	0.420280	0.573379
35138	-0.118767	9.506777	2.970442	-0.560096	-0.427608	0.419070	0.572559
35139	-0.107561	9.827131	2.668896	-0.561142	-0.427905	0.418559	0.571686
35140	0.014485	9.518524	2.416543	-0.562569	-0.427828	0.417579	0.571058
35141	-0.045056	9.330511	2.485187	-0.564177	-0.427931	0.416270	0.570350
35142	-0.097242	9.321482	2.802920	-0.566083	-0.427917	0.414774	0.569561
35143	-0.093298	9.590801	2.667888	-0.567728	-0.428133	0.413579	0.568630
35144	-0.036592	9.644179	2.687062	-0.569401	-0.427997	0.412503	0.567840
35145	-0.066812	9.497117	2.844193	-0.571744	-0.427953	0.410448	0.567007
35146	-0.202824	9.435318	3.024117	-0.573984	-0.427990	0.408498	0.566125
35147	-0.131608	9.392772	3.053280	-0.575778	-0.427878	0.407174	0.565340
35148	-0.048202	9.345693	2.906242	-0.577620	-0.427721	0.405931	0.564473
35149	0.040763	9.230062	2.854511	-0.579582	-0.427677	0.404616	0.563439
35150	-0.084695	9.299006	2.762707	-0.581556	-0.427877	0.403291	0.562202
35151	-0.120793	9.519901	2.884614	-0.583542	-0.428083	0.401887	0.560991
35152	-0.133146	9.633076	2.924418	-0.585768	-0.428395	0.400098	0.559710
35153	-0.004133	9.588175	3.051031	-0.588488	-0.428860	0.397659	0.558237
35154	-0.102352	9.362031	2.929066	-0.591372	-0.429416	0.395179	0.556520
35155	-0.240018	9.195957	2.872785	-0.593832	-0.430016	0.393262	0.554793
35156	-0.083013	9.249752	2.988574	-0.595616	-0.430879	0.392067	0.553053
35157	0.052329	9.278497	3.174136	-0.597709	-0.431630	0.390200	0.551528
35158	0.017152	9.420316	3.204248	-0.600282	-0.432156	0.387825	0.549995
35159	-0.048052	9.628373	3.002260	-0.602797	-0.432691	0.385757	0.548275
35160	-0.084933	9.405375	2.960181	-0.605200	-0.433545	0.383776	0.546340
35161	-0.176647	9.098082	3.197788	-0.607770	-0.434184	0.381477	0.544587
35162	-0.233389	9.146174	3.407845	-0.610194	-0.434967	0.379425	0.542682
35163	-0.222818	9.483983	3.009112	-0.612198	-0.435823	0.378300	0.540519
35164	-0.125955	9.576995	2.864862	-0.614257	-0.436543	0.377278	0.538312
35165	-0.107618	9.145386	3.131630	-0.616782	-0.437291	0.375440	0.536099
35166	-0.187132	8.936745	3.417298	-0.619130	-0.438041	0.373800	0.533921
35167	-0.165432	9.179909	3.616664	-0.621258	-0.438862	0.372399	0.531749
35168	-0.044496	9.255173	3.450215	-0.623612	-0.439617	0.370509	0.529686
35169	-0.060751	9.178944	3.189069	-0.625583	-0.440264	0.369182	0.527747
35170	-0.162310	9.239655	3.200727	-0.627375	-0.440636	0.368038	0.526108
35171	-0.140620	9.214037	3.725008	-0.629171	-0.440880	0.366865	0.524575
35172	-0.132968	9.191656	3.621567	-0.630595	-0.441097	0.366154	0.523177
35173	0.077969	9.331713	3.331822	-0.632274	-0.441158	0.365048	0.521870
35174	0.029570	9.293810	3.210644	-0.634377	-0.441496	0.363267	0.520272
35175	-0.103828	9.222439	3.298908	-0.636497	-0.441867	0.361227	0.518788
35176	-0.090805	9.064102	3.368286	-0.638621	-0.441873	0.359264	0.517533
35177	0.049956	9.238092	3.293468	-0.640261	-0.441891	0.358074	0.516316
35178	0.049132	9.308638	3.546807	-0.642123	-0.441926	0.356361	0.515156
35179	-0.154444	9.035412	3.667304	-0.643990	-0.441795	0.354464	0.514246
35180	-0.119053	9.084370	3.822689	-0.645710	-0.441733	0.352662	0.513381
35181	-0.053244	9.218953	3.542688	-0.647259	-0.441530	0.351124	0.512659
35182	-0.168134	9.184961	3.660360	-0.649048	-0.441100	0.349255	0.512043
35183	-0.283333	8.942646	3.773494	-0.650684	-0.440648	0.347705	0.511410
35184	-0.262484	9.016516	3.571605	-0.651890	-0.440427	0.346658	0.510775
35185	-0.165562	9.070230	3.455935	-0.652875	-0.440311	0.345838	0.510173
35186	-0.306719	8.973875	3.633037	-0.653803	-0.440293	0.344993	0.509572
35187	-0.380313	8.933949	3.811522	-0.654428	-0.440379	0.344411	0.509089
35188	-0.163948	8.950448	3.655620	-0.654822	-0.440458	0.344041	0.508764
35189	-0.301400	9.053649	3.497679	-0.655001	-0.440536	0.343885	0.508571
35190	-0.411961	9.052303	3.633239	-0.654894	-0.440599	0.344091	0.508515
35191	-0.439259	9.027443	3.693088	-0.654506	-0.440533	0.344685	0.508670
35192	-0.395109	9.057087	3.736676	-0.653887	-0.440272	0.345544	0.509109
35193	-0.435236	9.042527	3.711089	-0.652901	-0.439878	0.346778	0.509876
35194	-0.334306	8.903537	3.625641	-0.651585	-0.439479	0.348321	0.510850
35195	-0.365878	8.988895	3.630592	-0.650254	-0.438957	0.349924	0.511898
35196	-0.278443	9.023499	3.481572	-0.648563	-0.437899	0.352032	0.513502
35197	-0.134976	8.977108	3.621333	-0.646353	-0.437131	0.354716	0.515093
35198	-0.042293	9.137004	3.423525	-0.643609	-0.436375	0.358072	0.516845
35199	0.132772	9.110444	3.531987	-0.640841	-0.435547	0.361263	0.518758
35200	0.018658	8.980600	3.531430	-0.637893	-0.434741	0.364442	0.520841
35201	0.032374	9.162355	3.405459	-0.634347	-0.434360	0.368242	0.522812
35202	-0.059186	9.417482	3.232129	-0.630633	-0.433601	0.372174	0.525147
35203	0.027035	9.439104	3.321207	-0.627055	-0.432536	0.375833	0.527697
35204	0.139881	9.291210	3.186478	-0.623131	-0.431034	0.379998	0.530584
35205	0.268674	9.281784	3.250118	-0.618675	-0.430716	0.384741	0.532634
35206	0.244162	9.364552	2.918462	-0.613537	-0.430619	0.390585	0.534399
35207	0.376806	9.395137	2.874662	-0.608516	-0.430565	0.396451	0.535862
35208	0.237270	9.388259	3.034857	-0.603781	-0.430733	0.401700	0.537173
35209	0.272454	9.427493	2.933360	-0.598857	-0.430810	0.406890	0.538715
35210	0.385568	9.493130	2.834084	-0.593921	-0.430977	0.411937	0.540208
35211	0.322944	9.426082	2.477752	-0.588980	-0.430949	0.416970	0.541777
35212	0.193578	9.511010	2.579605	-0.583841	-0.430914	0.422298	0.543238
35213	0.324427	9.633988	2.921324	-0.579222	-0.430188	0.426826	0.545216
35214	0.324373	9.451845	2.728925	-0.575831	-0.428913	0.429753	0.547507
35215	0.377600	9.421739	2.576690	-0.572534	-0.427923	0.432311	0.549721
35216	0.507090	9.532472	2.377788	-0.568563	-0.427336	0.435665	0.551648
35217	0.362031	9.573562	2.397432	-0.564676	-0.427084	0.439033	0.553164
35218	0.279381	9.604302	2.632680	-0.561259	-0.426201	0.441484	0.555367
35219	0.524747	9.445473	2.474402	-0.558468	-0.424879	0.442716	0.558206
35220	0.494356	9.468232	2.331780	-0.556495	-0.424233	0.442869	0.560542
35221	0.242979	9.579838	2.441487	-0.554665	-0.423790	0.443003	0.562581
35222	0.094671	9.536716	2.671913	-0.552761	-0.422506	0.443264	0.565210
35223	0.164926	9.276471	2.641592	-0.550729	-0.421054	0.443561	0.568036
35224	0.109893	9.257947	2.467397	-0.548713	-0.420454	0.443941	0.570131
35225	0.093438	9.611926	2.266929	-0.545909	-0.420491	0.445726	0.571401
35226	0.197255	9.843853	2.331152	-0.543257	-0.419986	0.447460	0.572942
35227	0.229370	9.784497	2.355079	-0.541430	-0.418985	0.448024	0.574961
35228	0.025058	9.449992	2.536690	-0.540279	-0.417642	0.447773	0.577212
35229	-0.039035	9.181223	2.591434	-0.538896	-0.415990	0.447947	0.579558
35230	-0.041151	9.401089	2.584206	-0.536801	-0.414935	0.449135	0.581336
35231	-0.085058	9.859473	2.532639	-0.534789	-0.414316	0.450303	0.582726
35232	-0.407408	9.917263	2.449823	-0.533831	-0.412973	0.450600	0.584327
35233	-0.121671	9.675166	2.358763	-0.532435	-0.410000	0.450946	0.587419
35234	0.009362	9.420382	2.671099	-0.531163	-0.406613	0.451249	0.590683
35235	0.153031	9.102745	2.698499	-0.529953	-0.403739	0.451372	0.593639
35236	0.017846	9.330438	2.641156	-0.528019	-0.402259	0.452496	0.595509
35237	-0.077519	9.783968	2.644942	-0.525938	-0.401247	0.453715	0.597104
35238	-0.087875	9.741695	2.604095	-0.524354	-0.399771	0.454094	0.599195
35239	-0.035635	9.537596	2.591970	-0.523015	-0.397776	0.453957	0.601791
35240	0.061553	9.737522	2.485162	-0.521272	-0.396529	0.454315	0.603853
35241	0.081062	9.974896	2.255384	-0.519695	-0.396789	0.454014	0.605266
35242	0.203754	9.658517	2.020748	-0.518387	-0.396433	0.453601	0.606928
35243	0.326957	9.392544	2.174478	-0.517451	-0.395367	0.453075	0.608812
35244	0.420655	9.249579	2.337824	-0.516890	-0.395234	0.452420	0.609862
35245	0.178476	9.646395	2.527643	-0.517013	-0.395557	0.451112	0.610516
35246	-0.397555	9.216029	2.869867	-0.517764	-0.395361	0.449580	0.611136
35247	-0.495984	8.890886	3.081429	-0.517628	-0.394709	0.449682	0.611598
35248	-0.475575	9.411293	3.063692	-0.516467	-0.394434	0.451611	0.611336
35249	-0.697848	9.742089	2.940587	-0.515466	-0.393832	0.453560	0.611126
35250	-0.665496	9.932801	3.213414	-0.514670	-0.392488	0.455005	0.611587
35251	-0.472565	9.449804	3.160226	-0.513887	-0.390549	0.456032	0.612720
35252	-0.026739	9.082173	2.796808	-0.512599	-0.388586	0.457569	0.613900
35253	-0.020613	9.297877	2.957222	-0.511063	-0.387574	0.458838	0.614873
35254	0.002521	9.213941	2.932128	-0.509937	-0.386501	0.459231	0.616189
35255	0.156358	9.221164	2.853673	-0.508612	-0.386124	0.459754	0.617129
35256	0.176291	9.307168	2.915962	-0.507670	-0.385655	0.459751	0.618199
35257	0.171972	9.173145	2.884096	-0.506406	-0.385699	0.460024	0.619005
35258	-0.041838	9.310675	2.901518	-0.505530	-0.386115	0.459805	0.619624
35259	-0.081291	9.498574	2.686788	-0.504889	-0.386374	0.459323	0.620342
35260	-0.058532	9.880696	2.849871	-0.504744	-0.386422	0.458347	0.621151
35261	-0.154113	9.539369	2.934047	-0.504990	-0.386110	0.456907	0.622206
35262	-0.168225	9.158915	2.922410	-0.504709	-0.385811	0.456163	0.623165
35263	0.125294	9.062673	2.898609	-0.503920	-0.385904	0.456219	0.623704
35264	0.243905	9.283061	2.827196	-0.503566	-0.386577	0.455776	0.623897
35265	0.014571	9.447661	2.863137	-0.503702	-0.387247	0.454796	0.624087
35266	-0.070800	9.349987	2.929889	-0.503780	-0.387928	0.454051	0.624144
35267	-0.043748	9.282864	2.877873	-0.503516	-0.388818	0.453824	0.623968
35268	-0.185842	9.231247	2.787254	-0.503329	-0.389633	0.453465	0.623871
35269	-0.115505	9.295167	2.822937	-0.502955	-0.390349	0.453410	0.623765
35270	-0.087961	9.505694	2.830193	-0.502513	-0.391179	0.453469	0.623559
35271	-0.051559	9.465013	2.831679	-0.502289	-0.392007	0.453160	0.623444
35272	-0.043683	9.444023	2.926011	-0.502315	-0.392794	0.452642	0.623304
35273	0.040694	9.400500	2.915813	-0.502366	-0.393488	0.452251	0.623109
35274	0.012165	9.354360	2.824148	-0.502367	-0.394489	0.452012	0.622648
35275	0.000950	9.217840	2.914077	-0.502471	-0.395601	0.451555	0.622190
35276	-0.206854	9.142830	3.035687	-0.502619	-0.396800	0.451204	0.621562
35277	-0.227993	9.383415	3.075555	-0.502624	-0.397924	0.451236	0.620815
35278	-0.070638	9.581020	2.777289	-0.502476	-0.398816	0.451451	0.620206
35279	-0.042685	9.475762	2.710259	-0.502763	-0.399694	0.450631	0.620005
35280	-0.056820	9.100121	2.834969	-0.503413	-0.400684	0.449113	0.619939
35281	-0.005552	8.967361	2.772993	-0.503653	-0.401984	0.448190	0.619571
35282	0.032144	9.278382	2.909278	-0.503686	-0.403959	0.447430	0.618809
35283	-0.227697	9.324535	2.999269	-0.504246	-0.406193	0.446074	0.617869
35284	-0.609243	9.286772	2.978890	-0.504536	-0.408559	0.445350	0.616592
35285	-0.664022	9.157238	2.765269	-0.504099	-0.410785	0.445565	0.615314
35286	-0.442924	9.143300	2.599159	-0.503695	-0.413086	0.445615	0.614067
35287	-0.518035	9.372000	2.612724	-0.503752	-0.415464	0.445040	0.612833
35288	-0.897812	9.540767	2.536344	-0.503963	-0.418014	0.444426	0.611369
35289	-1.222646	9.944956	2.671908	-0.504132	-0.420205	0.444024	0.610017
35290	-1.345498	10.098742	2.540431	-0.504154	-0.421977	0.443726	0.608992
35291	-0.930557	9.989241	2.367682	-0.503445	-0.423534	0.443933	0.608347
35292	-0.772341	9.597517	2.303746	-0.504147	-0.424637	0.442694	0.607899
35293	-0.658275	9.081259	2.400868	-0.504558	-0.425740	0.442132	0.607195
35294	-0.862999	9.716392	2.396498	-0.504176	-0.427572	0.442307	0.606096
35295	-1.136837	9.911517	2.321262	-0.504329	-0.428931	0.441417	0.605658
35296	-1.337360	9.820688	2.277366	-0.504385	-0.429589	0.440730	0.605645
35297	-1.056227	9.596531	2.120918	-0.504452	-0.429518	0.440182	0.606038
35298	-0.834668	9.526948	2.097252	-0.504590	-0.429373	0.439651	0.606412
35299	-0.764769	9.385317	2.154437	-0.504995	-0.429389	0.438864	0.606632
35300	-0.938211	9.238046	2.392124	-0.505361	-0.429475	0.438191	0.606754
35301	-1.190857	9.226212	2.557532	-0.505321	-0.429625	0.438290	0.606609
35302	-1.120175	9.259641	2.338782	-0.504755	-0.429548	0.439425	0.606314
35303	-1.008979	9.359191	2.219132	-0.504148	-0.429404	0.440709	0.605989
35304	-0.925407	9.260040	2.242209	-0.503968	-0.429199	0.441406	0.605777
35305	-0.963898	9.468255	2.407604	-0.503673	-0.429183	0.442234	0.605429
35306	-1.083320	9.714765	2.460837	-0.503191	-0.429355	0.443101	0.605074
35307	-1.244504	9.650741	2.241937	-0.502812	-0.428985	0.443776	0.605157
35308	-1.264635	9.477164	2.099788	-0.501921	-0.428279	0.445129	0.605403
35309	-1.004287	9.546661	2.152604	-0.500485	-0.427455	0.447291	0.605581
35310	-0.966727	9.718898	2.268971	-0.499306	-0.427073	0.449109	0.605478
35311	-1.025921	9.729504	2.094332	-0.498491	-0.426296	0.450447	0.605703
35312	-1.086859	9.754288	1.992832	-0.497357	-0.425009	0.452298	0.606160
35313	-1.046726	9.729862	1.918662	-0.496358	-0.423437	0.454097	0.606734
35314	-0.786531	9.704881	2.004032	-0.495422	-0.422098	0.455914	0.607069
35315	-0.647542	9.680061	2.054476	-0.494924	-0.420796	0.457167	0.607436
35316	-0.692271	9.592086	2.138411	-0.494771	-0.419817	0.457892	0.607693
35317	-0.842422	9.622743	2.182942	-0.494518	-0.418989	0.458643	0.607904
35318	-0.880547	9.524520	2.218414	-0.494030	-0.418023	0.459714	0.608156
35319	-0.862774	9.433487	2.112091	-0.493283	-0.417239	0.460887	0.608414
35320	-0.906710	9.590390	1.901274	-0.492263	-0.416104	0.462271	0.608966
35321	-0.441033	9.735189	1.965037	-0.491673	-0.414248	0.463129	0.610056
35322	-0.472774	9.619511	2.026209	-0.491244	-0.412879	0.464026	0.610647
35323	-0.605483	9.701452	2.165107	-0.490992	-0.411397	0.464544	0.611457
35324	-0.607030	9.457255	1.949386	-0.490295	-0.409935	0.465537	0.612241
35325	-0.622554	9.588631	1.916190	-0.489536	-0.408715	0.466717	0.612766
35326	-0.687431	9.654036	2.129643	-0.489131	-0.407621	0.467360	0.613327
35327	-0.501523	9.641841	2.133051	-0.488353	-0.406400	0.468530	0.613865
35328	-0.455076	9.511596	1.994724	-0.487645	-0.404817	0.469817	0.614490
35329	-0.395747	9.441770	1.952421	-0.487255	-0.403610	0.470653	0.614953
35330	-0.547541	9.514308	1.971862	-0.486814	-0.402529	0.471492	0.615368
35331	-0.386647	9.642658	2.026957	-0.486331	-0.401198	0.472507	0.615841
35332	-0.277587	9.754835	1.958903	-0.486062	-0.399996	0.473289	0.616235
35333	-0.323243	9.595961	1.984726	-0.485911	-0.399243	0.473961	0.616325
35334	-0.324060	9.525816	2.147041	-0.485673	-0.398724	0.474795	0.616207
35335	-0.119589	9.629703	2.400550	-0.485395	-0.398162	0.475663	0.616120
35336	-0.056672	9.515266	2.310079	-0.485264	-0.397729	0.476286	0.616021
35337	-0.055510	9.611749	2.185619	-0.484759	-0.397306	0.477338	0.615877
35338	-0.191693	9.664168	1.969233	-0.484423	-0.397029	0.477925	0.615864
35339	-0.039858	9.415555	2.194636	-0.484477	-0.396508	0.478133	0.615997
35340	0.011244	9.447129	2.437479	-0.484519	-0.396243	0.478431	0.615903
35341	0.064356	9.644677	2.393533	-0.484272	-0.395943	0.478964	0.615876
35342	0.098792	9.697574	2.244638	-0.484073	-0.395707	0.479199	0.616001
35343	-0.044968	9.606624	2.265491	-0.484024	-0.395802	0.479079	0.616072
35344	-0.143078	9.604285	2.156229	-0.483852	-0.395932	0.479125	0.616088
35345	-0.010030	9.600581	2.398268	-0.483653	-0.396073	0.479121	0.616156
35346	0.097529	9.558483	2.548018	-0.483692	-0.396110	0.478933	0.616249
35347	0.050612	9.525388	2.310909	-0.483664	-0.396041	0.478744	0.616461
35348	-0.131208	9.585644	2.261924	-0.483647	-0.396100	0.478560	0.616580
35349	0.085759	9.461250	2.461132	-0.483669	-0.395737	0.478270	0.617021
35350	0.055043	9.539094	2.379578	-0.483677	-0.395542	0.477963	0.617377
35351	-0.024848	9.505009	2.389497	-0.483847	-0.395104	0.477412	0.617950
35352	-0.120433	9.386704	2.270043	-0.484050	-0.394557	0.476895	0.618540
35353	-0.013789	9.413605	2.357848	-0.484183	-0.394076	0.476514	0.619036
35354	0.083776	9.446473	2.340091	-0.484351	-0.393747	0.476103	0.619430
35355	0.029380	9.405367	2.363088	-0.484530	-0.393564	0.475649	0.619755
35356	-0.010905	9.391384	2.312487	-0.484764	-0.393415	0.475186	0.620022
35357	-0.020633	9.410916	2.282322	-0.484881	-0.393502	0.474921	0.620077
35358	-0.057683	9.440944	2.269086	-0.485091	-0.393766	0.474632	0.619968
35359	-0.039742	9.546705	2.350716	-0.485419	-0.394029	0.474299	0.619799
35360	0.082345	9.524585	2.492096	-0.485989	-0.394332	0.473686	0.619627
35361	0.041812	9.522098	2.564878	-0.486645	-0.394605	0.472909	0.619532
35362	-0.041980	9.411824	2.324389	-0.487325	-0.395034	0.471939	0.619465
35363	-0.230461	9.517033	2.187550	-0.487852	-0.395626	0.471136	0.619283
35364	-0.190631	9.583438	2.237794	-0.488502	-0.396166	0.470178	0.619154
35365	0.019914	9.455850	2.439876	-0.489179	-0.396634	0.469357	0.618943
35366	0.105272	9.469375	2.503181	-0.489692	-0.397515	0.468912	0.618308
35367	-0.143641	9.385541	2.418338	-0.490473	-0.398726	0.467960	0.617631
35368	-0.268202	9.399477	2.342708	-0.490882	-0.400082	0.467332	0.616903
35369	-0.268651	9.706218	2.318677	-0.491123	-0.401255	0.466845	0.616319
35370	-0.196824	9.719604	2.180412	-0.491470	-0.402318	0.466271	0.615783
35371	-0.241023	9.488909	2.087304	-0.491995	-0.403564	0.465599	0.615056
35372	-0.294469	9.265228	2.095798	-0.492195	-0.404864	0.465417	0.614179
35373	-0.147162	9.398529	2.288244	-0.492025	-0.406196	0.465765	0.613171
35374	-0.240476	9.650747	2.231345	-0.491961	-0.407680	0.466001	0.612057
35375	-0.347802	9.657921	2.166899	-0.492375	-0.409344	0.465610	0.610911
35376	-0.508347	9.747950	2.056052	-0.492682	-0.411066	0.465415	0.609654
35377	-0.439548	9.680483	2.022990	-0.493079	-0.412459	0.465308	0.608473
35378	-0.457424	9.610508	1.874131	-0.493496	-0.414311	0.465343	0.606848
35379	-0.437157	9.796574	1.884188	-0.493593	-0.416158	0.465755	0.605186
35380	-0.207862	9.856980	1.901512	-0.493569	-0.417890	0.466328	0.603569
35381	-0.251461	9.695645	1.827368	-0.494163	-0.419984	0.466078	0.601820
35382	-0.482723	9.494156	1.752313	-0.495312	-0.422148	0.465304	0.599958
35383	-0.544272	9.577232	1.882805	-0.496614	-0.423719	0.464670	0.598263
35384	-0.498512	9.685571	1.810033	-0.498654	-0.424814	0.463216	0.596916
35385	-0.482016	9.748573	1.856231	-0.500837	-0.425826	0.461340	0.595819
35386	-0.728860	9.727741	2.161706	-0.503092	-0.426845	0.459033	0.594971
35387	-0.811703	9.565751	2.114503	-0.504875	-0.427953	0.457074	0.594172
35388	-0.932908	9.698757	1.892273	-0.505567	-0.429189	0.456396	0.593213
35389	-0.903845	10.004142	1.937472	-0.505720	-0.429811	0.455718	0.593152
35390	-0.526263	9.679735	2.017763	-0.505987	-0.428162	0.455360	0.594392
35391	-0.246959	9.610749	2.587545	-0.505958	-0.427441	0.455309	0.594974
35392	-0.631475	9.928137	2.578170	-0.506489	-0.428819	0.454061	0.594485
35393	-0.999718	9.678448	2.531194	-0.507798	-0.429228	0.451287	0.595184
35394	-0.927122	9.014980	2.538659	-0.508337	-0.429487	0.449175	0.596135
35395	-0.936645	9.008262	2.585152	-0.508241	-0.430357	0.447865	0.596575
35396	-0.961342	9.154289	2.432223	-0.508547	-0.430849	0.446695	0.596835
35397	-0.895084	9.421349	2.928379	-0.508449	-0.430953	0.446110	0.597281
35398	-0.907031	9.176114	2.627534	-0.508523	-0.431585	0.445164	0.597468
35399	-1.157496	9.531302	2.433165	-0.508438	-0.432322	0.444195	0.597728
35400	-1.264255	9.799469	2.343845	-0.508592	-0.432548	0.443032	0.598297
35401	-1.082351	9.500614	2.331074	-0.508604	-0.432232	0.442223	0.599113
35402	-0.896006	9.389648	2.266470	-0.508228	-0.431885	0.442122	0.599757
35403	-0.791446	9.647372	2.386791	-0.508120	-0.431587	0.441830	0.600278
35404	-0.584420	9.509891	2.573410	-0.508758	-0.431000	0.440976	0.600786
35405	-0.507363	9.398122	2.596889	-0.509538	-0.430888	0.440062	0.600876
35406	-0.927750	9.526754	2.519959	-0.510438	-0.431213	0.438974	0.600675
35407	-0.979186	9.491350	2.432912	-0.511077	-0.431121	0.438374	0.600636
35408	-0.602015	9.650066	2.466894	-0.511475	-0.430571	0.438384	0.600684
35409	-0.353373	9.272834	2.529683	-0.512307	-0.430185	0.437973	0.600552
35410	-0.523962	9.178285	2.660353	-0.513156	-0.430418	0.437538	0.599977
35411	-0.660577	9.204628	2.808969	-0.513719	-0.430764	0.437389	0.599354
35412	-0.615409	9.172538	2.830539	-0.514097	-0.431481	0.437369	0.598530
35413	-0.905588	9.398280	2.637676	-0.514599	-0.432903	0.437086	0.597276
35414	-1.051017	9.605648	2.489713	-0.515147	-0.434189	0.436740	0.596122
35415	-0.784283	9.462117	2.363980	-0.514953	-0.434392	0.437537	0.595557
35416	-0.669028	9.536196	2.406788	-0.514679	-0.434844	0.438370	0.594852
35417	-0.786896	9.503280	2.337992	-0.514951	-0.435234	0.438413	0.594298
35418	-0.590779	9.529282	2.289012	-0.514907	-0.435334	0.438907	0.593898
35419	-0.489465	9.700146	2.297710	-0.515099	-0.435799	0.438947	0.593361
35420	-0.699368	9.662960	2.276587	-0.515687	-0.436348	0.438346	0.592892
35421	-0.681578	9.510720	2.389935	-0.516066	-0.436341	0.438071	0.592770
35422	-0.691873	9.583712	2.286734	-0.516215	-0.436662	0.437966	0.592481
35423	-0.805671	9.639404	2.204394	-0.516373	-0.436983	0.437524	0.592434
35424	-0.781042	9.471146	2.175608	-0.516461	-0.436939	0.437159	0.592659
35425	-0.460281	9.515338	2.130225	-0.516218	-0.436604	0.437513	0.592856
35426	-0.421938	9.550919	2.222274	-0.516103	-0.436400	0.437682	0.592981
35427	-0.756031	9.331318	2.244002	-0.516382	-0.436475	0.437367	0.592915
35428	-0.893011	9.387399	2.250450	-0.516497	-0.436364	0.437467	0.592824
35429	-0.880177	10.094504	2.233099	-0.516261	-0.436330	0.438294	0.592443
35430	-0.875577	10.181452	1.845508	-0.515951	-0.436024	0.439397	0.592122
35431	-0.862798	9.718999	1.806300	-0.515984	-0.434562	0.440367	0.592447
35432	-0.411116	9.117745	1.906420	-0.515836	-0.432284	0.442082	0.592965
35433	-0.130653	9.330959	1.897493	-0.515151	-0.430546	0.444696	0.592870
35434	-0.083578	9.627429	1.991682	-0.514796	-0.429386	0.446952	0.592324
35435	-0.323933	9.492583	2.253262	-0.515364	-0.428865	0.448156	0.591295
35436	-0.369748	9.449355	2.211374	-0.515141	-0.428642	0.450397	0.589947
35437	-0.299291	9.549452	2.307049	-0.513813	-0.428551	0.454290	0.588184
35438	-0.334256	9.639729	2.380081	-0.512743	-0.428372	0.458561	0.585930
35439	-0.434564	9.595134	2.266865	-0.512009	-0.427855	0.462845	0.583576
35440	-0.272888	9.657324	2.179684	-0.510828	-0.427570	0.467791	0.580870
35441	-0.223446	9.549162	2.343440	-0.509731	-0.426985	0.472874	0.578143
35442	0.031171	9.202928	2.134434	-0.508820	-0.426386	0.477735	0.575384
35443	0.209016	9.144113	2.279157	-0.508215	-0.426306	0.482275	0.572181
35444	0.069129	9.085308	2.061850	-0.508448	-0.426704	0.485582	0.568871
35445	-0.283798	9.325271	2.042263	-0.508394	-0.428203	0.488991	0.564858
35446	-0.181586	9.925081	2.069855	-0.507732	-0.430234	0.493277	0.560164
35447	0.376805	9.760770	2.237622	-0.507135	-0.431808	0.497244	0.555972
35448	0.445335	9.300213	1.855541	-0.506745	-0.434075	0.501704	0.550528
35449	0.022126	8.751305	1.561088	-0.505594	-0.435312	0.507212	0.545541
35450	0.254491	9.184411	1.200165	-0.504062	-0.436470	0.513261	0.540351
35451	0.467731	10.087599	1.139512	-0.502496	-0.438030	0.519237	0.534810
35452	0.025388	10.597333	1.538927	-0.502589	-0.439517	0.522771	0.530037
35453	-0.011632	10.394088	1.483708	-0.503032	-0.438750	0.525307	0.527740
35454	0.545959	10.186605	1.076193	-0.502929	-0.435540	0.528076	0.527735
35455	0.543957	9.942622	0.383427	-0.503163	-0.432041	0.530078	0.528380
35456	0.616724	10.010393	0.378442	-0.504563	-0.430038	0.530626	0.528128
35457	0.751230	10.174264	0.418892	-0.505725	-0.428877	0.531458	0.527124
35458	0.762968	10.475301	0.241940	-0.506117	-0.427350	0.532655	0.526779
35459	1.092691	10.432605	0.302241	-0.506714	-0.425116	0.533106	0.527557
35460	0.984913	10.249031	0.453043	-0.508767	-0.422050	0.531329	0.529830
35461	1.336767	9.288407	-0.098386	-0.510269	-0.417208	0.530760	0.532782
35462	1.279613	9.325143	-0.198428	-0.509590	-0.414245	0.532914	0.533593
35463	1.277271	10.052380	0.089559	-0.509697	-0.413441	0.533150	0.533879
35464	1.030932	10.453488	0.318063	-0.512114	-0.413946	0.529746	0.534563
35465	0.882802	9.968570	0.732748	-0.516631	-0.413564	0.523027	0.537122
35466	1.045112	9.203677	0.489521	-0.519269	-0.414027	0.518884	0.538239
35467	1.056186	9.487743	1.028057	-0.519494	-0.415493	0.517912	0.537828
35468	1.204578	9.703190	1.189866	-0.520556	-0.415462	0.515842	0.538813
35469	0.996222	9.331651	0.804040	-0.521985	-0.415001	0.513856	0.539683
35470	0.971693	9.534860	1.135601	-0.522463	-0.415186	0.513222	0.539682
35471	0.965093	9.359891	1.029252	-0.523306	-0.414173	0.512312	0.540508
35472	1.225993	8.864171	0.543796	-0.523077	-0.413188	0.512821	0.540999
35473	1.377562	9.584150	0.926238	-0.522316	-0.414503	0.513882	0.539721
35474	1.024039	10.040732	1.341377	-0.522448	-0.416643	0.513473	0.538333
35475	0.899133	10.061669	1.192857	-0.522573	-0.418526	0.513023	0.537179
35476	0.561657	9.648537	0.715424	-0.522568	-0.419856	0.512842	0.536317
35477	0.634989	9.318458	0.676381	-0.521888	-0.420945	0.513472	0.535524
35478	0.969220	9.382416	0.655627	-0.519874	-0.421874	0.515721	0.534588
35479	1.311502	9.808326	0.644071	-0.517610	-0.423871	0.518295	0.532713
35480	1.315024	10.106510	0.533597	-0.515870	-0.426798	0.520125	0.530274
35481	0.974249	10.015660	0.772072	-0.514985	-0.430145	0.520734	0.527827
35482	0.601989	9.501359	0.956179	-0.514559	-0.432270	0.520669	0.526570
35483	0.496004	9.467446	0.722762	-0.512587	-0.433527	0.523197	0.524950
35484	0.679899	10.259029	0.695569	-0.510548	-0.434330	0.524514	0.524960
35485	1.200300	10.213368	0.663715	-0.509354	-0.433975	0.524088	0.526836
35486	1.017752	10.072313	0.370405	-0.508964	-0.434660	0.522470	0.528254
35487	0.538764	9.879852	0.601301	-0.509922	-0.435844	0.519572	0.529211
35488	0.208436	9.532340	0.815654	-0.511200	-0.436667	0.516843	0.529972
35489	0.491451	9.563044	1.208592	-0.510929	-0.437918	0.516030	0.529993
35490	0.692924	10.056250	0.952643	-0.509697	-0.438861	0.515860	0.530564
35491	0.473767	10.263078	0.930105	-0.509982	-0.440151	0.513036	0.531958
35492	0.054304	9.501346	1.024925	-0.511659	-0.441700	0.508329	0.533579
35493	0.110936	9.173917	0.984815	-0.511094	-0.443633	0.506727	0.534042
35494	0.547462	9.953516	0.689558	-0.507487	-0.446288	0.509057	0.533053
35495	0.453273	11.513621	1.426349	-0.505285	-0.448614	0.508336	0.533880
35496	-0.281049	10.773743	1.177361	-0.508310	-0.447506	0.500851	0.538987
35497	-0.968633	9.503781	0.689934	-0.511249	-0.446599	0.494039	0.543231
35498	-0.652585	9.293184	1.748405	-0.511646	-0.445011	0.491306	0.546628
35499	0.438213	9.200504	2.139156	-0.510168	-0.442088	0.490392	0.551182
35500	0.884342	9.880891	1.137003	-0.509765	-0.440667	0.486623	0.556013
35501	0.111419	9.980336	0.261310	-0.511219	-0.441931	0.479609	0.559756
35502	-0.546665	9.761530	1.709610	-0.515289	-0.442913	0.469443	0.563851
35503	-0.249431	9.044008	1.921631	-0.518064	-0.442300	0.460996	0.568738
35504	0.162880	8.989211	1.022104	-0.517357	-0.443164	0.457229	0.571742
35505	-0.023639	9.780619	1.258181	-0.516942	-0.444781	0.452770	0.574404
35506	-0.200151	9.746175	2.171201	-0.519566	-0.444679	0.444321	0.578697
35507	-0.877156	9.546419	3.521112	-0.523619	-0.444068	0.434408	0.583023
35508	-0.617213	8.580605	2.679583	-0.524536	-0.445165	0.428076	0.586037
35509	-0.639442	9.154520	1.925334	-0.522615	-0.448683	0.425904	0.586655
35510	-0.561046	9.534240	1.453045	-0.522375	-0.450178	0.421643	0.588796
35511	-0.736362	10.194391	2.080946	-0.524285	-0.449573	0.414756	0.592442
35512	-1.529752	9.928751	3.349951	-0.528163	-0.449060	0.404634	0.596372
35513	-2.094048	8.973139	2.750880	-0.530451	-0.452453	0.396983	0.596919
35514	-1.654994	9.120486	3.068600	-0.530962	-0.453551	0.393322	0.598054
35515	-1.291318	8.778526	2.452392	-0.532399	-0.449514	0.389354	0.602405
35516	-1.187811	9.071967	2.897045	-0.534241	-0.443703	0.385129	0.607774
35517	-1.613247	9.445066	3.507569	-0.537075	-0.441553	0.380514	0.609747
35518	-2.569946	10.436290	3.751214	-0.538245	-0.442213	0.378635	0.609406
35519	-2.417306	9.164074	3.100132	-0.539154	-0.438396	0.376892	0.612433
35520	-0.809695	8.511264	3.277242	-0.538779	-0.428616	0.377263	0.619417
35521	-0.193875	8.161561	3.110507	-0.539135	-0.421538	0.376650	0.624319
35522	-0.745076	8.675859	2.733301	-0.540184	-0.420695	0.375796	0.624496
35523	-1.876700	9.895068	4.024006	-0.543318	-0.420319	0.372448	0.624035
35524	-2.190369	9.329558	4.655199	-0.546208	-0.417286	0.369424	0.625344
35525	-1.593092	8.585917	4.236531	-0.545569	-0.414350	0.371519	0.626611
35526	-1.185207	8.984451	3.718256	-0.544142	-0.413061	0.374535	0.626908
35527	-1.199702	9.326820	3.458052	-0.543166	-0.411720	0.376486	0.627467
35528	-0.964231	9.678938	3.914301	-0.542421	-0.409282	0.377989	0.628802
35529	-0.960889	9.203233	3.621512	-0.542696	-0.406412	0.377932	0.630459
35530	-1.212631	8.127587	3.766670	-0.544027	-0.403624	0.376172	0.632152
35531	-1.081217	7.983569	4.011238	-0.543908	-0.400790	0.376793	0.633687
35532	-1.032118	8.864224	3.879680	-0.541777	-0.400079	0.380251	0.633895
35533	-0.930522	9.837053	3.949670	-0.539658	-0.398735	0.383431	0.634633
35534	-0.471800	9.980694	4.213200	-0.538947	-0.395035	0.384351	0.636991
35535	-0.411596	9.378469	4.199647	-0.539642	-0.392139	0.382814	0.639114
35536	-0.934746	8.166606	3.793854	-0.541029	-0.390674	0.379939	0.640553
35537	-0.789503	8.228025	3.974451	-0.541184	-0.389074	0.379194	0.641836
35538	-0.595129	8.788282	3.957992	-0.540901	-0.388127	0.379152	0.642672
35539	-0.807082	8.737110	3.795049	-0.541007	-0.387123	0.378287	0.643697
35540	-0.761870	8.551672	3.696561	-0.540709	-0.385930	0.378162	0.644737
35541	-0.633209	8.836675	3.619067	-0.539854	-0.384960	0.379133	0.645463
35542	-0.669835	8.903272	3.565631	-0.539032	-0.383626	0.380214	0.646307
35543	-0.919189	8.750819	3.456837	-0.538115	-0.381671	0.381488	0.647476
35544	-0.983333	8.644751	3.389587	-0.536544	-0.379117	0.383792	0.648918
35545	-0.815365	8.731969	3.638658	-0.534719	-0.376226	0.386466	0.650518
35546	-0.535731	8.870785	4.134161	-0.533136	-0.373280	0.388607	0.652237
35547	-0.211960	9.067206	4.054627	-0.531163	-0.371043	0.391157	0.653597
35548	-0.192133	9.547979	4.280415	-0.529823	-0.369713	0.392697	0.654515
35549	-0.449422	9.091692	4.534792	-0.530413	-0.368074	0.390968	0.655994
35550	-0.772105	8.374752	4.732574	-0.531080	-0.367113	0.389396	0.656927
35551	-1.343031	8.449208	4.983369	-0.530598	-0.366557	0.389867	0.657347
35552	-1.078594	8.848857	4.766414	-0.529194	-0.365361	0.392210	0.657751
35553	-0.445444	9.213736	4.627514	-0.528061	-0.364527	0.394132	0.657975
35554	-0.477420	9.214907	4.566754	-0.527787	-0.364276	0.394516	0.658104
35555	-0.661895	9.045888	4.365695	-0.527335	-0.364116	0.395056	0.658231
35556	-0.504093	8.904664	4.145518	-0.526924	-0.363964	0.395432	0.658419
35557	-0.406035	8.733209	4.163191	-0.526738	-0.363920	0.395186	0.658739
35558	-0.442708	8.697066	4.102021	-0.526418	-0.363923	0.395074	0.659061
35559	-0.483419	8.823879	4.064146	-0.526183	-0.364023	0.394801	0.659356
35560	-0.633422	8.786364	4.171342	-0.526186	-0.363851	0.394062	0.659891
35561	-0.735196	8.701859	4.547873	-0.526181	-0.363383	0.393293	0.660611
35562	-0.589895	8.808047	4.532822	-0.526059	-0.363048	0.392784	0.661195
35563	-0.450048	8.869755	4.399619	-0.526098	-0.362745	0.391983	0.661805
35564	-0.575287	8.667372	4.362650	-0.526438	-0.362461	0.390675	0.662464
35565	-0.630810	8.557445	4.357651	-0.526395	-0.362346	0.390063	0.662921
35566	-0.582560	8.543911	4.509035	-0.526138	-0.362436	0.389894	0.663175
35567	-0.487671	8.547953	4.800430	-0.525782	-0.362775	0.389982	0.663221
35568	-0.595867	8.826581	4.847577	-0.525414	-0.363317	0.390294	0.663032
35569	-0.743914	8.978417	4.784278	-0.525246	-0.363636	0.390269	0.663005
35570	-0.645725	8.892970	4.723511	-0.524975	-0.363960	0.390310	0.663018
35571	-0.558655	8.935152	4.735400	-0.524617	-0.364372	0.390399	0.663022
35572	-0.718902	8.958351	4.765828	-0.524457	-0.364508	0.390148	0.663222
35573	-0.731515	9.029064	4.649233	-0.524346	-0.364071	0.389802	0.663752
35574	-0.589190	9.010505	4.402687	-0.524545	-0.363468	0.388892	0.664459
35575	-0.696082	8.829117	4.366186	-0.525099	-0.362826	0.387378	0.665257
35576	-0.938163	8.889493	4.203729	-0.525525	-0.362138	0.386052	0.666066
35577	-0.902119	9.419306	4.192554	-0.525663	-0.361142	0.385068	0.667067
35578	-0.716543	9.898438	4.346013	-0.526355	-0.359365	0.382904	0.668723
35579	-0.699859	9.641032	4.196880	-0.527944	-0.356790	0.379127	0.670998
35580	-0.843643	9.587313	4.187212	-0.529683	-0.353992	0.375057	0.673393
35581	-0.910976	10.021321	4.149834	-0.531279	-0.350875	0.370830	0.676103
35582	-0.761831	9.463766	4.061859	-0.533613	-0.347253	0.364935	0.679334
35583	-0.668372	8.356193	4.405194	-0.535985	-0.343704	0.358971	0.682442
35584	-0.720314	7.991344	4.577154	-0.537614	-0.340987	0.354857	0.684672
35585	-0.898859	8.269971	4.578723	-0.538772	-0.338461	0.352008	0.686484
35586	-1.068595	8.612209	4.849600	-0.539668	-0.336042	0.349691	0.688150
35587	-1.103227	8.517768	4.876000	-0.540815	-0.333453	0.346800	0.689970
35588	-1.095637	8.333975	4.916138	-0.541724	-0.330886	0.344048	0.691867
35589	-1.000258	8.472391	5.095974	-0.542262	-0.328151	0.341811	0.693854
35590	-0.828795	8.366043	5.234291	-0.543096	-0.325165	0.338929	0.696018
35591	-0.950601	8.088946	5.255913	-0.544337	-0.321919	0.335537	0.698198
35592	-1.030567	7.902429	5.250560	-0.545628	-0.318405	0.332311	0.700341
35593	-0.846362	7.631285	5.391642	-0.547126	-0.314705	0.328962	0.702423
35594	-0.894021	7.323300	5.467961	-0.548658	-0.311121	0.325803	0.704294
35595	-0.849971	7.155068	5.735580	-0.549843	-0.307978	0.323599	0.705766
35596	-0.803379	6.961523	6.027629	-0.551025	-0.305453	0.321570	0.706868
35597	-0.968193	6.834372	6.092909	-0.551961	-0.303665	0.320098	0.707576
35598	-0.897604	6.914339	6.133230	-0.552369	-0.302485	0.319702	0.707942
35599	-0.785111	7.133803	6.161797	-0.552592	-0.301879	0.319756	0.708002
35600	-0.711535	7.215326	6.184626	-0.552737	-0.301722	0.320028	0.707833
35601	-0.699993	7.165388	6.147036	-0.552937	-0.301964	0.320407	0.707402
35602	-0.749523	7.134212	6.095333	-0.553012	-0.302431	0.321151	0.706806
35603	-0.730995	7.255401	6.043469	-0.552869	-0.303176	0.322226	0.706109
35604	-0.767304	7.303547	5.906549	-0.552696	-0.304136	0.323227	0.705373
35605	-0.820277	7.398980	5.844801	-0.552271	-0.305323	0.324607	0.704560
35606	-0.694188	7.473542	5.781314	-0.551694	-0.306671	0.326190	0.703695
35607	-0.652060	7.561383	5.712214	-0.550940	-0.308260	0.328080	0.702712
35608	-0.675255	7.785762	5.644131	-0.550048	-0.310145	0.330221	0.701578
35609	-0.720047	7.904661	5.542459	-0.549112	-0.312065	0.332309	0.700473
35610	-0.753713	7.867040	5.401909	-0.548010	-0.314301	0.334616	0.699237
35611	-0.752154	8.073701	5.378123	-0.546588	-0.316691	0.337455	0.697906
35612	-0.641104	8.259280	5.167409	-0.545145	-0.319216	0.340180	0.696560
35613	-0.676125	8.501142	5.127106	-0.543623	-0.321636	0.342983	0.695260
35614	-0.614395	8.610065	5.095699	-0.542215	-0.323687	0.345490	0.694166
35615	-0.646557	8.514205	4.936429	-0.541046	-0.325665	0.347594	0.693101
35616	-0.715806	8.527869	4.991487	-0.539780	-0.327643	0.349934	0.691979
35617	-0.685118	8.644084	4.934655	-0.538497	-0.329605	0.352268	0.690860
35618	-0.744078	8.654908	4.899680	-0.537436	-0.331355	0.354037	0.689945
35619	-0.908310	8.350785	4.774685	-0.536431	-0.333077	0.355533	0.689128
35620	-0.987018	8.304352	4.870580	-0.534890	-0.334981	0.357866	0.688195
35621	-0.938152	8.563544	4.814959	-0.532837	-0.337180	0.360939	0.687108
35622	-0.835924	8.579048	4.823737	-0.530862	-0.339165	0.363883	0.686106
35623	-0.749056	8.506913	4.760909	-0.528935	-0.341239	0.366852	0.684984
35624	-0.726932	8.480674	4.754434	-0.526970	-0.343551	0.370025	0.683635
35625	-0.806601	8.445093	4.597145	-0.525075	-0.345807	0.373149	0.682257
35626	-0.790204	8.392941	4.512818	-0.523009	-0.348164	0.376566	0.680766
35627	-0.848946	8.440742	4.539577	-0.520681	-0.350694	0.380339	0.679152
35628	-0.904747	8.684731	4.664828	-0.517950	-0.352985	0.384616	0.677643
35629	-0.822719	8.732084	4.517028	-0.515244	-0.355210	0.388726	0.676196
35630	-0.828014	8.550781	4.642837	-0.512762	-0.357395	0.392464	0.674771
35631	-0.784969	8.592208	4.536188	-0.509932	-0.359610	0.396868	0.673161
35632	-0.650528	9.061272	4.267324	-0.506597	-0.362108	0.402117	0.671222
35633	-0.565571	9.556703	4.296498	-0.503778	-0.364169	0.406529	0.669569
35634	-0.491717	9.554190	4.085327	-0.502267	-0.365614	0.408922	0.668458
35635	-0.591891	9.484417	3.904304	-0.501462	-0.366674	0.410452	0.667544
35636	-0.570344	9.582362	3.882297	-0.500813	-0.367414	0.411962	0.666694
35637	-0.556866	9.727286	3.859921	-0.500952	-0.367878	0.412475	0.666016
35638	-0.685679	9.587840	3.793510	-0.502010	-0.367969	0.411829	0.665569
35639	-0.779929	9.351872	3.785249	-0.503362	-0.367809	0.410822	0.665258
35640	-0.828645	9.097424	3.909707	-0.504803	-0.367741	0.409717	0.664885
35641	-0.876962	9.033988	3.987448	-0.506091	-0.367736	0.408821	0.664460
35642	-0.909704	9.011439	3.996363	-0.507304	-0.367623	0.408013	0.664094
35643	-0.935803	8.994229	4.092149	-0.508565	-0.367560	0.407036	0.663765
35644	-0.999541	8.934201	4.162765	-0.509851	-0.367553	0.405894	0.663481
35645	-1.049818	8.877071	4.272304	-0.511102	-0.367507	0.404776	0.663226
35646	-1.102180	8.907378	4.439856	-0.512194	-0.367455	0.403837	0.662986
35647	-1.057072	8.916899	4.482354	-0.513313	-0.367296	0.402758	0.662864
35648	-1.130527	8.799741	4.598225	-0.514663	-0.366971	0.401332	0.662863
35649	-1.211965	8.581469	4.538160	-0.516051	-0.366706	0.399860	0.662820
35650	-1.393206	8.531261	4.509548	-0.517308	-0.366529	0.398690	0.662643
35651	-1.516258	8.560235	4.426091	-0.518521	-0.366391	0.397715	0.662356
35652	-1.546501	8.519311	4.136313	-0.519861	-0.366068	0.396630	0.662135
35653	-1.712599	8.897230	4.089296	-0.520696	-0.365554	0.396380	0.661914
35654	-1.494354	9.390005	4.204948	-0.521565	-0.364546	0.395942	0.662047
35655	-1.529969	9.210953	4.184709	-0.523726	-0.363210	0.393482	0.662541
35656	-1.895480	8.889875	3.914424	-0.526254	-0.361646	0.390685	0.663050
35657	-1.920335	9.365430	3.762377	-0.527903	-0.359641	0.389292	0.663648
35658	-1.778467	9.635863	3.983333	-0.530314	-0.357031	0.386561	0.664730
35659	-1.994452	9.020333	4.237505	-0.534047	-0.353604	0.381608	0.666433
35660	-2.401908	8.296498	4.211204	-0.537902	-0.350297	0.376770	0.667831
35661	-2.736844	8.133615	4.458818	-0.540964	-0.347058	0.373374	0.668955
35662	-2.666013	8.386466	4.774062	-0.543166	-0.344305	0.371133	0.669840
35663	-2.587642	8.450872	5.011114	-0.545252	-0.341718	0.368591	0.670872
35664	-2.641933	8.124933	5.068159	-0.547172	-0.338854	0.365995	0.672182
35665	-2.524550	7.979211	5.110581	-0.548304	-0.336651	0.364525	0.673165
35666	-2.478462	8.089485	5.151091	-0.548955	-0.334529	0.363714	0.674129
35667	-2.272144	8.385602	5.356264	-0.548824	-0.332228	0.364052	0.675191
35668	-1.854238	8.769438	5.516385	-0.548366	-0.329802	0.364765	0.676367
35669	-1.534035	8.632391	5.598080	-0.548150	-0.327475	0.364745	0.677682
35670	-1.269261	8.414655	5.734199	-0.547408	-0.325452	0.365288	0.678963
35671	-0.812265	8.533017	6.035019	-0.546134	-0.323444	0.366471	0.680309
35672	-0.667208	8.713545	6.056905	-0.544713	-0.321254	0.367334	0.682019
35673	-0.436246	8.379498	5.852493	-0.543119	-0.318646	0.367894	0.684208
35674	-0.069347	7.937472	5.550010	-0.541045	-0.315865	0.368768	0.686666
35675	0.340740	7.741659	5.411894	-0.538495	-0.313118	0.369963	0.689281
35676	0.631242	7.493670	5.264854	-0.535741	-0.310675	0.370835	0.692058
35677	0.650903	7.485690	5.081254	-0.532400	-0.308471	0.372165	0.694903
35678	0.793955	8.066184	4.939098	-0.528190	-0.306412	0.374671	0.697674
35679	1.063303	8.598787	4.854866	-0.523997	-0.304381	0.377032	0.700447
35680	1.282339	8.614899	4.928426	-0.520456	-0.302194	0.378496	0.703239
35681	1.266457	8.605821	4.984622	-0.517283	-0.300105	0.379743	0.705798
35682	1.123379	8.523363	4.954937	-0.514368	-0.298066	0.380748	0.708247
35683	0.985754	8.276866	4.597139	-0.511287	-0.296609	0.382238	0.710284
35684	0.967898	8.214874	4.579424	-0.507902	-0.295551	0.384451	0.711957
35685	1.070104	8.407853	4.674788	-0.504493	-0.294576	0.386826	0.713497
35686	1.011476	8.462423	4.796963	-0.501539	-0.293502	0.388222	0.715262
35687	0.883357	8.410255	4.872620	-0.498814	-0.292434	0.388885	0.717242
35688	0.787939	8.264893	4.852311	-0.496021	-0.291347	0.389293	0.719396
35689	0.693741	8.150910	4.760422	-0.493036	-0.290439	0.389863	0.721504
35690	0.713276	8.439626	4.841926	-0.489648	-0.289753	0.391165	0.723379
35691	0.624984	8.497789	4.845613	-0.486641	-0.289088	0.391847	0.725303
35692	0.508259	8.279230	4.747957	-0.483818	-0.288494	0.392389	0.727133
35693	0.534400	8.291378	4.698254	-0.480843	-0.288170	0.393422	0.728675
35694	0.547487	8.611290	4.747141	-0.477873	-0.287946	0.394532	0.730116
35695	0.350245	8.916915	4.725813	-0.474965	-0.287670	0.395624	0.731530
35696	0.159305	8.972703	4.630297	-0.472179	-0.287388	0.396529	0.732952
35697	0.130147	8.895795	4.657897	-0.469382	-0.287118	0.397337	0.734416
35698	0.119660	8.534175	4.549044	-0.466973	-0.286837	0.397655	0.735888
35699	-0.125332	8.311764	4.544879	-0.464842	-0.286340	0.397755	0.737375
35700	-0.350292	7.966446	4.415609	-0.462922	-0.285949	0.397551	0.738843
35701	-0.401350	7.942802	4.338276	-0.460461	-0.285657	0.398293	0.740094
35702	-0.305291	8.427209	4.351222	-0.457612	-0.285531	0.399708	0.741146
35703	-0.313964	8.594045	4.287501	-0.455156	-0.285331	0.400395	0.742363
35704	-0.308849	8.659872	4.311995	-0.452902	-0.284917	0.400903	0.743626
35705	-0.280821	8.837778	4.389860	-0.451186	-0.284193	0.400899	0.744946
35706	-0.219788	8.798177	4.444206	-0.450206	-0.283410	0.399972	0.746335
35707	-0.247610	8.765558	4.690740	-0.449612	-0.282650	0.398840	0.747586
35708	-0.322551	8.731458	4.885252	-0.449393	-0.282094	0.397368	0.748711
35709	-0.434773	8.547347	4.949562	-0.449404	-0.281621	0.395722	0.749753
35710	-0.464037	8.510180	5.338036	-0.449470	-0.281221	0.394318	0.750603
35711	-0.576906	8.581343	5.618357	-0.449928	-0.280874	0.392475	0.751424
35712	-0.885226	8.511872	5.660730	-0.450675	-0.280706	0.390432	0.752103
35713	-0.824590	8.612735	5.837018	-0.451227	-0.280614	0.389154	0.752468
35714	-0.842530	8.493915	5.966194	-0.452240	-0.280789	0.387256	0.752775
35715	-1.115066	8.275680	5.999977	-0.453432	-0.281164	0.385480	0.752829
35716	-1.070505	8.011365	5.956149	-0.454451	-0.281760	0.384379	0.752555
35717	-0.963226	8.111883	5.795205	-0.455156	-0.282621	0.384392	0.751798
35718	-0.877307	8.215270	5.539299	-0.455732	-0.283596	0.385044	0.750748
35719	-0.752733	8.242070	5.242443	-0.456318	-0.284664	0.385975	0.749509
35720	-0.640880	8.316072	5.047386	-0.456854	-0.285818	0.387341	0.748037
35721	-0.439874	8.353163	5.014291	-0.457551	-0.287053	0.388806	0.746376
35722	-0.214304	8.369689	4.989922	-0.458429	-0.288430	0.390335	0.744506
35723	-0.119643	8.359768	4.790042	-0.459461	-0.289986	0.391963	0.742407
35724	-0.173550	8.376255	4.813898	-0.460563	-0.291548	0.393829	0.740121
35725	-0.214776	8.381228	4.999341	-0.461766	-0.293219	0.395475	0.737831
35726	-0.227152	8.258315	5.111868	-0.463173	-0.294973	0.396551	0.735669
35727	-0.320395	7.987646	5.122011	-0.464620	-0.296991	0.397168	0.733609
35728	-0.371251	8.020871	4.993780	-0.465558	-0.299280	0.398404	0.731411
35729	-0.340111	8.210113	4.678999	-0.466026	-0.301790	0.400161	0.729118
35730	-0.182964	8.597235	4.339666	-0.466023	-0.304581	0.402867	0.726465
35731	0.048252	9.201385	4.158634	-0.465886	-0.307511	0.405949	0.723597
35732	0.148834	9.062499	4.120723	-0.466527	-0.310376	0.407677	0.720985
35733	0.080109	8.747353	4.209835	-0.467555	-0.313139	0.408640	0.718575
35734	-0.003796	8.785266	4.172000	-0.468431	-0.315851	0.409560	0.716290
35735	-0.280063	8.874762	3.936425	-0.468978	-0.318693	0.410636	0.714054
35736	-0.246826	9.127316	3.813726	-0.468981	-0.321579	0.412555	0.711648
35737	-0.005858	9.451518	3.801500	-0.469097	-0.324209	0.414529	0.709226
35738	0.324334	9.394845	3.931200	-0.470069	-0.326475	0.415101	0.707206
35739	0.213021	9.076504	4.101599	-0.471825	-0.328778	0.414001	0.705613
35740	-0.258600	8.881033	4.024775	-0.473309	-0.331066	0.412765	0.704272
35741	-0.324819	9.057340	4.002676	-0.473776	-0.333485	0.413056	0.702644
35742	-0.096544	9.582404	3.892963	-0.473779	-0.335892	0.414289	0.700767
35743	0.353260	9.798797	3.874370	-0.474264	-0.337992	0.415007	0.699002
35744	0.405839	9.307489	3.875735	-0.475876	-0.339766	0.413917	0.697691
35745	0.130214	8.769970	3.822777	-0.477503	-0.341257	0.412443	0.696725
35746	-0.073516	8.679841	3.710444	-0.478469	-0.342648	0.411402	0.695995
35747	-0.046497	8.895864	3.756309	-0.478736	-0.344074	0.411185	0.695235
35748	0.328642	9.519821	3.800546	-0.478600	-0.345400	0.411699	0.694367
35749	0.437089	9.648203	3.871597	-0.479381	-0.346259	0.410912	0.693865
35750	0.111435	9.175604	3.883660	-0.481068	-0.346640	0.408612	0.693866
35751	-0.107008	8.702479	4.042295	-0.482692	-0.346696	0.406036	0.694223
35752	-0.292973	8.223327	4.080860	-0.484188	-0.346780	0.403131	0.694831
35753	-0.348704	8.221871	4.064881	-0.484875	-0.346772	0.401235	0.695454
35754	-0.335087	8.357169	4.206568	-0.485471	-0.346537	0.399443	0.696187
35755	-0.759406	8.244213	4.350002	-0.486592	-0.345966	0.396685	0.697264
35756	-1.265474	8.176159	4.569059	-0.487499	-0.345047	0.394019	0.698596
35757	-1.667557	8.315529	4.704982	-0.488221	-0.344013	0.391330	0.700111
35758	-2.025597	8.705224	4.957445	-0.488656	-0.342707	0.388727	0.701896
35759	-2.110417	8.926742	5.091775	-0.488878	-0.341127	0.386203	0.703902
35760	-2.222050	9.036747	5.066977	-0.489132	-0.339487	0.383671	0.705900
35761	-2.315620	8.811465	5.110814	-0.489691	-0.337707	0.380760	0.707940
35762	-2.471787	8.276234	4.968554	-0.490512	-0.335885	0.377614	0.709920
35763	-2.474434	7.798493	4.894925	-0.491180	-0.334037	0.375059	0.711683
35764	-2.208584	7.542790	5.010146	-0.491424	-0.332331	0.373704	0.713025
35765	-1.984614	7.805654	5.131734	-0.491460	-0.331017	0.373081	0.713936
35766	-1.744450	8.106991	5.188597	-0.491499	-0.330198	0.372684	0.714496
35767	-1.630620	8.353533	5.249747	-0.491739	-0.329853	0.372367	0.714655
35768	-1.536253	8.768703	5.355325	-0.492083	-0.329816	0.372420	0.714408
35769	-1.447004	9.146438	5.565341	-0.492792	-0.329690	0.372279	0.714051
35770	-1.252994	9.091670	5.797286	-0.494079	-0.329603	0.371292	0.713716
35771	-1.365246	8.644004	5.746316	-0.495766	-0.329653	0.369711	0.713344
35772	-1.557480	8.178944	5.511462	-0.497138	-0.329689	0.368649	0.712921
35773	-1.366560	8.098826	5.522261	-0.497748	-0.329898	0.368704	0.712371
35774	-0.965934	8.129320	5.429148	-0.498230	-0.330335	0.368753	0.711805
35775	-1.016664	7.846871	5.358992	-0.498979	-0.330779	0.368128	0.711398
35776	-1.243076	7.389691	5.015655	-0.499562	-0.331422	0.367665	0.710929
35777	-1.074732	7.678445	4.902608	-0.499116	-0.332320	0.368865	0.710201
35778	-0.664686	8.088423	4.962581	-0.498662	-0.333468	0.370039	0.709371
35779	-0.560557	8.262095	4.802214	-0.498275	-0.334975	0.371061	0.708398
35780	-0.441146	8.313293	4.619324	-0.497711	-0.336615	0.372416	0.707305
35781	-0.350133	8.338409	4.398988	-0.497050	-0.338467	0.373798	0.706156
35782	-0.262347	8.420448	4.366097	-0.496086	-0.340420	0.375438	0.705024
35783	-0.024223	8.568928	4.408816	-0.495157	-0.342570	0.376851	0.703881
35784	0.116935	8.611514	4.397096	-0.494486	-0.344918	0.377562	0.702825
35785	0.127271	8.425739	4.467427	-0.494043	-0.347494	0.377564	0.701865
35786	-0.036623	7.994010	4.316128	-0.493837	-0.349933	0.376827	0.701194
35787	-0.067885	7.771764	4.352195	-0.493211	-0.352150	0.376572	0.700661
35788	0.248743	7.919457	4.572850	-0.492393	-0.354197	0.376536	0.700224
35789	0.529480	8.173587	4.758768	-0.491554	-0.356128	0.376434	0.699889
35790	0.532946	8.333817	4.900241	-0.490928	-0.357895	0.375777	0.699780
35791	0.361911	8.508094	5.025699	-0.490225	-0.359643	0.375055	0.699764
35792	0.309095	8.566831	5.073934	-0.489496	-0.361592	0.374311	0.699669
35793	0.147530	8.474414	5.035550	-0.488859	-0.363988	0.373627	0.699237
35794	-0.112706	8.758470	5.020270	-0.487883	-0.366927	0.373635	0.698378
35795	-0.431415	9.125968	5.107836	-0.487075	-0.370196	0.373282	0.697405
35796	-0.854986	9.426080	5.249139	-0.486674	-0.373440	0.372229	0.696517
35797	-1.245075	10.032164	5.421793	-0.486428	-0.376351	0.370921	0.695820
35798	-1.597292	10.535973	5.244890	-0.486487	-0.379253	0.369328	0.695050
35799	-1.907211	10.620990	4.721052	-0.486936	-0.382260	0.367704	0.693949
35800	-1.820849	10.496384	4.271322	-0.487698	-0.385123	0.366752	0.692332
35801	-1.563283	10.396125	3.964903	-0.489299	-0.387851	0.365810	0.690174
35802	-1.737417	9.906117	3.975584	-0.492493	-0.389910	0.363458	0.687982
35803	-2.439495	8.982063	3.972076	-0.496993	-0.391280	0.359530	0.686029
35804	-3.226931	7.932551	3.926891	-0.501931	-0.392095	0.354940	0.684357
35805	-3.636487	7.356843	3.749469	-0.505989	-0.393069	0.351588	0.682538
35806	-3.587700	7.927793	3.804883	-0.508720	-0.394554	0.349938	0.680495
35807	-3.077307	8.709117	3.736013	-0.510965	-0.396304	0.348798	0.678379
35808	-2.991872	9.245328	3.791362	-0.513312	-0.398200	0.347509	0.676155
35809	-3.078105	9.283988	3.842159	-0.516091	-0.399853	0.345503	0.674088
35810	-3.049791	8.815276	3.640734	-0.519070	-0.401303	0.343092	0.672169
35811	-2.811005	8.668253	3.513058	-0.521908	-0.402548	0.340844	0.670367
35812	-2.773986	8.694468	3.940004	-0.525078	-0.403423	0.337935	0.668837
35813	-3.072734	8.204025	4.033335	-0.528790	-0.403903	0.333857	0.667670
35814	-3.343728	7.801447	4.069135	-0.532078	-0.404462	0.330312	0.666482
35815	-3.112985	7.906161	4.229489	-0.534611	-0.405183	0.327842	0.665235
35816	-2.870696	7.992880	4.257882	-0.536901	-0.405808	0.325588	0.664115
35817	-2.693024	8.023720	4.214821	-0.538788	-0.406596	0.323970	0.662895
35818	-2.602565	8.046870	4.281662	-0.540587	-0.407454	0.322385	0.661676
35819	-2.691968	7.827988	4.356935	-0.542411	-0.408227	0.320598	0.660575
35820	-2.795522	7.429086	4.224304	-0.544098	-0.409025	0.318883	0.659523
35821	-2.947483	7.138161	3.924548	-0.545328	-0.410078	0.317562	0.658489
35822	-2.880901	7.185831	3.761092	-0.545779	-0.411452	0.317015	0.657522
35823	-2.670138	7.436899	3.834628	-0.545741	-0.413036	0.316984	0.656574
35824	-2.382797	7.982188	3.906122	-0.545288	-0.414617	0.317470	0.655719
35825	-2.347705	8.503009	4.159949	-0.545150	-0.415992	0.317309	0.655041
35826	-2.689759	8.544392	4.253019	-0.545229	-0.417123	0.316571	0.654612
35827	-2.790525	8.414035	4.353663	-0.545128	-0.418137	0.315826	0.654409
35828	-2.889640	8.293899	4.436262	-0.545013	-0.418924	0.314934	0.654431
35829	-2.880735	8.361205	4.456319	-0.544590	-0.419665	0.314539	0.654499
35830	-2.727888	8.569401	4.416852	-0.544017	-0.420264	0.314351	0.654681
35831	-2.512756	8.723156	4.273072	-0.543350	-0.420834	0.314310	0.654888
35832	-2.383231	8.886711	4.144874	-0.542807	-0.421248	0.314132	0.655158
35833	-2.224852	8.895536	4.082040	-0.542573	-0.421570	0.313790	0.655309
35834	-2.065105	8.915459	4.126454	-0.542567	-0.421877	0.313436	0.655285
35835	-2.011334	8.935503	4.138836	-0.542853	-0.421982	0.313058	0.655162
35836	-1.987442	8.945922	4.414225	-0.543438	-0.421843	0.312490	0.655038
35837	-2.046900	8.596756	4.677987	-0.544556	-0.421391	0.311122	0.655050
35838	-2.285898	7.965157	4.760143	-0.545744	-0.420938	0.309435	0.655152
35839	-2.453485	8.227020	4.743087	-0.545673	-0.421034	0.309456	0.655140
35840	-2.173409	9.578721	5.080398	-0.544696	-0.421504	0.310646	0.655087
35841	-2.015342	10.195352	5.319096	-0.544657	-0.421650	0.310189	0.655243
35842	-2.333979	9.497102	5.296388	-0.545419	-0.421560	0.308592	0.655421
35843	-2.737373	8.633889	5.007213	-0.546085	-0.421635	0.307351	0.655401
35844	-2.712416	8.165954	4.493672	-0.546056	-0.422235	0.307321	0.655053
35845	-2.281962	8.496072	4.315685	-0.545058	-0.423499	0.308826	0.654360
35846	-1.948205	8.814509	4.303797	-0.544156	-0.424896	0.310189	0.653560
35847	-2.452213	8.685016	4.513986	-0.543540	-0.426204	0.311092	0.652791
35848	-2.815396	8.560460	4.487637	-0.542615	-0.427291	0.312034	0.652401
35849	-2.764330	8.678829	4.176677	-0.541285	-0.428014	0.313033	0.652553
35850	-2.303220	8.655774	3.812931	-0.539800	-0.428352	0.313810	0.653188
35851	-1.974484	8.578700	3.948320	-0.538242	-0.428573	0.314402	0.654043
35852	-2.355723	8.409764	4.312683	-0.537015	-0.428549	0.313986	0.655265
35853	-3.031660	8.128125	4.297778	-0.535480	-0.428378	0.313382	0.656921
35854	-3.003992	8.195621	3.769632	-0.532973	-0.428028	0.313858	0.658958
35855	-2.549482	8.679625	3.587882	-0.529897	-0.427645	0.315046	0.661117
35856	-2.200658	8.568744	3.410256	-0.527314	-0.427076	0.315611	0.663276
35857	-2.407533	8.648682	3.756519	-0.524705	-0.426553	0.316210	0.665393
35858	-2.840849	8.750336	4.064912	-0.522328	-0.425965	0.315987	0.667742
35859	-3.020720	8.441560	3.828740	-0.519979	-0.425148	0.315378	0.670379
35860	-2.712037	8.562699	3.535739	-0.517011	-0.424066	0.315807	0.673152
35861	-2.284739	8.586345	3.571625	-0.514497	-0.422514	0.315820	0.676042
35862	-2.575595	8.083672	4.019495	-0.512903	-0.420870	0.314242	0.679008
35863	-3.539386	7.270419	4.458093	-0.511441	-0.419566	0.311733	0.682066
35864	-4.002105	7.222052	4.524838	-0.508552	-0.418582	0.310717	0.685288
35865	-3.267861	8.405989	4.307926	-0.504086	-0.417590	0.311963	0.688618
35866	-2.610289	9.280916	4.058861	-0.500410	-0.416204	0.312311	0.691973
35867	-2.384424	8.513730	3.890313	-0.498255	-0.414580	0.311164	0.695012
35868	-2.984964	7.460739	4.261960	-0.496628	-0.413295	0.309794	0.697549
35869	-3.791743	7.039848	4.363458	-0.494386	-0.412509	0.309110	0.699907
35870	-4.048789	7.319884	4.449868	-0.491185	-0.411732	0.309431	0.702471
35871	-3.724289	8.046549	4.276828	-0.487568	-0.410643	0.310172	0.705297
35872	-3.178641	8.566819	4.385236	-0.484352	-0.409335	0.310415	0.708160
35873	-3.008733	8.312023	4.439546	-0.482393	-0.407895	0.309149	0.710877
35874	-3.436701	7.506685	4.584276	-0.481006	-0.406765	0.307628	0.713120
35875	-3.937530	7.562804	4.595949	-0.478925	-0.406032	0.307530	0.714978
35876	-4.048533	7.883194	4.377358	-0.476578	-0.405163	0.307831	0.716908
35877	-3.797532	8.070844	4.170943	-0.474231	-0.404257	0.308306	0.718769
35878	-3.353848	8.228787	4.006907	-0.472176	-0.403142	0.308864	0.720507
35879	-3.071229	8.073923	3.894381	-0.471031	-0.401951	0.308818	0.721940
35880	-2.890810	7.635074	3.839634	-0.470796	-0.400799	0.308429	0.722899
35881	-3.008832	7.418776	4.260002	-0.471108	-0.399920	0.308066	0.723337
35882	-3.570989	7.018191	4.699134	-0.472391	-0.399220	0.306541	0.723535
35883	-4.336859	6.861099	5.066200	-0.473368	-0.398640	0.305526	0.723646
35884	-4.741629	7.453695	5.436770	-0.473309	-0.398005	0.305718	0.723952
35885	-4.546442	7.800196	5.372266	-0.473171	-0.397278	0.305560	0.724509
35886	-4.214417	8.166525	5.135891	-0.472576	-0.396616	0.306139	0.725015
35887	-3.768427	8.319337	4.855134	-0.471892	-0.396004	0.306952	0.725451
35888	-3.681720	8.079954	4.691701	-0.471658	-0.395553	0.307228	0.725733
35889	-3.681993	8.048176	4.900462	-0.471174	-0.395278	0.308125	0.725816
35890	-3.596763	8.373138	4.939000	-0.470688	-0.394868	0.308783	0.726075
35891	-3.421190	8.496605	4.809452	-0.470306	-0.394330	0.309298	0.726396
35892	-3.070749	8.765241	5.000103	-0.469882	-0.393789	0.310172	0.726591
35893	-2.899939	8.720479	5.095629	-0.470086	-0.393281	0.310430	0.726624
35894	-2.943171	8.533171	5.033705	-0.470356	-0.393043	0.311049	0.726313
35895	-2.916756	8.546836	5.100585	-0.470714	-0.392872	0.311779	0.725860
35896	-3.069863	8.818236	5.461354	-0.470969	-0.392641	0.312653	0.725444
35897	-2.977545	9.780097	6.076176	-0.470501	-0.392006	0.314393	0.725339
35898	-2.460756	10.882452	6.069833	-0.470062	-0.390602	0.315822	0.725760
35899	-1.967431	9.901609	5.628412	-0.471218	-0.388627	0.315022	0.726418
35900	-2.073279	8.347645	5.222066	-0.472644	-0.386839	0.314615	0.726623
35901	-2.148626	7.839532	5.119489	-0.473248	-0.385102	0.316027	0.726539
35902	-2.147844	7.630831	4.933567	-0.473985	-0.382992	0.317087	0.726713
35903	-2.165714	7.446417	4.958206	-0.474645	-0.380397	0.317848	0.727312
35904	-1.988465	7.549902	5.070036	-0.474950	-0.377337	0.318898	0.728247
35905	-1.811984	7.922745	5.223161	-0.474932	-0.373752	0.320520	0.729395
35906	-1.549828	8.244879	5.370135	-0.474836	-0.369973	0.322668	0.730436
35907	-1.562381	8.174394	5.391402	-0.475113	-0.366168	0.324579	0.731325
35908	-1.521589	7.980935	5.249109	-0.475113	-0.362302	0.327479	0.731958
35909	-1.286204	7.983530	5.208838	-0.474897	-0.358502	0.330989	0.732390
35910	-1.066964	7.877168	5.100332	-0.474722	-0.354924	0.334452	0.732673
35911	-0.815731	7.798020	4.813617	-0.474372	-0.351503	0.338208	0.732825
35912	-0.626698	7.775167	4.561396	-0.473842	-0.348380	0.342245	0.732785
35913	-0.416350	7.991575	4.486225	-0.473163	-0.345536	0.346607	0.732520
35914	-0.234479	8.116415	4.449221	-0.472669	-0.342993	0.350880	0.731999
35915	-0.114767	8.306364	4.398925	-0.472424	-0.340757	0.355048	0.731192
35916	-0.033127	8.375598	4.400792	-0.472678	-0.338858	0.358769	0.730093
35917	-0.244068	8.230112	4.417195	-0.473300	-0.337304	0.362133	0.728747
35918	-0.376785	8.253905	4.539956	-0.473827	-0.336085	0.365777	0.727147
35919	-0.568841	8.327553	4.708016	-0.474484	-0.335239	0.369058	0.725449
35920	-0.807567	8.318302	4.761092	-0.474951	-0.334679	0.372272	0.723758
35921	-0.825548	8.544270	4.857569	-0.475027	-0.334242	0.375788	0.722091
35922	-0.846841	8.708967	4.874285	-0.475106	-0.333841	0.378979	0.720555
35923	-0.811258	8.795231	4.856044	-0.475064	-0.333414	0.382147	0.719106
35924	-0.883570	8.773559	4.826150	-0.475035	-0.332959	0.385131	0.717742
35925	-0.905351	8.576572	4.829260	-0.474876	-0.332440	0.387942	0.716573
35926	-0.855841	8.477142	4.758283	-0.474377	-0.331960	0.390894	0.715522
35927	-0.811941	8.536629	4.807040	-0.473612	-0.331337	0.393856	0.714692
35928	-0.806176	8.404627	4.690848	-0.472646	-0.330615	0.396558	0.714172
35929	-0.788133	8.462545	4.591268	-0.471125	-0.329753	0.399585	0.713888
35930	-0.639704	8.627231	4.601871	-0.469310	-0.328782	0.402509	0.713888
35931	-0.624138	8.535268	4.513901	-0.467562	-0.327741	0.404920	0.714151
35932	-0.553785	8.433362	4.480261	-0.465537	-0.326836	0.407543	0.714397
35933	-0.558222	8.528429	4.347576	-0.463326	-0.326078	0.410220	0.714648
35934	-0.447684	8.643034	4.383087	-0.461060	-0.325431	0.412741	0.714957
35935	-0.448634	8.633110	4.359201	-0.458874	-0.324898	0.414908	0.715351
35936	-0.470869	8.618782	4.253862	-0.456705	-0.324382	0.416948	0.715787
35937	-0.485613	8.715406	4.202549	-0.454488	-0.324026	0.419131	0.716084
35938	-0.479301	8.810762	4.219643	-0.452423	-0.323804	0.421231	0.716260
35939	-0.543299	8.769967	4.243434	-0.450595	-0.323783	0.423036	0.716358
35940	-0.584734	8.709767	4.232478	-0.448800	-0.323871	0.424979	0.716295
35941	-0.636597	8.892860	4.147365	-0.446990	-0.324081	0.427062	0.716093
35942	-0.725094	8.982978	4.190667	-0.445454	-0.324346	0.428693	0.715956
35943	-0.790086	8.940482	4.070953	-0.443939	-0.324655	0.430280	0.715805
35944	-0.769742	9.021893	4.112905	-0.442339	-0.324965	0.432075	0.715574
35945	-0.741040	9.000265	4.104114	-0.440940	-0.325324	0.433485	0.715420
35946	-0.772641	9.001363	4.055970	-0.439452	-0.325652	0.435124	0.715192
35947	-0.752939	9.106080	4.020991	-0.437938	-0.325988	0.436829	0.714928
35948	-0.799947	9.114683	3.932013	-0.436597	-0.326267	0.438292	0.714726
35949	-0.843981	9.162251	3.959909	-0.435310	-0.326503	0.439715	0.714529
35950	-0.899395	9.186196	3.914295	-0.434038	-0.326691	0.441137	0.714341
35951	-0.919518	9.212819	3.908196	-0.432716	-0.326860	0.442622	0.714147
35952	-0.898094	9.230285	3.916100	-0.431389	-0.326904	0.444074	0.714028
35953	-0.915721	9.100368	3.853612	-0.430121	-0.326883	0.445388	0.713984
35954	-0.984919	9.019640	3.791079	-0.428790	-0.326866	0.446777	0.713924
35955	-0.966287	9.039861	3.766310	-0.427369	-0.326818	0.448256	0.713871
35956	-1.047578	9.027250	3.785626	-0.426014	-0.326778	0.449502	0.713916
35957	-1.086470	8.954206	3.779507	-0.424567	-0.326684	0.450718	0.714055
35958	-1.053433	9.055288	3.855019	-0.422903	-0.326606	0.452058	0.714231
35959	-1.014936	9.073582	3.856754	-0.421281	-0.326413	0.453140	0.714592
35960	-1.055769	9.029734	3.776844	-0.419743	-0.326071	0.453993	0.715111
35961	-1.035843	9.033142	3.790578	-0.418282	-0.325608	0.454690	0.715735
35962	-1.014605	9.025229	3.747821	-0.416920	-0.325027	0.455139	0.716508
35963	-1.070354	9.005879	3.747973	-0.415587	-0.324448	0.455408	0.717373
35964	-1.180364	9.005989	3.679852	-0.414219	-0.323892	0.455643	0.718266
35965	-1.104072	8.997687	3.653600	-0.412733	-0.323384	0.455939	0.719162
35966	-1.067670	9.135260	3.745981	-0.411209	-0.322928	0.456297	0.720013
35967	-1.142138	9.133933	3.701178	-0.409764	-0.322504	0.456526	0.720880
35968	-1.347820	8.997743	3.596778	-0.408303	-0.322050	0.456803	0.721736
35969	-1.322622	9.184887	3.593632	-0.406498	-0.321566	0.457671	0.722421
35970	-1.143316	9.301321	3.602594	-0.404834	-0.320906	0.458301	0.723249
35971	-1.141506	9.202701	3.566761	-0.403188	-0.320149	0.459007	0.724056
35972	-1.136187	9.239915	3.497136	-0.401455	-0.319362	0.460002	0.724735
35973	-1.111122	9.182829	3.409043	-0.399848	-0.318597	0.460874	0.725405
35974	-1.082542	9.084040	3.457388	-0.398298	-0.317834	0.461767	0.726024
35975	-1.113166	9.168265	3.504156	-0.396753	-0.317030	0.462854	0.726529
35976	-1.161641	9.213650	3.482448	-0.395234	-0.316186	0.464001	0.726994
35977	-1.174768	9.172497	3.507141	-0.393692	-0.315447	0.465265	0.727343
35978	-1.127617	9.167638	3.307195	-0.392086	-0.314829	0.466680	0.727572
35979	-1.092174	9.336046	3.266398	-0.390426	-0.313963	0.468148	0.727896
35980	-1.083331	9.449874	3.318604	-0.388952	-0.312670	0.469280	0.728512
35981	-1.059682	9.263079	3.464852	-0.387699	-0.310839	0.470012	0.729491
35982	-1.117367	9.192733	3.613137	-0.386441	-0.308826	0.470789	0.730512
35983	-1.045555	9.196579	3.597644	-0.385117	-0.306500	0.471658	0.731629
35984	-0.934198	9.106090	3.618930	-0.384080	-0.304309	0.472205	0.732735
35985	-0.848348	9.004520	3.524540	-0.383097	-0.302551	0.472919	0.733517
35986	-0.703813	9.030228	3.431809	-0.382090	-0.301355	0.474093	0.733777
35987	-0.573074	9.156473	3.606707	-0.381298	-0.300584	0.475336	0.733701
35988	-0.546874	9.050228	3.563515	-0.380879	-0.300824	0.476473	0.733082
35989	-0.667430	8.985000	3.559668	-0.380592	-0.301602	0.477474	0.732260
35990	-0.771762	9.096906	3.367217	-0.380124	-0.302496	0.478817	0.731257
35991	-0.521914	9.231036	3.521115	-0.379799	-0.303439	0.479695	0.730459
35992	-0.508540	9.070116	3.409559	-0.380104	-0.304718	0.479287	0.730036
35993	-0.565877	8.992672	3.323612	-0.380357	-0.305961	0.478664	0.729793
35994	-0.675678	9.130424	3.417803	-0.380395	-0.307323	0.478388	0.729382
