// Start Time: Unknown
// Update Rate: 60.0Hz
// Filter Profile: human (46.1)
// Option Flags: AHS Disabled ICC Disabled 
// Firmware Version: 4.3.5
PacketCounter	Acc_X	Acc_Y	Acc_Z	Quat_q0	Quat_q1	Quat_q2	Quat_q3
34999	-1.823456	-1.424459	9.283381	0.648610	0.019188	0.128651	-0.749924
35000	-1.891020	-1.191316	9.350304	0.648305	0.020209	0.128506	-0.750186
35001	-1.897000	-1.202850	9.321893	0.648088	0.020985	0.128640	-0.750329
35002	-1.924215	-1.118331	9.435166	0.647884	0.021869	0.128823	-0.750448
35003	-1.908541	-1.077187	9.567383	0.647774	0.022404	0.129402	-0.750428
35004	-1.903727	-1.496576	9.613419	0.647769	0.022815	0.129955	-0.750324
35005	-1.962267	-1.520333	9.597326	0.647853	0.023493	0.130035	-0.750217
35006	-1.982543	-1.693359	9.618151	0.648006	0.024163	0.129968	-0.750075
35007	-1.971091	-2.174140	9.671818	0.648133	0.025131	0.129483	-0.750017
35008	-1.916041	-2.530568	9.722125	0.648285	0.026620	0.128184	-0.750058
35009	-1.810001	-2.075265	9.797554	0.648374	0.028392	0.126504	-0.750201
35010	-1.888493	-1.824635	9.803701	0.648394	0.029251	0.125482	-0.750322
35011	-1.905602	-2.164601	9.516716	0.648255	0.029614	0.124875	-0.750529
35012	-2.034657	-2.175521	9.342021	0.647873	0.030423	0.123961	-0.750979
35013	-1.891677	-1.910544	9.306145	0.647299	0.031385	0.123022	-0.751588
35014	-1.781435	-1.583829	9.230376	0.646485	0.032415	0.122336	-0.752356
35015	-1.769826	-1.375969	9.239765	0.645631	0.033147	0.122025	-0.753108
35016	-1.968592	-1.204919	9.274955	0.644833	0.033356	0.122321	-0.753734
35017	-1.945415	-1.129502	9.214681	0.644119	0.033068	0.123047	-0.754239
35018	-1.810609	-1.310106	9.084255	0.643547	0.032606	0.124029	-0.754587
35019	-1.766656	-1.313214	9.175827	0.643060	0.032791	0.124507	-0.754915
35020	-1.817402	-1.051490	9.358891	0.642594	0.033656	0.124447	-0.755284
35021	-1.864334	-0.393355	9.516773	0.642113	0.034719	0.124309	-0.755667
35022	-1.995160	-0.200864	9.633716	0.641692	0.035173	0.124937	-0.755900
35023	-1.951324	-0.262370	9.743219	0.641401	0.035381	0.125833	-0.755989
35024	-2.037214	-0.161211	9.841128	0.641343	0.035673	0.126729	-0.755875
35025	-2.236454	-0.142352	9.937633	0.641726	0.035898	0.127492	-0.755411
35026	-2.381115	0.092155	10.067300	0.642511	0.035947	0.128136	-0.754631
35027	-2.450181	-0.132774	10.150650	0.643670	0.035409	0.128992	-0.753523
35028	-2.391291	-0.649081	10.219231	0.645113	0.034742	0.129589	-0.752216
35029	-2.290848	-1.026694	10.113143	0.646885	0.034186	0.129576	-0.750721
35030	-2.296403	-1.036358	10.028240	0.648874	0.033926	0.128863	-0.749137
35031	-2.365209	-0.920797	9.963554	0.651011	0.033543	0.127950	-0.747454
35032	-2.423590	-1.058866	10.055768	0.653124	0.033019	0.127096	-0.745779
35033	-2.375897	-1.439408	9.824978	0.655222	0.032089	0.126428	-0.744090
35034	-2.289782	-2.604070	9.322898	0.657413	0.031201	0.125355	-0.742375
35035	-2.252045	-3.582772	8.919750	0.659648	0.031080	0.123075	-0.740777
35036	-1.824568	-3.722365	8.963246	0.661704	0.031936	0.119797	-0.739444
35037	-1.659046	-3.227607	9.105401	0.663254	0.033145	0.116417	-0.738541
35038	-1.723457	-3.204611	8.850411	0.663965	0.034343	0.113622	-0.738283
35039	-1.687742	-2.798470	8.844968	0.663814	0.036098	0.111093	-0.738719
35040	-1.862523	-1.893741	9.100649	0.662979	0.037547	0.109709	-0.739603
35041	-2.017258	-1.814188	9.347047	0.661620	0.037786	0.109957	-0.740770
35042	-1.888522	-2.076860	9.372704	0.660085	0.037440	0.110980	-0.742004
35043	-1.849399	-1.966279	9.823408	0.658480	0.037212	0.112098	-0.743272
35044	-2.086290	-1.905338	10.715233	0.656905	0.036543	0.113299	-0.744516
35045	-2.163963	-1.711098	11.395073	0.655295	0.034984	0.114479	-0.745828
35046	-1.967678	-1.730084	11.419993	0.653681	0.031914	0.115839	-0.747171
35047	-2.072119	-1.887480	11.218870	0.652122	0.027844	0.117048	-0.748506
35048	-2.138520	-2.440343	11.008478	0.650576	0.023706	0.117306	-0.749952
35049	-2.049698	-2.281404	10.939583	0.648980	0.020450	0.116023	-0.751628
35050	-1.922575	-1.711701	10.851678	0.647328	0.017704	0.113705	-0.753475
35051	-1.947318	-1.015304	10.613543	0.645515	0.014600	0.111476	-0.755427
35052	-1.799920	-0.589116	10.026177	0.643596	0.010290	0.110067	-0.757340
35053	-1.639799	-0.511897	8.957995	0.641635	0.005175	0.109458	-0.759142
35054	-1.398733	-0.596152	7.946626	0.639873	-0.000214	0.109424	-0.760650
35055	-1.061644	-1.003889	7.372073	0.638616	-0.004646	0.109344	-0.761704
35056	-1.191454	-1.388125	7.347182	0.637972	-0.007298	0.108531	-0.762338
35057	-1.022133	-1.292219	7.656628	0.637842	-0.008369	0.107159	-0.762630
35058	-0.726183	-0.921789	7.770353	0.637908	-0.008749	0.106163	-0.762710
35059	-0.727966	-0.834727	7.890890	0.637832	-0.009647	0.106514	-0.762714
35060	-0.735924	-1.028566	7.967997	0.637415	-0.011001	0.108050	-0.762828
35061	-0.701132	-1.575256	7.951244	0.636886	-0.012104	0.109904	-0.762988
35062	-1.012449	-2.244555	8.262526	0.636507	-0.012075	0.111106	-0.763131
35063	-1.126892	-2.194826	8.740025	0.636214	-0.010625	0.111090	-0.763399
35064	-1.076926	-1.499186	9.155042	0.635981	-0.008610	0.110725	-0.763672
35065	-1.246870	-1.301669	9.466605	0.635711	-0.007494	0.111376	-0.763814
35066	-1.210553	-1.482763	9.637734	0.635303	-0.007111	0.112839	-0.763942
35067	-1.151242	-1.729094	9.672967	0.634843	-0.007078	0.114573	-0.764067
35068	-1.207727	-2.032939	9.558587	0.634500	-0.006596	0.115688	-0.764188
35069	-1.389585	-2.072621	9.567232	0.634366	-0.005205	0.115788	-0.764294
35070	-1.478162	-1.648148	9.825375	0.634394	-0.003338	0.115309	-0.764354
35071	-1.413320	-1.238343	9.885893	0.634474	-0.001807	0.115015	-0.764337
35072	-1.446616	-1.204976	9.966610	0.634533	-0.001111	0.115465	-0.764222
35073	-1.384414	-1.497300	9.928639	0.634592	-0.001206	0.116628	-0.763996
35074	-1.403090	-1.816520	9.851917	0.634665	-0.001248	0.117630	-0.763781
35075	-1.361519	-1.923978	9.753735	0.634820	-0.000909	0.118063	-0.763587
35076	-1.521306	-1.904156	9.742486	0.635058	-0.000259	0.118010	-0.763397
35077	-1.459241	-1.751918	9.736340	0.635297	0.000580	0.117631	-0.763256
35078	-1.308286	-1.719235	9.755414	0.635462	0.001262	0.117359	-0.763160
35079	-1.455805	-1.780616	9.723617	0.635497	0.001668	0.117289	-0.763141
35080	-1.503378	-2.003399	9.685145	0.635437	0.001985	0.117323	-0.763185
35081	-1.374464	-1.947063	9.617571	0.635349	0.002564	0.117051	-0.763298
35082	-1.405335	-1.866600	9.573968	0.635279	0.003235	0.116670	-0.763412
35083	-1.409179	-1.789018	9.633559	0.635118	0.003815	0.116328	-0.763596
35084	-1.422901	-1.724402	9.595204	0.634819	0.004190	0.116178	-0.763865
35085	-1.343082	-1.871416	9.497215	0.634438	0.004527	0.116147	-0.764184
35086	-1.373150	-1.921722	9.444677	0.634081	0.005185	0.115889	-0.764516
35087	-1.436646	-1.746333	9.426072	0.633835	0.005963	0.115391	-0.764789
35088	-1.471194	-1.492853	9.453454	0.633632	0.006612	0.115057	-0.765002
35089	-1.475883	-1.517062	9.457164	0.633391	0.006972	0.115057	-0.765199
35090	-1.447625	-1.574124	9.492719	0.633022	0.007417	0.115070	-0.765498
35091	-1.394700	-1.554717	9.467336	0.632562	0.008173	0.114988	-0.765883
35092	-1.520632	-1.374945	9.464406	0.632079	0.009109	0.114818	-0.766296
35093	-1.495235	-1.218039	9.513477	0.631648	0.010052	0.114760	-0.766649
35094	-1.625045	-1.123069	9.586227	0.631305	0.010961	0.114785	-0.766915
35095	-1.537006	-1.087594	9.622697	0.631119	0.011733	0.114908	-0.767038
35096	-1.520482	-1.033568	9.671215	0.631110	0.012461	0.114920	-0.767032
35097	-1.586191	-0.956141	9.765567	0.631344	0.013096	0.114864	-0.766837
35098	-1.539707	-0.817985	9.840519	0.631795	0.013655	0.114722	-0.766477
35099	-1.562046	-0.700708	9.843398	0.632419	0.014258	0.114441	-0.765993
35100	-1.626600	-0.462888	9.769005	0.633146	0.015074	0.113926	-0.765454
35101	-1.733623	-0.156329	9.754769	0.634058	0.015867	0.113415	-0.764759
35102	-1.714931	-0.144415	9.686704	0.635363	0.016583	0.113016	-0.763718
35103	-1.723215	-0.014183	9.742108	0.637157	0.017289	0.112678	-0.762257
35104	-1.722317	0.288029	9.855711	0.639341	0.017463	0.112800	-0.760404
35105	-1.815295	0.210349	9.838840	0.641795	0.016980	0.113541	-0.758234
35106	-1.864994	-0.039604	9.772618	0.644534	0.016313	0.114294	-0.755809
35107	-1.849590	-0.178291	9.817819	0.647588	0.016151	0.114559	-0.753157
35108	-1.827335	-0.014892	9.870923	0.651043	0.016771	0.114115	-0.750227
35109	-2.090682	0.280249	10.124533	0.655025	0.017510	0.113346	-0.746852
35110	-2.059715	0.624273	10.130557	0.659515	0.017542	0.112950	-0.742950
35111	-2.049286	0.727854	10.168728	0.664473	0.016369	0.113365	-0.738482
35112	-2.207863	0.495972	10.091475	0.669859	0.014193	0.114409	-0.733483
35113	-2.300830	-0.040542	10.162131	0.675624	0.011989	0.115278	-0.728079
35114	-2.297480	-0.159423	10.135796	0.681783	0.010239	0.115413	-0.722320
35115	-2.309666	-0.157864	10.267141	0.688402	0.008273	0.115310	-0.716057
35116	-2.177155	0.110725	10.330164	0.695279	0.005417	0.115524	-0.709375
35117	-2.146618	-0.044710	10.142439	0.702210	0.001105	0.116510	-0.702371
35118	-2.144841	-0.688726	9.815171	0.709137	-0.003709	0.117586	-0.695187
35119	-2.359901	-1.207533	9.700502	0.716202	-0.007746	0.117969	-0.687807
35120	-2.369199	-1.397639	9.758895	0.723436	-0.010673	0.117354	-0.680260
35121	-2.109633	-1.087440	9.775917	0.730812	-0.013288	0.116360	-0.672457
35122	-2.055112	-1.277892	9.562328	0.738163	-0.016303	0.115494	-0.664463
35123	-1.966207	-1.635475	9.388179	0.745536	-0.019272	0.114443	-0.656283
35124	-1.980648	-1.858678	9.479645	0.752820	-0.021649	0.113034	-0.648087
35125	-2.117962	-1.667210	9.518854	0.759988	-0.023759	0.111466	-0.639866
35126	-1.997870	-1.692267	9.374196	0.767047	-0.025750	0.109824	-0.631596
35127	-1.943829	-1.616561	9.203391	0.774068	-0.027886	0.108332	-0.623142
35128	-1.945992	-1.580508	9.190464	0.781032	-0.030417	0.107047	-0.614496
35129	-1.897738	-1.627396	9.200199	0.787853	-0.033197	0.106061	-0.605753
35130	-1.955734	-1.420292	9.123567	0.794441	-0.036086	0.105439	-0.597030
35131	-1.985473	-1.654098	8.895303	0.800866	-0.039260	0.105208	-0.588221
35132	-1.880876	-2.094066	8.747547	0.807320	-0.041371	0.104609	-0.579292
35133	-2.007774	-1.678239	8.914597	0.813925	-0.041909	0.103458	-0.570145
35134	-2.060552	-1.241468	9.136115	0.820621	-0.042199	0.102351	-0.560646
35135	-2.078853	-1.009869	9.244249	0.827302	-0.043041	0.101587	-0.550816
35136	-2.020703	-0.780757	9.273377	0.833910	-0.044636	0.101212	-0.540701
35137	-2.211563	-0.910048	9.162675	0.840413	-0.047237	0.101321	-0.530291
35138	-2.206204	-1.758243	9.102558	0.846925	-0.050075	0.101498	-0.519527
35139	-1.938579	-2.360472	9.191249	0.853613	-0.050780	0.100588	-0.508574
35140	-1.867430	-1.508909	9.419581	0.860387	-0.050082	0.098967	-0.497425
35141	-2.015133	-0.895759	9.558946	0.866940	-0.050096	0.097783	-0.486152
35142	-2.159787	-0.972226	9.506263	0.873151	-0.052010	0.097430	-0.474774
35143	-2.023229	-1.731208	9.552037	0.879066	-0.055010	0.097466	-0.463375
35144	-2.038698	-1.804032	9.423274	0.884848	-0.057857	0.097400	-0.451895
35145	-2.119415	-1.785707	9.505183	0.890474	-0.060763	0.097419	-0.440310
35146	-2.307025	-2.014774	9.510416	0.895959	-0.063874	0.097375	-0.428597
35147	-2.243505	-2.510231	9.392723	0.901369	-0.066025	0.096868	-0.416883
35148	-2.087662	-2.487525	9.429237	0.906757	-0.066956	0.095714	-0.405151
35149	-2.025368	-2.332418	9.376018	0.912120	-0.066634	0.094064	-0.393381
35150	-1.967069	-1.920458	9.406701	0.917339	-0.066073	0.092469	-0.381539
35151	-1.980162	-1.704777	9.461449	0.922249	-0.066685	0.091327	-0.369689
35152	-2.007944	-1.677837	9.549442	0.926773	-0.068662	0.090680	-0.357987
35153	-1.970164	-2.143500	9.307056	0.930956	-0.071772	0.090366	-0.346414
35154	-1.890664	-3.044502	9.056144	0.935034	-0.073884	0.089780	-0.334952
35155	-1.803468	-3.256916	9.189406	0.939186	-0.073459	0.088577	-0.323555
35156	-1.989371	-2.030730	9.671088	0.943295	-0.071593	0.087053	-0.312236
35157	-1.977295	-1.678180	9.710094	0.947067	-0.071662	0.085838	-0.300932
35158	-1.764058	-2.534600	9.474206	0.950549	-0.072962	0.084691	-0.289760
35159	-1.640190	-3.138181	9.413780	0.953983	-0.072609	0.083226	-0.278780
35160	-1.905911	-2.400709	9.759715	0.957368	-0.070379	0.081572	-0.268029
35161	-2.064861	-1.758342	9.779075	0.960552	-0.068564	0.080057	-0.257351
35162	-1.834146	-1.889848	9.696706	0.963486	-0.068047	0.078791	-0.246689
35163	-1.701588	-2.344027	9.579054	0.966239	-0.068624	0.077514	-0.235933
35164	-1.669065	-2.385569	9.673047	0.968827	-0.069323	0.076212	-0.225301
35165	-1.838136	-1.953397	9.719315	0.971126	-0.071204	0.075042	-0.214971
35166	-1.911197	-1.992171	9.676601	0.973048	-0.074808	0.074117	-0.205152
35167	-1.949495	-2.593756	9.476279	0.974701	-0.079305	0.073194	-0.195732
35168	-1.821169	-3.571745	9.019477	0.976398	-0.081979	0.071941	-0.186415
35169	-1.707170	-3.297907	9.095651	0.978285	-0.081373	0.070384	-0.177155
35170	-1.703770	-2.427911	9.314047	0.980215	-0.079275	0.068682	-0.167860
35171	-1.725284	-2.143197	9.050608	0.982040	-0.077088	0.067005	-0.158637
35172	-1.600145	-2.366409	8.900293	0.983733	-0.074936	0.065467	-0.149556
35173	-1.233396	-2.583507	9.068028	0.985364	-0.072551	0.064033	-0.140335
35174	-1.165910	-2.141018	9.235654	0.986855	-0.070699	0.062746	-0.131077
35175	-1.369435	-1.628795	9.213372	0.987986	-0.071406	0.061742	-0.122365
35176	-1.354954	-2.740004	9.024694	0.988786	-0.074350	0.060887	-0.114310
35177	-1.256694	-3.929346	9.085704	0.989580	-0.075605	0.060185	-0.106740
35178	-1.255800	-3.461184	9.253764	0.990490	-0.074018	0.059566	-0.099517
35179	-1.386926	-2.783125	9.154957	0.991354	-0.071819	0.058919	-0.092674
35180	-1.375551	-2.448673	9.115757	0.992058	-0.070583	0.058257	-0.086287
35181	-1.314512	-2.788333	9.144137	0.992624	-0.070099	0.057769	-0.080285
35182	-1.322794	-2.844800	9.230702	0.993097	-0.069779	0.057540	-0.074692
35183	-1.284924	-3.039748	9.036994	0.993490	-0.069607	0.057416	-0.069535
35184	-1.175363	-3.249820	9.023267	0.993807	-0.069869	0.057292	-0.064681
35185	-1.084709	-3.583181	9.045656	0.994048	-0.070544	0.057119	-0.060254
35186	-1.183812	-3.669087	8.991191	0.994204	-0.071565	0.056971	-0.056497
35187	-1.286174	-4.013159	8.914285	0.994245	-0.073340	0.056818	-0.053580
35188	-1.166625	-4.585010	8.915253	0.994199	-0.075307	0.056814	-0.051656
35189	-1.079807	-5.010850	9.040412	0.994113	-0.077023	0.056964	-0.050620
35190	-1.137561	-5.246758	9.070432	0.993983	-0.078599	0.057193	-0.050496
35191	-1.418138	-5.385250	9.029760	0.993788	-0.080127	0.057508	-0.051559
35192	-1.529498	-5.509404	9.074013	0.993535	-0.081384	0.057927	-0.053933
35193	-1.605922	-5.634306	9.147844	0.993230	-0.082208	0.058448	-0.057623
35194	-1.608809	-5.545160	9.184707	0.992858	-0.082663	0.059000	-0.062601
35195	-1.654798	-5.238505	9.233629	0.992322	-0.083708	0.059605	-0.068827
35196	-1.670776	-5.423285	9.080899	0.991603	-0.085401	0.060225	-0.076174
35197	-1.653314	-5.521619	8.996091	0.990738	-0.087080	0.060869	-0.084564
35198	-1.635469	-5.601741	8.989995	0.989778	-0.087905	0.061574	-0.093921
35199	-1.863569	-4.787745	9.297925	0.988650	-0.088144	0.062420	-0.104430
35200	-1.955517	-4.552943	9.178300	0.987204	-0.089213	0.063287	-0.116031
35201	-1.996294	-4.621010	9.037087	0.985497	-0.090260	0.064210	-0.128552
35202	-1.999073	-4.495917	9.034425	0.983599	-0.090688	0.065120	-0.141662
35203	-2.090893	-3.923046	9.095860	0.981445	-0.090966	0.066103	-0.155307
35204	-2.153182	-3.540890	9.199789	0.978938	-0.091796	0.067223	-0.169513
35205	-2.086347	-3.601550	9.051635	0.976044	-0.093273	0.068488	-0.184251
35206	-1.913748	-3.711847	9.064631	0.972841	-0.094633	0.069771	-0.199391
35207	-2.082301	-3.387012	9.187076	0.969345	-0.095658	0.071249	-0.214810
35208	-2.390902	-3.046077	9.054476	0.965480	-0.096695	0.072875	-0.230623
35209	-2.394647	-3.254614	8.849661	0.961282	-0.097569	0.074452	-0.246725
35210	-2.388680	-3.123224	8.872677	0.956902	-0.097391	0.075821	-0.262880
35211	-2.344681	-2.724063	8.885723	0.952333	-0.096486	0.077082	-0.278947
35212	-2.416729	-2.214840	8.985381	0.947465	-0.095782	0.078576	-0.294893
35213	-2.852473	-1.813188	9.101379	0.942156	-0.095792	0.080487	-0.310947
35214	-2.675679	-2.152226	9.153412	0.936430	-0.096303	0.082585	-0.327115
35215	-2.405766	-2.720335	8.984831	0.930584	-0.095920	0.084365	-0.343067
35216	-2.049527	-2.687577	8.714285	0.924894	-0.093392	0.085486	-0.358527
35217	-2.437102	-1.630512	9.078210	0.919153	-0.090254	0.086527	-0.373530
35218	-2.906595	-1.337305	9.241449	0.913022	-0.088549	0.087856	-0.388370
35219	-2.405778	-1.935776	9.124250	0.906552	-0.087671	0.089435	-0.403086
35220	-2.201163	-2.000241	9.225130	0.899945	-0.085881	0.090945	-0.417674
35221	-2.358736	-1.628270	9.471750	0.893103	-0.084043	0.092564	-0.432129
35222	-2.840385	-1.361551	9.551072	0.885956	-0.082182	0.094259	-0.446591
35223	-2.635926	-1.748146	9.403665	0.878714	-0.080378	0.095728	-0.460692
35224	-2.327620	-2.199476	9.263269	0.871729	-0.077516	0.096415	-0.474114
35225	-2.209894	-1.772413	9.202457	0.865119	-0.073207	0.096110	-0.486798
35226	-2.287073	-1.131005	9.299983	0.858502	-0.069717	0.095931	-0.498910
35227	-2.236611	-0.826600	9.643819	0.851622	-0.067975	0.096665	-0.510661
35228	-2.288186	-0.987356	9.717741	0.844195	-0.067927	0.098596	-0.522493
35229	-2.226157	-1.876842	9.510529	0.836314	-0.067720	0.100836	-0.534626
35230	-2.283421	-2.292933	9.214607	0.828438	-0.065726	0.102179	-0.546744
35231	-2.256821	-2.165143	9.130184	0.820843	-0.061562	0.102186	-0.558556
35232	-2.391507	-1.457222	9.148937	0.813477	-0.056912	0.101489	-0.569839
35233	-2.248782	-0.961130	9.362831	0.806221	-0.052772	0.101093	-0.580519
35234	-2.118145	-0.743719	9.597313	0.798847	-0.050267	0.101746	-0.590732
35235	-2.074951	-1.180675	9.615499	0.791274	-0.048515	0.103103	-0.600750
35236	-2.095923	-1.642969	9.503995	0.783595	-0.046629	0.104429	-0.610654
35237	-2.219380	-1.629547	9.539034	0.775924	-0.043657	0.104898	-0.620510
35238	-2.175486	-1.125294	9.640286	0.768294	-0.040517	0.105005	-0.630125
35239	-2.043331	-1.222354	9.721446	0.760667	-0.037833	0.105200	-0.639443
35240	-2.100188	-1.478969	9.707103	0.753120	-0.035288	0.105298	-0.648442
35241	-2.130453	-1.823269	9.774978	0.745549	-0.032637	0.105127	-0.657298
35242	-1.913086	-1.288903	10.368598	0.737710	-0.030691	0.105225	-0.666161
35243	-1.805594	-1.462530	10.429529	0.729384	-0.030317	0.106112	-0.675144
35244	-1.811816	-1.902778	9.847786	0.720537	-0.030318	0.107183	-0.684412
35245	-1.992038	-1.992417	9.664404	0.711374	-0.029321	0.107613	-0.693907
35246	-1.829018	-2.012563	9.529015	0.702107	-0.026468	0.106750	-0.703527
35247	-1.928908	-1.406830	9.004694	0.692915	-0.020728	0.103640	-0.713231
35248	-2.007466	0.032933	8.588216	0.684101	-0.013027	0.098986	-0.722522
35249	-1.986739	1.868736	8.551065	0.675659	-0.005758	0.095067	-0.731036
35250	-2.128443	2.099758	8.528824	0.667668	-0.000501	0.093561	-0.738556
35251	-1.836599	2.129807	8.656478	0.660132	0.003559	0.093845	-0.745256
35252	-1.533367	1.914153	8.800392	0.653252	0.006832	0.095483	-0.751065
35253	-1.697478	2.130267	8.962263	0.647110	0.009701	0.097685	-0.756051
35254	-1.585370	1.666904	8.982755	0.641886	0.011903	0.100361	-0.760111
35255	-1.520172	1.352083	9.170992	0.637480	0.014363	0.102739	-0.763451
35256	-1.611834	1.328618	9.632832	0.633857	0.017235	0.104484	-0.766166
35257	-1.782509	1.439283	10.051378	0.630924	0.019962	0.106059	-0.768302
35258	-1.850404	1.349130	10.242311	0.628609	0.022267	0.107706	-0.769906
35259	-1.856216	1.006757	10.184041	0.627003	0.023849	0.109652	-0.770892
35260	-1.838592	0.628978	10.142278	0.626130	0.025308	0.111438	-0.771299
35261	-1.831647	0.451899	10.276911	0.625821	0.026980	0.112900	-0.771281
35262	-1.945684	0.314082	10.490659	0.625926	0.028681	0.114164	-0.770948
35263	-1.940942	0.133757	10.592852	0.626367	0.030110	0.115385	-0.770353
35264	-1.871096	-0.030653	10.548931	0.627088	0.030915	0.116717	-0.769533
35265	-1.826155	-0.467368	10.267445	0.628100	0.031212	0.118116	-0.768482
35266	-1.864129	-0.969611	10.147152	0.629475	0.031636	0.119055	-0.767194
35267	-1.898807	-1.078741	10.260583	0.631141	0.032369	0.119299	-0.765755
35268	-1.812387	-1.006134	10.148983	0.632967	0.033080	0.119210	-0.764230
35269	-1.748912	-0.952417	10.068061	0.634871	0.033399	0.119344	-0.762614
35270	-1.884216	-1.149893	10.034997	0.636759	0.033136	0.119865	-0.760968
35271	-1.819483	-1.514154	9.884660	0.638605	0.032639	0.120404	-0.759356
35272	-1.693277	-1.584302	9.863278	0.640379	0.032373	0.120764	-0.757815
35273	-1.617614	-1.600789	9.823284	0.642082	0.032201	0.121048	-0.756334
35274	-1.692360	-1.657848	9.835340	0.643699	0.032313	0.121082	-0.754948
35275	-1.756747	-1.434034	9.830015	0.645246	0.032466	0.120902	-0.753649
35276	-1.750103	-1.447305	9.656499	0.646802	0.032590	0.120646	-0.752350
35277	-1.787369	-1.457719	9.549588	0.648495	0.032630	0.120334	-0.750939
35278	-1.684246	-1.503565	9.598008	0.650313	0.032775	0.119833	-0.749439
35279	-1.567125	-1.125898	9.594773	0.652170	0.032904	0.119340	-0.747897
35280	-1.656719	-0.911845	9.442095	0.653954	0.032480	0.119296	-0.746363
35281	-1.620528	-1.196407	9.182546	0.655752	0.031517	0.119605	-0.744775
35282	-1.657597	-1.422618	8.926914	0.657606	0.031162	0.119464	-0.743177
35283	-1.782336	-1.311425	8.817564	0.659597	0.031880	0.118652	-0.741510
35284	-1.849930	-0.988120	8.968499	0.661694	0.033338	0.117537	-0.739753
35285	-1.830957	-0.944142	9.065019	0.663805	0.035189	0.116408	-0.737953
35286	-1.954161	-0.811224	9.025463	0.665988	0.037187	0.115253	-0.736066
35287	-2.137778	-0.735171	9.092794	0.668330	0.038677	0.114475	-0.733985
35288	-2.129951	-0.922111	9.271062	0.670823	0.039594	0.114292	-0.731687
35289	-2.551521	-1.174919	9.590566	0.673341	0.040369	0.114488	-0.729298
35290	-2.643930	-1.591020	9.885676	0.675874	0.040947	0.115004	-0.726837
35291	-2.148489	-1.775943	10.153540	0.678300	0.041637	0.115458	-0.724461
35292	-2.063319	-1.606262	10.453154	0.680477	0.042157	0.115931	-0.722311
35293	-2.204935	-1.632351	10.574884	0.682303	0.041799	0.116825	-0.720463
35294	-2.391989	-1.998998	10.398738	0.683902	0.041233	0.117427	-0.718880
35295	-2.351656	-1.999773	10.269974	0.685453	0.040832	0.117350	-0.717437
35296	-2.355242	-2.061620	10.216050	0.686957	0.040498	0.116826	-0.716101
35297	-2.342772	-1.751613	10.259585	0.688351	0.040371	0.115882	-0.714923
35298	-2.243164	-1.249939	10.097558	0.689563	0.039558	0.115359	-0.713884
35299	-2.243340	-1.308633	9.805703	0.690565	0.037880	0.115341	-0.713009
35300	-2.299357	-1.465172	9.591757	0.691371	0.036161	0.115307	-0.712322
35301	-2.338638	-1.654889	9.443570	0.692143	0.034981	0.114737	-0.711723
35302	-2.312661	-1.620282	9.317858	0.693029	0.034589	0.113427	-0.711089
35303	-2.051064	-1.077512	9.298461	0.693949	0.034653	0.111718	-0.710460
35304	-2.059936	-0.657061	9.261983	0.694804	0.034279	0.110353	-0.709856
35305	-2.140502	-0.846513	9.114603	0.695620	0.033377	0.109519	-0.709228
35306	-2.038496	-1.012562	9.049512	0.696444	0.032582	0.108704	-0.708581
35307	-2.000671	-1.125871	9.070529	0.697358	0.032370	0.107682	-0.707847
35308	-2.114754	-0.860427	9.089826	0.698324	0.032532	0.106558	-0.707057
35309	-2.095622	-0.711683	9.046311	0.699281	0.032422	0.105780	-0.706234
35310	-2.073369	-0.648329	9.144674	0.700135	0.031938	0.105551	-0.705443
35311	-2.010906	-1.179730	9.173019	0.700994	0.031245	0.105641	-0.704607
35312	-2.006671	-1.378592	9.185809	0.701807	0.031350	0.105289	-0.703845
35313	-2.040199	-1.005650	9.389885	0.702565	0.031851	0.104809	-0.703138
35314	-2.040917	-0.656003	9.491945	0.703118	0.031762	0.104893	-0.702576
35315	-2.023029	-0.990280	9.455563	0.703487	0.030839	0.105728	-0.702123
35316	-1.920298	-1.553652	9.377410	0.703762	0.030205	0.106429	-0.701769
35317	-1.896288	-1.729901	9.486903	0.704055	0.030601	0.106377	-0.701465
35318	-2.023571	-1.110810	9.693487	0.704322	0.031637	0.105816	-0.701237
35319	-2.169215	-0.996142	9.700058	0.704533	0.031957	0.105617	-0.701040
35320	-2.013870	-1.194685	9.693621	0.704605	0.031887	0.105596	-0.700974
35321	-1.839386	-1.168152	9.680690	0.704598	0.031707	0.105670	-0.700978
35322	-1.847152	-1.320433	9.660892	0.704512	0.031476	0.105736	-0.701065
35323	-1.912864	-1.226450	9.652316	0.704368	0.031311	0.105805	-0.701206
35324	-1.926214	-1.278070	9.579465	0.704143	0.031063	0.105910	-0.701428
35325	-1.948434	-1.263457	9.542129	0.703786	0.030854	0.105955	-0.701788
35326	-1.894735	-1.338314	9.419016	0.703299	0.030759	0.105892	-0.702290
35327	-1.838563	-1.344581	9.426041	0.702681	0.030994	0.105596	-0.702943
35328	-1.858417	-1.131637	9.523124	0.701927	0.031626	0.105156	-0.703733
35329	-1.902219	-0.800006	9.475051	0.701048	0.032067	0.104953	-0.704619
35330	-1.877144	-0.851566	9.314587	0.700058	0.032067	0.105061	-0.705587
35331	-1.791154	-0.880093	9.283445	0.699016	0.032150	0.105211	-0.706593
35332	-1.844939	-0.762240	9.383630	0.697944	0.032232	0.105491	-0.707607
35333	-1.900136	-0.724796	9.351024	0.696814	0.032305	0.105897	-0.708656
35334	-1.764680	-0.828562	9.280232	0.695608	0.032537	0.106271	-0.709773
35335	-1.616000	-0.764349	9.326133	0.694369	0.033299	0.106351	-0.710938
35336	-1.642106	-0.671239	9.426571	0.693227	0.034412	0.106265	-0.712011
35337	-1.800416	-0.669878	9.513497	0.692234	0.035631	0.106111	-0.712939
35338	-1.701594	-0.527119	9.436659	0.691384	0.036702	0.105972	-0.713730
35339	-1.678993	-0.422645	9.377792	0.690681	0.037378	0.106072	-0.714360
35340	-1.800915	-0.441550	9.450644	0.690084	0.037668	0.106468	-0.714863
35341	-1.703089	-0.732058	9.546997	0.689587	0.038010	0.106922	-0.715257
35342	-1.701174	-0.749726	9.592967	0.689198	0.038975	0.107030	-0.715564
35343	-1.804150	-0.393173	9.681293	0.688845	0.039976	0.107132	-0.715833
35344	-1.828256	-0.230515	9.709331	0.688518	0.040266	0.107729	-0.716042
35345	-1.825229	-0.588327	9.777548	0.688330	0.039931	0.108766	-0.716085
35346	-1.852399	-0.946035	9.794086	0.688267	0.039810	0.109506	-0.716039
35347	-1.790380	-1.045445	9.802826	0.688399	0.040212	0.109737	-0.715855
35348	-1.903908	-0.822420	9.826337	0.688734	0.040632	0.109678	-0.715517
35349	-1.827183	-0.688254	9.784997	0.689175	0.040635	0.109739	-0.715084
35350	-1.725648	-0.728314	9.743130	0.689714	0.039997	0.110217	-0.714526
35351	-1.864555	-1.165633	9.654189	0.690355	0.039065	0.110886	-0.713854
35352	-1.909796	-1.316032	9.596145	0.691022	0.038404	0.111183	-0.713198
35353	-1.760048	-1.203929	9.509155	0.691697	0.037895	0.111300	-0.712553
35354	-1.846215	-1.122696	9.498415	0.692322	0.037080	0.111625	-0.711938
35355	-1.718176	-1.286654	9.368236	0.692855	0.036110	0.112068	-0.711399
35356	-1.714950	-1.468280	9.300959	0.693253	0.035644	0.112295	-0.710999
35357	-1.755394	-1.302639	9.262454	0.693532	0.035745	0.112176	-0.710741
35358	-1.768457	-1.120672	9.278200	0.693735	0.036032	0.112061	-0.710546
35359	-1.738931	-0.891682	9.248749	0.693873	0.036229	0.112132	-0.710390
35360	-1.639343	-0.772217	9.268903	0.693924	0.036233	0.112519	-0.710279
35361	-1.710117	-0.948990	9.160040	0.693980	0.036303	0.113080	-0.710132
35362	-1.830494	-1.040972	9.142545	0.694113	0.037012	0.113280	-0.709933
35363	-1.973656	-0.658375	9.284470	0.694382	0.037962	0.113233	-0.709628
35364	-1.765375	-0.347516	9.253443	0.694762	0.038306	0.113649	-0.709170
35365	-1.715940	-0.574671	9.267912	0.695186	0.038160	0.114553	-0.708617
35366	-1.796126	-0.922473	9.302736	0.695594	0.038480	0.115326	-0.708073
35367	-2.047881	-0.916153	9.453692	0.696003	0.039642	0.115652	-0.707554
35368	-1.929299	-0.732686	9.418453	0.696518	0.041018	0.115767	-0.706950
35369	-1.957744	-0.607505	9.469615	0.697213	0.042123	0.115955	-0.706169
35370	-1.985698	-0.668933	9.579440	0.698092	0.042707	0.116447	-0.705183
35371	-2.124744	-0.827777	9.735961	0.699041	0.043036	0.117134	-0.704109
35372	-2.068038	-1.019941	9.756154	0.699873	0.043350	0.117822	-0.703147
35373	-2.099685	-1.177483	9.699498	0.700573	0.043929	0.118281	-0.702337
35374	-2.172364	-1.191448	9.608690	0.701203	0.044683	0.118398	-0.701641
35375	-2.342286	-1.250371	9.615023	0.701816	0.045531	0.118313	-0.700987
35376	-2.246975	-1.176064	9.572122	0.702435	0.046608	0.118004	-0.700349
35377	-2.241905	-1.065310	9.579268	0.703006	0.047515	0.117878	-0.699735
35378	-2.264464	-1.051923	9.567381	0.703466	0.048189	0.118011	-0.699204
35379	-2.215328	-0.957190	9.530312	0.703798	0.048375	0.118541	-0.698768
35380	-2.157426	-1.251325	9.343067	0.704007	0.048105	0.119420	-0.698426
35381	-2.149336	-1.513238	9.246313	0.704098	0.048153	0.120149	-0.698206
35382	-2.278907	-1.370419	9.325369	0.704087	0.048575	0.120560	-0.698117
35383	-2.285027	-1.252021	9.261966	0.704020	0.048933	0.121048	-0.698075
35384	-2.245719	-1.237349	9.209519	0.703873	0.049217	0.121687	-0.698093
35385	-2.270250	-1.098541	9.224393	0.703580	0.049422	0.122524	-0.698226
35386	-2.440483	-1.120305	9.226833	0.703170	0.049494	0.123588	-0.698447
35387	-2.588523	-1.469555	9.066228	0.702741	0.049718	0.124554	-0.698691
35388	-2.535946	-1.540776	8.931653	0.702398	0.050581	0.124918	-0.698909
35389	-2.225931	-1.044255	8.926997	0.702178	0.051453	0.125230	-0.699011
35390	-2.094297	-0.804957	9.037847	0.701945	0.051604	0.126336	-0.699034
35391	-2.231541	-1.091354	9.048780	0.701471	0.051244	0.128321	-0.699175
35392	-2.275228	-1.447891	8.937752	0.700612	0.051682	0.130258	-0.699646
35393	-2.443751	-1.298088	8.842084	0.699472	0.053161	0.131798	-0.700387
35394	-2.559639	-1.235716	8.905949	0.698283	0.055083	0.133215	-0.701157
35395	-2.713583	-1.244131	8.877481	0.697228	0.057345	0.134382	-0.701802
35396	-2.848139	-1.112677	8.877193	0.696477	0.059621	0.135290	-0.702183
35397	-2.853705	-1.045308	9.016080	0.696071	0.061699	0.136147	-0.702241
35398	-2.992960	-1.004905	9.175608	0.695770	0.063765	0.136976	-0.702193
35399	-3.127363	-1.189446	9.182800	0.695505	0.065959	0.137775	-0.702097
35400	-3.292135	-1.184800	9.299261	0.695213	0.068350	0.138479	-0.702019
35401	-3.084139	-0.923123	9.697210	0.694779	0.070747	0.139377	-0.702034
35402	-3.271293	-0.681332	10.005811	0.694187	0.072315	0.141024	-0.702130
35403	-3.228475	-0.824297	10.277408	0.693467	0.072957	0.143381	-0.702298
35404	-3.147753	-1.029893	10.574346	0.692599	0.073118	0.145959	-0.702606
35405	-3.216591	-1.258488	10.845918	0.691597	0.073659	0.147932	-0.703125
35406	-3.658676	-1.179960	11.044824	0.690624	0.074481	0.148955	-0.703778
35407	-3.648382	-0.814101	11.040949	0.689848	0.075046	0.149304	-0.704405
35408	-3.364976	-0.576032	10.920638	0.689499	0.074496	0.149550	-0.704753
35409	-3.118227	-0.824416	10.608270	0.689515	0.072985	0.149673	-0.704869
35410	-3.115627	-1.174257	10.109023	0.689827	0.071583	0.148949	-0.704861
35411	-3.034212	-0.976945	9.643185	0.690331	0.070957	0.147183	-0.704802
35412	-3.016997	-0.780331	9.213301	0.691074	0.070665	0.144946	-0.704567
35413	-3.011863	-0.779466	8.805344	0.692015	0.070635	0.142495	-0.704146
35414	-2.670200	-0.853100	8.488134	0.693174	0.070611	0.140260	-0.703456
35415	-2.575275	-0.974262	8.335444	0.694485	0.070859	0.138165	-0.702553
35416	-2.681182	-0.824107	8.317571	0.695761	0.071229	0.136495	-0.701579
35417	-2.542761	-0.933507	8.189014	0.696860	0.071528	0.135384	-0.700672
35418	-2.459562	-1.157424	8.193265	0.697700	0.072084	0.134729	-0.699905
35419	-2.601223	-1.227578	8.233280	0.698319	0.073213	0.134166	-0.699279
35420	-2.496369	-1.055826	8.446404	0.698752	0.074693	0.133793	-0.698760
35421	-2.616771	-0.898508	8.673745	0.699171	0.075746	0.134053	-0.698178
35422	-2.685060	-1.227517	8.836543	0.699559	0.076649	0.134710	-0.697564
35423	-2.933575	-1.277156	9.195830	0.699819	0.077596	0.135564	-0.697033
35424	-2.790373	-1.446868	9.558854	0.699951	0.078444	0.136540	-0.696615
35425	-2.783184	-1.714006	9.937770	0.699842	0.079611	0.137185	-0.696465
35426	-3.091843	-1.321283	10.528925	0.699392	0.081066	0.137432	-0.696701
35427	-3.307984	-0.945109	11.176388	0.698703	0.081508	0.138179	-0.697193
35428	-3.537738	-1.140985	11.788142	0.697912	0.080425	0.139636	-0.697820
35429	-3.928142	-1.851235	12.667419	0.697156	0.078425	0.141061	-0.698516
35430	-4.208503	-1.919153	14.112975	0.696490	0.075246	0.142065	-0.699327
35431	-3.936363	-2.382529	15.110297	0.695836	0.070259	0.142477	-0.700411
35432	-3.945171	-2.375819	15.545887	0.694971	0.063684	0.141720	-0.702051
35433	-4.233489	-2.592676	15.185859	0.693864	0.055282	0.139845	-0.704230
35434	-4.391761	-2.792460	14.964491	0.692520	0.045736	0.136229	-0.706941
35435	-4.184269	-2.603956	14.752641	0.690895	0.035653	0.130647	-0.710158
35436	-4.300288	-2.290673	14.366644	0.689167	0.024802	0.123309	-0.713603
35437	-4.371957	-2.094640	13.876218	0.687403	0.013197	0.114670	-0.717046
35438	-4.088679	-1.768803	13.224895	0.685752	0.000928	0.104684	-0.720267
35439	-3.620947	-1.623676	12.565484	0.684317	-0.011667	0.093442	-0.723079
35440	-3.511277	-1.418296	11.970074	0.683104	-0.024584	0.081077	-0.725390
35441	-3.166273	-1.177542	11.301804	0.681998	-0.037297	0.067322	-0.727293
35442	-2.734622	-0.935830	10.520629	0.681072	-0.049937	0.052399	-0.728630
35443	-2.397943	-0.968875	9.749146	0.680539	-0.062337	0.036281	-0.729154
35444	-2.361624	-1.433095	8.986453	0.680657	-0.074100	0.018738	-0.728605
35445	-1.408209	-1.704110	8.298235	0.681801	-0.084756	-0.000737	-0.726611
35446	0.013683	-1.288494	8.220798	0.683765	-0.094577	-0.021176	-0.723238
35447	0.338430	-0.479938	8.334761	0.685908	-0.104291	-0.041357	-0.718988
35448	0.145785	0.011892	8.144387	0.687785	-0.115087	-0.060354	-0.714188
35449	0.425976	-0.555895	7.509276	0.689136	-0.126755	-0.078265	-0.709154
35450	0.876437	-1.082835	6.379010	0.690204	-0.137442	-0.096692	-0.703831
35451	1.635893	-1.409633	5.380228	0.691514	-0.146162	-0.116205	-0.697812
35452	2.328722	-0.971684	5.022071	0.693408	-0.152221	-0.136472	-0.690934
35453	2.776318	0.131887	5.202329	0.695607	-0.157020	-0.156120	-0.683448
35454	2.955921	0.673050	5.662532	0.697403	-0.163278	-0.173509	-0.675917
35455	3.943230	1.105161	5.757792	0.698548	-0.171511	-0.187638	-0.668885
35456	4.759341	0.901658	5.691504	0.698757	-0.181794	-0.197912	-0.662963
35457	4.945569	0.020072	5.411411	0.698304	-0.192385	-0.205494	-0.658127
35458	4.998949	-1.018156	5.059681	0.697548	-0.201989	-0.212317	-0.653872
35459	5.260022	-1.437879	4.599963	0.696836	-0.209466	-0.219778	-0.649801
35460	5.827528	-0.642468	4.707537	0.696179	-0.215383	-0.227262	-0.645985
35461	5.798970	-0.345677	4.677239	0.695187	-0.220929	-0.234019	-0.642761
35462	5.843365	-0.263115	4.470959	0.694002	-0.226246	-0.240162	-0.639919
35463	6.154965	-0.238131	4.024895	0.693013	-0.231047	-0.245710	-0.637163
35464	6.651056	-0.270050	3.784840	0.692352	-0.235426	-0.250720	-0.634320
35465	7.227505	0.218895	4.125145	0.691948	-0.239309	-0.254464	-0.631812
35466	7.172896	0.685775	4.433786	0.691278	-0.243201	-0.256176	-0.630366
35467	7.166406	0.365098	4.607652	0.690197	-0.246743	-0.256235	-0.630150
35468	7.090381	-0.152130	4.255789	0.689001	-0.248712	-0.255920	-0.630813
35469	7.268103	-0.414899	3.851456	0.688163	-0.248215	-0.256126	-0.631839
35470	7.289877	0.392524	4.109316	0.687696	-0.246005	-0.256040	-0.633245
35471	7.173325	0.985151	4.432608	0.687006	-0.243603	-0.254552	-0.635518
35472	6.988877	0.919503	4.596753	0.686251	-0.240939	-0.251941	-0.638384
35473	6.635350	0.911108	4.490041	0.685599	-0.237782	-0.248618	-0.641563
35474	6.714026	0.722105	4.260236	0.685397	-0.233879	-0.244828	-0.644664
35475	6.503826	0.802833	4.415985	0.685812	-0.229005	-0.240656	-0.647536
35476	6.118714	1.027518	4.826054	0.686538	-0.223636	-0.235628	-0.650485
35477	5.981957	1.132036	5.153171	0.687326	-0.217979	-0.229532	-0.653746
35478	5.646367	0.908568	5.069146	0.688128	-0.212108	-0.222612	-0.657217
35479	5.577183	0.460414	4.741638	0.689026	-0.206072	-0.215242	-0.660642
35480	5.369596	0.222571	4.705082	0.690311	-0.199339	-0.207725	-0.663766
35481	5.062791	0.531485	5.270234	0.691899	-0.191868	-0.199675	-0.666777
35482	4.663445	0.700918	5.739885	0.693532	-0.183931	-0.190368	-0.670031
35483	4.229366	0.319252	5.970875	0.695080	-0.175769	-0.180205	-0.673421
35484	3.758484	0.027949	6.065178	0.696647	-0.166932	-0.169956	-0.676706
35485	3.656622	-0.072575	6.041851	0.698178	-0.157535	-0.159534	-0.679912
35486	3.422119	-0.267162	6.243717	0.699775	-0.147339	-0.148878	-0.682965
35487	3.074193	-0.053605	6.627723	0.701553	-0.135425	-0.138365	-0.685812
35488	2.191649	0.368352	7.103065	0.703205	-0.122896	-0.127366	-0.688605
35489	1.421618	0.368153	7.296129	0.704573	-0.110384	-0.115623	-0.691393
35490	1.024044	-0.181332	7.458929	0.705946	-0.097807	-0.103674	-0.693776
35491	1.157259	0.097121	7.809772	0.707390	-0.084023	-0.091653	-0.695801
35492	0.837800	0.472966	8.208085	0.708611	-0.069368	-0.079539	-0.697662
35493	-0.113282	0.448127	8.740078	0.709622	-0.054602	-0.067415	-0.699221
35494	-0.780962	0.648728	8.788595	0.710475	-0.040370	-0.055121	-0.700398
35495	-0.972862	0.741746	9.206056	0.711111	-0.027072	-0.042165	-0.701292
35496	-1.563192	0.986887	8.608370	0.711434	-0.014283	-0.028646	-0.702024
35497	-1.670871	0.063035	8.239324	0.712008	-0.002505	-0.014575	-0.702015
35498	-2.177411	-0.073004	8.860877	0.712744	0.010745	-0.001179	-0.701341
35499	-2.748950	0.553885	9.560097	0.713371	0.024400	0.011987	-0.700259
35500	-2.515153	0.654006	9.035867	0.713754	0.037405	0.025446	-0.698934
35501	-3.041050	0.109324	8.401264	0.714123	0.050016	0.038739	-0.697156
35502	-3.760058	-0.364736	8.288605	0.714584	0.063518	0.051030	-0.694788
35503	-4.370659	-0.360717	9.199555	0.715020	0.077451	0.062534	-0.691981
35504	-3.947824	0.289152	9.326714	0.715366	0.090342	0.074198	-0.688900
35505	-3.635332	0.817269	9.154471	0.715358	0.101783	0.087325	-0.685768
35506	-4.552698	0.351504	8.773735	0.714681	0.112261	0.101928	-0.682817
35507	-5.830136	-1.111166	9.470731	0.713140	0.123442	0.117105	-0.680059
35508	-5.826715	-1.096374	9.920524	0.710520	0.136820	0.130480	-0.677802
35509	-5.200717	-0.457910	9.923113	0.707382	0.151102	0.142161	-0.675699
35510	-5.671071	-0.064163	9.012198	0.704377	0.164369	0.153420	-0.673274
35511	-7.037634	-1.088659	8.941706	0.701499	0.177528	0.164256	-0.670375
35512	-8.511348	-0.103858	10.184043	0.697828	0.191440	0.174203	-0.667862
35513	-7.315109	0.573940	10.444108	0.694116	0.203131	0.184882	-0.665401
35514	-6.203896	0.723238	9.715583	0.690331	0.213754	0.196205	-0.662764
35515	-6.867308	-0.052721	8.634622	0.686595	0.223853	0.207480	-0.659870
35516	-7.941387	-0.527564	7.453181	0.682092	0.236087	0.216510	-0.657371
35517	-9.342266	-0.532597	7.589628	0.677035	0.250590	0.223170	-0.654999
35518	-8.933558	1.238624	9.052299	0.671708	0.265515	0.228903	-0.652620
35519	-8.035746	3.268027	9.726797	0.667316	0.276455	0.237468	-0.649516
35520	-8.004868	1.925507	8.839866	0.664960	0.281860	0.249701	-0.645007
35521	-8.044758	-0.099054	7.404534	0.663066	0.286044	0.262324	-0.640085
35522	-8.803758	-1.244746	5.958881	0.659825	0.293455	0.272192	-0.635946
35523	-10.145676	-0.562617	6.107096	0.655101	0.304733	0.278368	-0.632845
35524	-9.724234	1.003016	6.558667	0.649419	0.318026	0.282563	-0.630295
35525	-9.196971	1.968105	6.407384	0.644512	0.329606	0.288050	-0.626890
35526	-9.432956	1.146339	6.002812	0.640760	0.338940	0.294831	-0.622592
35527	-9.262386	0.071975	5.309528	0.637219	0.348260	0.301051	-0.618090
35528	-9.122942	0.296634	5.465777	0.633105	0.359001	0.305711	-0.613871
35529	-8.780604	1.324236	5.771238	0.627912	0.370882	0.309334	-0.610316
35530	-9.174044	2.443151	5.884914	0.623059	0.380943	0.314638	-0.606368
35531	-9.021240	2.242795	5.970080	0.618551	0.389029	0.322202	-0.601862
35532	-9.181876	1.705259	5.822318	0.614587	0.395625	0.331472	-0.596565
35533	-9.823343	0.297875	5.612955	0.610501	0.402223	0.340673	-0.591140
35534	-9.671707	0.697143	6.281981	0.605512	0.409978	0.348055	-0.586626
35535	-9.588763	2.576948	7.393567	0.600962	0.416884	0.355401	-0.582015
35536	-10.034801	2.136463	7.956889	0.598677	0.420015	0.364696	-0.576342
35537	-9.773837	0.443244	8.010030	0.597228	0.421382	0.374086	-0.570803
35538	-9.684966	0.020657	8.183362	0.595783	0.422526	0.382096	-0.566142
35539	-9.851522	0.307362	8.364892	0.594461	0.423508	0.388708	-0.562283
35540	-9.977041	0.513869	8.168080	0.593751	0.423845	0.393986	-0.559098
35541	-9.789115	1.142441	7.691048	0.594341	0.422898	0.398439	-0.556024
35542	-9.465994	1.796150	7.139856	0.597076	0.419747	0.403031	-0.552158
35543	-9.282946	2.506206	6.506915	0.602740	0.413149	0.409099	-0.546490
35544	-9.238509	2.649913	5.651880	0.611859	0.401985	0.417654	-0.538147
35545	-9.104151	2.131456	4.626120	0.623641	0.386568	0.428683	-0.527132
35546	-9.450909	0.535174	3.217072	0.636812	0.368263	0.440946	-0.514217
35547	-9.195186	-2.817665	1.892790	0.648626	0.351932	0.450425	-0.502540
35548	-8.287765	-3.174858	1.424168	0.655786	0.343872	0.454383	-0.495210
35549	-8.452534	-0.461828	1.853035	0.659496	0.341967	0.455648	-0.490418
35550	-9.170861	1.544458	2.213020	0.662070	0.340947	0.457863	-0.485572
35551	-10.020070	1.706034	1.974370	0.664931	0.337160	0.462749	-0.479639
35552	-10.288851	-0.599267	1.287108	0.668065	0.330917	0.468336	-0.474177
35553	-9.090759	-2.105558	0.613425	0.668691	0.328726	0.471425	-0.471752
35554	-8.877822	-0.253895	0.650977	0.667148	0.330913	0.473058	-0.470772
35555	-9.056970	0.603670	1.399605	0.665971	0.333228	0.475010	-0.468837
35556	-9.131817	0.243899	2.090814	0.665194	0.334829	0.477470	-0.466293
35557	-9.030375	-0.764195	2.140392	0.664757	0.335682	0.480039	-0.463657
35558	-8.884580	-1.305420	2.157540	0.663565	0.338050	0.481915	-0.461694
35559	-8.910935	-0.476445	2.512451	0.661497	0.342176	0.483194	-0.460284
35560	-9.186675	0.658327	2.941580	0.659744	0.345507	0.485236	-0.458158
35561	-9.451842	0.417405	3.128175	0.658951	0.346526	0.488688	-0.454849
35562	-9.522709	-0.775526	2.912033	0.657980	0.347042	0.492379	-0.451871
35563	-9.464430	-0.874374	2.748807	0.655942	0.348877	0.495342	-0.450178
35564	-9.637342	-0.230470	2.905575	0.653375	0.351473	0.497978	-0.448983
35565	-9.686176	0.025183	3.184987	0.650971	0.353836	0.500696	-0.447594
35566	-9.787276	0.175426	3.323562	0.649011	0.355430	0.503762	-0.445733
35567	-10.134635	0.040623	3.427888	0.647861	0.355821	0.507190	-0.443200
35568	-10.231748	-0.359876	3.426044	0.647298	0.355617	0.510427	-0.440461
35569	-10.115971	-0.423549	3.365470	0.646947	0.355520	0.513174	-0.437856
35570	-10.054569	-0.339033	3.399972	0.646828	0.355621	0.515365	-0.435369
35571	-9.918470	-0.129570	3.313070	0.647081	0.355715	0.517120	-0.432827
35572	-9.934628	-0.075628	3.175947	0.647904	0.355264	0.518685	-0.430086
35573	-9.874907	-0.570706	2.907045	0.649182	0.354391	0.519903	-0.427401
35574	-9.684952	-0.621868	2.787371	0.650189	0.354152	0.520391	-0.425469
35575	-9.639115	-0.151214	2.813711	0.651281	0.353994	0.520585	-0.423690
35576	-9.690837	0.033666	2.811763	0.652556	0.353514	0.520835	-0.421817
35577	-9.598168	0.165438	2.642760	0.654143	0.352310	0.521363	-0.419709
35578	-9.592138	0.106612	2.463486	0.656143	0.350202	0.522349	-0.417118
35579	-9.722030	-0.361138	2.140880	0.658340	0.347653	0.523412	-0.414446
35580	-9.750995	-0.371704	1.897488	0.660029	0.345593	0.524293	-0.412364
35581	-9.683397	0.151747	1.816368	0.661570	0.343185	0.525585	-0.410255
35582	-9.546155	0.112562	1.867763	0.663288	0.339982	0.527460	-0.407734
35583	-9.523701	-0.157459	1.782540	0.664953	0.336269	0.529927	-0.404892
35584	-9.541074	-0.765711	1.571937	0.666031	0.333042	0.532392	-0.402548
35585	-9.576506	-0.441572	1.488728	0.666065	0.330803	0.534826	-0.401108
35586	-9.593494	-0.203308	1.531266	0.665621	0.328763	0.537377	-0.400111
35587	-9.624594	-0.154079	1.593403	0.664881	0.326776	0.540066	-0.399349
35588	-9.553148	-0.324313	1.572124	0.663965	0.324846	0.542856	-0.398664
35589	-9.524393	-0.476956	1.500223	0.662663	0.323573	0.545449	-0.398325
35590	-9.528029	-0.255516	1.520970	0.661077	0.322780	0.547894	-0.398249
35591	-9.535784	-0.049784	1.619676	0.659506	0.321942	0.550380	-0.398104
35592	-9.531062	0.052487	1.698720	0.658124	0.320675	0.553029	-0.397744
35593	-9.434127	-0.164102	1.713991	0.656932	0.318959	0.555871	-0.397130
35594	-9.370418	-0.386344	1.658254	0.655660	0.317378	0.558638	-0.396617
35595	-9.373647	-0.499606	1.672059	0.653953	0.316455	0.561107	-0.396687
35596	-9.528266	-0.087139	1.880146	0.651850	0.316033	0.563402	-0.397231
35597	-9.718857	0.112887	2.043105	0.649816	0.315268	0.565834	-0.397715
35598	-9.778631	-0.120981	2.045198	0.647849	0.314332	0.568249	-0.398222
35599	-9.760376	-0.275857	1.963763	0.645828	0.313798	0.570285	-0.399013
35600	-9.755816	-0.137002	2.001185	0.643854	0.313873	0.571766	-0.400025
35601	-9.778004	0.060041	2.108858	0.642179	0.314083	0.572850	-0.401000
35602	-9.656727	0.127216	2.137032	0.640948	0.314166	0.573660	-0.401747
35603	-9.593030	0.047739	2.175588	0.640052	0.314325	0.574129	-0.402379
35604	-9.522573	0.133268	2.229964	0.639510	0.314581	0.574219	-0.402913
35605	-9.588794	0.078528	2.294838	0.639460	0.314845	0.573874	-0.403277
35606	-9.653502	0.089333	2.271526	0.639818	0.315220	0.573116	-0.403494
35607	-9.670331	-0.133954	2.124517	0.640505	0.315773	0.571943	-0.403636
35608	-9.686474	-0.254533	2.065714	0.641204	0.316930	0.570158	-0.404143
35609	-9.725455	-0.085244	2.099919	0.641865	0.318773	0.567749	-0.405036
35610	-9.675069	0.078281	2.119601	0.642693	0.320743	0.565074	-0.405908
35611	-9.635418	0.187857	2.196582	0.643652	0.322515	0.562445	-0.406634
35612	-9.591574	0.205900	2.182887	0.644858	0.323849	0.559976	-0.407071
35613	-9.602138	-0.059704	2.107415	0.646236	0.324951	0.557593	-0.407278
35614	-9.656693	-0.266349	1.954242	0.647450	0.326351	0.555015	-0.407751
35615	-9.688613	-0.132331	1.909158	0.648442	0.328100	0.552261	-0.408509
35616	-9.625604	0.013648	1.979415	0.649411	0.329873	0.549505	-0.409260
35617	-9.492418	0.050971	2.016737	0.650416	0.331484	0.546858	-0.409907
35618	-9.459397	0.143541	1.996815	0.651421	0.332776	0.544523	-0.410372
35619	-9.596070	0.166413	2.027766	0.652655	0.333430	0.542592	-0.410437
35620	-9.711431	-0.102482	1.954153	0.653997	0.333770	0.540819	-0.410366
35621	-9.781894	-0.239845	1.870367	0.655239	0.334229	0.538988	-0.410420
35622	-9.718543	-0.298929	1.858102	0.656217	0.335194	0.536962	-0.410725
35623	-9.638969	-0.105171	1.931071	0.656951	0.336577	0.534799	-0.411244
35624	-9.569637	0.049369	1.980419	0.657669	0.337922	0.532703	-0.411712
35625	-9.570606	0.059938	1.978910	0.658516	0.338919	0.530728	-0.412091
35626	-9.417199	-0.131397	1.902007	0.659224	0.339927	0.528799	-0.412608
35627	-9.480940	-0.039106	1.955331	0.659647	0.341323	0.526763	-0.413384
35628	-9.568175	-0.037210	2.047292	0.659942	0.342955	0.524584	-0.414330
35629	-9.707831	0.130621	2.107676	0.660080	0.344864	0.522329	-0.415374
35630	-9.751682	0.232724	2.148579	0.660303	0.346641	0.520141	-0.416286
35631	-9.666994	0.182571	2.106839	0.660647	0.348377	0.517914	-0.417066
35632	-9.480147	0.259696	2.117653	0.661216	0.350035	0.515599	-0.417643
35633	-9.451871	0.306089	2.169432	0.662005	0.351550	0.513314	-0.417937
35634	-9.469084	0.450908	2.201507	0.663007	0.352773	0.511201	-0.417907
35635	-9.533125	0.519364	2.175037	0.664369	0.353362	0.509423	-0.417417
35636	-9.488868	0.274589	2.111251	0.665848	0.353471	0.508044	-0.416649
35637	-9.510617	0.333700	2.132613	0.667101	0.353550	0.506947	-0.415912
35638	-9.496348	0.504528	2.167957	0.668353	0.353216	0.506356	-0.414905
35639	-9.536759	0.505040	2.127442	0.669651	0.352215	0.506394	-0.413614
35640	-9.538806	0.404606	1.987685	0.670963	0.350710	0.506930	-0.412108
35641	-9.526574	0.161842	1.888235	0.672203	0.349021	0.507660	-0.410620
35642	-9.503216	0.027185	1.875129	0.673259	0.347591	0.508294	-0.409316
35643	-9.492155	0.146784	1.889843	0.674102	0.346565	0.508750	-0.408230
35644	-9.554677	0.327973	1.911933	0.674928	0.345657	0.509147	-0.407140
35645	-9.617391	0.385248	1.891468	0.675704	0.344774	0.509604	-0.406028
35646	-9.638874	0.533210	1.917929	0.676458	0.343769	0.510217	-0.404854
35647	-9.717815	0.477417	1.901110	0.677274	0.342596	0.510940	-0.403570
35648	-9.678160	0.539106	1.855948	0.678035	0.341474	0.511699	-0.402277
35649	-9.724162	0.608609	1.878678	0.678904	0.340230	0.512529	-0.400807
35650	-9.729453	0.549979	1.872382	0.679892	0.338964	0.513272	-0.399252
35651	-9.720093	0.533611	1.888701	0.681016	0.337770	0.513763	-0.397713
35652	-9.690817	0.537405	1.905752	0.682162	0.336819	0.513926	-0.396345
35653	-9.636955	0.524148	1.894919	0.683319	0.336013	0.513825	-0.395163
35654	-9.600960	0.537670	1.905384	0.684404	0.335511	0.513395	-0.394270
35655	-9.686047	0.896941	1.965366	0.685534	0.334952	0.512937	-0.393377
35656	-9.780657	0.998594	1.996828	0.687000	0.333557	0.512798	-0.392184
35657	-9.700537	0.796121	1.940007	0.688839	0.331313	0.512988	-0.390610
35658	-9.647617	0.570134	1.816258	0.690957	0.328531	0.513343	-0.388747
35659	-9.657334	0.118472	1.628400	0.692997	0.325853	0.513472	-0.387198
35660	-9.773046	0.332234	1.563741	0.694673	0.323643	0.513285	-0.386294
35661	-9.945432	0.577672	1.647727	0.696243	0.321114	0.513201	-0.385688
35662	-10.120987	0.408468	1.636860	0.697795	0.317945	0.513331	-0.385337
35663	-10.135899	0.151985	1.574074	0.699339	0.314399	0.513494	-0.385230
35664	-10.224295	-0.277526	1.461265	0.700647	0.311050	0.513494	-0.385570
35665	-10.424863	-0.630041	1.355775	0.701426	0.308474	0.513037	-0.386831
35666	-10.475090	-0.595291	1.378657	0.701771	0.306665	0.511971	-0.389050
35667	-10.310620	-0.452379	1.362430	0.701703	0.305438	0.510602	-0.391928
35668	-10.410931	-0.346776	1.437416	0.701413	0.304379	0.509158	-0.395135
35669	-10.427294	-0.275507	1.579507	0.701207	0.303013	0.507799	-0.398286
35670	-10.156362	-0.254608	1.714494	0.701179	0.301266	0.506624	-0.401147
35671	-9.885794	-0.284814	1.821582	0.701217	0.299338	0.505727	-0.403649
35672	-9.809843	-0.365954	1.932527	0.700945	0.297490	0.505378	-0.405916
35673	-9.830263	-0.677811	2.121489	0.700399	0.295806	0.505122	-0.408401
35674	-9.263028	-1.140845	2.111989	0.699390	0.295189	0.504190	-0.411716
35675	-8.681622	-1.207620	2.221548	0.697613	0.296412	0.502355	-0.416072
35676	-8.475282	-0.818371	2.415273	0.695456	0.298717	0.500008	-0.420834
35677	-8.460106	-0.623757	2.722083	0.693321	0.301366	0.497429	-0.425499
35678	-8.617398	-0.543198	2.940674	0.691292	0.304220	0.494761	-0.429858
35679	-8.845568	-0.475906	3.128081	0.689462	0.306984	0.492210	-0.433743
35680	-8.802368	-0.404181	3.371847	0.687655	0.309758	0.489876	-0.437266
35681	-8.720910	-0.076834	3.514710	0.685774	0.312482	0.488002	-0.440367
35682	-8.822937	0.100495	3.654915	0.683840	0.314703	0.486889	-0.443017
35683	-8.767463	-0.189376	3.643698	0.681682	0.316505	0.486335	-0.445660
35684	-8.449549	-0.343174	3.639422	0.678921	0.318614	0.485969	-0.448760
35685	-8.051769	-0.244336	3.767149	0.675428	0.321336	0.485720	-0.452346
35686	-7.957912	-0.000779	3.942526	0.671302	0.324508	0.485672	-0.456258
35687	-8.153980	0.314207	3.921194	0.666806	0.327673	0.485974	-0.460250
35688	-8.479854	0.385482	3.767034	0.662181	0.330365	0.486796	-0.464117
35689	-8.663965	0.139940	3.575285	0.657452	0.332821	0.487909	-0.467902
35690	-8.804543	-0.006503	3.454777	0.652388	0.335740	0.488930	-0.471823
35691	-8.950229	0.090087	3.394721	0.647144	0.339165	0.489708	-0.475770
35692	-8.973604	0.271960	3.419333	0.642084	0.342657	0.490353	-0.479445
35693	-8.939378	0.414407	3.400659	0.637360	0.346015	0.490972	-0.482693
35694	-9.102860	0.521863	3.325598	0.632941	0.349295	0.491666	-0.485430
35695	-9.308622	0.427506	3.263572	0.628764	0.352541	0.492385	-0.487778
35696	-9.337807	0.389891	3.268571	0.624671	0.356062	0.492898	-0.489956
35697	-9.305237	0.499569	3.292258	0.620598	0.359910	0.493227	-0.491986
35698	-9.129253	0.691392	3.331847	0.616869	0.363588	0.493540	-0.493654
35699	-8.910557	0.875232	3.386455	0.613623	0.366808	0.494047	-0.494809
35700	-8.951127	0.838903	3.392776	0.611072	0.369309	0.494756	-0.495397
35701	-9.092460	0.578705	3.310997	0.609003	0.371474	0.495368	-0.495715
35702	-9.150295	0.395568	3.216131	0.607303	0.373616	0.495666	-0.495893
35703	-9.092768	0.296115	3.230026	0.605841	0.376066	0.495415	-0.496079
35704	-9.207544	0.291110	3.233450	0.604485	0.378965	0.494639	-0.496302
35705	-9.283708	0.449823	3.235059	0.603444	0.381825	0.493477	-0.496534
35706	-9.335546	0.702895	3.249859	0.602877	0.384265	0.492278	-0.496531
35707	-9.452520	0.825559	3.270294	0.602927	0.385906	0.491487	-0.495981
35708	-9.675209	0.756024	3.366908	0.603482	0.386731	0.491285	-0.494862
35709	-9.683484	0.551775	3.382301	0.604387	0.386909	0.491584	-0.493318
35710	-9.612808	0.286118	3.323972	0.605458	0.386802	0.492048	-0.491623
35711	-9.781487	0.182667	3.282466	0.606376	0.386875	0.492342	-0.490138
35712	-10.192690	0.372574	3.169463	0.607297	0.386746	0.492589	-0.488851
35713	-10.356937	0.386658	3.109984	0.608543	0.385925	0.493001	-0.487531
35714	-10.346564	0.243711	3.001379	0.610101	0.384623	0.493472	-0.486135
35715	-10.435518	0.095348	2.954223	0.611791	0.383164	0.493822	-0.484807
35716	-10.437115	0.128601	2.865328	0.613635	0.381675	0.493978	-0.483488
35717	-10.342504	0.016592	2.756821	0.615702	0.380193	0.493874	-0.482134
35718	-10.207044	0.019214	2.655462	0.617761	0.379046	0.493318	-0.480970
35719	-9.954619	-0.000179	2.627268	0.619954	0.378086	0.492284	-0.479963
35720	-9.757102	0.120932	2.656415	0.622218	0.377376	0.490825	-0.479086
35721	-9.599407	0.275308	2.758979	0.624671	0.376656	0.489114	-0.478208
35722	-9.378100	0.322261	2.832394	0.627239	0.375924	0.487346	-0.477228
35723	-9.293779	0.343722	2.896912	0.629693	0.375337	0.485651	-0.476185
35724	-9.160503	0.436927	2.988421	0.631917	0.374887	0.484082	-0.475189
35725	-9.007154	0.575036	3.060823	0.634066	0.374313	0.482728	-0.474155
35726	-8.813029	0.721196	3.147218	0.636201	0.373407	0.481769	-0.472983
35727	-8.904170	0.788179	3.026950	0.638548	0.371955	0.481226	-0.471516
35728	-9.027793	0.530211	2.863947	0.641080	0.370177	0.480839	-0.469871
35729	-9.454280	0.246183	2.766508	0.643526	0.368688	0.480245	-0.468303
35730	-9.676323	0.007528	2.698391	0.645718	0.367882	0.479067	-0.467124
35731	-9.500103	-0.054101	2.734079	0.647535	0.368208	0.477092	-0.466374
35732	-8.971779	0.456071	2.953480	0.649389	0.368959	0.474774	-0.465567
35733	-8.627150	0.853022	3.178508	0.651713	0.369306	0.472737	-0.464116
35734	-8.810906	1.067701	3.227377	0.654692	0.368703	0.471425	-0.461730
35735	-9.299383	0.682552	3.152366	0.658192	0.367124	0.470850	-0.458589
35736	-9.438999	0.150451	3.092345	0.661479	0.365605	0.470371	-0.455554
35737	-9.018995	-0.156296	3.062029	0.664091	0.365002	0.469502	-0.453127
35738	-8.397085	0.150474	3.176077	0.666068	0.365336	0.468248	-0.451250
35739	-8.464621	0.873257	3.285709	0.668012	0.365458	0.467398	-0.449154
35740	-9.151261	1.012991	3.293926	0.670511	0.364136	0.467607	-0.446278
35741	-9.693118	0.252883	3.241373	0.673175	0.361911	0.468553	-0.443074
35742	-9.667699	-0.442418	3.166442	0.675241	0.360227	0.469477	-0.440315
35743	-9.103429	-0.578253	3.115312	0.676376	0.360042	0.469859	-0.438313
35744	-8.600391	-0.008754	3.227148	0.677083	0.360608	0.469943	-0.436662
35745	-8.401516	0.601552	3.253457	0.678200	0.360353	0.470517	-0.434516
35746	-8.850792	0.370123	3.168805	0.679939	0.358725	0.471949	-0.431583
35747	-9.137986	-0.534495	3.057929	0.681609	0.356843	0.473549	-0.428747
35748	-8.943903	-0.936295	2.936544	0.682285	0.356353	0.474735	-0.426762
35749	-8.824309	-0.554032	3.036991	0.681959	0.357395	0.475490	-0.425569
35750	-8.651269	0.123189	3.117170	0.681442	0.358515	0.476454	-0.424377
35751	-8.683444	0.341326	3.087441	0.681509	0.358151	0.478346	-0.422443
35752	-8.746485	0.012569	3.002119	0.682261	0.356262	0.481015	-0.419788
35753	-8.816807	-0.685494	2.792645	0.683224	0.354007	0.483857	-0.416854
35754	-8.852158	-1.035450	2.602711	0.683704	0.352708	0.486211	-0.414421
35755	-8.839111	-0.779443	2.554825	0.683662	0.352204	0.488207	-0.412568
35756	-9.044726	-0.409142	2.609143	0.683382	0.351719	0.490234	-0.411039
35757	-9.341278	-0.016891	2.576199	0.683201	0.350438	0.492679	-0.409508
35758	-9.914206	0.071479	2.369010	0.683306	0.347931	0.495782	-0.407721
35759	-10.352050	-0.204389	2.132997	0.683604	0.344443	0.499245	-0.405954
35760	-10.489963	-0.470382	1.946892	0.683620	0.340768	0.502835	-0.404596
35761	-10.493733	-0.630729	1.828723	0.683080	0.337533	0.506210	-0.404010
35762	-10.403921	-0.523200	1.776533	0.681907	0.335029	0.509118	-0.404422
35763	-10.145596	-0.225590	1.716054	0.680356	0.332958	0.511629	-0.405574
35764	-9.946617	-0.005565	1.661791	0.678549	0.331129	0.513815	-0.407332
35765	-9.807808	0.160382	1.669936	0.676585	0.329329	0.515865	-0.409461
35766	-9.905258	0.390998	1.697018	0.674361	0.327685	0.517883	-0.411894
35767	-9.978172	0.602664	1.677030	0.671903	0.326099	0.520024	-0.414464
35768	-10.045255	0.705042	1.682562	0.669225	0.324521	0.522408	-0.417030
35769	-10.186398	0.835365	1.667709	0.666312	0.322921	0.525032	-0.419633
35770	-10.254388	0.948433	1.689552	0.663264	0.321207	0.527930	-0.422132
35771	-10.226960	1.010166	1.811750	0.660280	0.319117	0.531204	-0.424285
35772	-10.124865	0.764979	1.890653	0.657537	0.316754	0.534668	-0.425962
35773	-9.916043	0.305944	1.834924	0.654935	0.314812	0.537831	-0.427425
35774	-9.675811	0.103511	1.906795	0.652481	0.313724	0.540311	-0.428847
35775	-9.367952	0.071015	2.073222	0.650450	0.313382	0.541976	-0.430080
35776	-9.203869	0.209663	2.186189	0.648918	0.313620	0.542886	-0.431071
35777	-9.323568	0.329786	2.230227	0.648097	0.313963	0.543225	-0.431629
35778	-9.410869	0.173515	2.310064	0.647945	0.314237	0.543186	-0.431708
35779	-9.401454	-0.112081	2.426546	0.647961	0.315032	0.542640	-0.431790
35780	-9.214173	-0.161191	2.507664	0.647831	0.316714	0.541479	-0.432212
35781	-8.889272	0.104418	2.615422	0.647475	0.319140	0.540033	-0.432771
35782	-8.716798	0.410069	2.788689	0.647231	0.321448	0.538783	-0.432985
35783	-8.660051	0.496930	2.960785	0.647320	0.323070	0.538013	-0.432603
35784	-8.578433	0.416412	2.979298	0.647894	0.323877	0.537751	-0.431463
35785	-8.493674	0.153916	3.014995	0.648913	0.324075	0.537915	-0.429575
35786	-8.334360	-0.033268	2.942503	0.650252	0.324045	0.538280	-0.427109
35787	-8.399020	-0.257234	2.829016	0.651885	0.323940	0.538634	-0.424243
35788	-8.513805	-0.389989	2.729041	0.653801	0.323938	0.538771	-0.421112
35789	-8.648809	-0.426351	2.690596	0.655988	0.324252	0.538615	-0.417654
35790	-8.796747	-0.418808	2.609854	0.658500	0.324830	0.538196	-0.413772
35791	-9.185397	-0.487424	2.560470	0.661387	0.325693	0.537530	-0.409333
35792	-9.658529	-0.512730	2.604023	0.664600	0.326874	0.536630	-0.404338
35793	-9.954704	-0.345955	2.642674	0.668304	0.328159	0.535488	-0.398666
35794	-10.018824	-0.104242	2.604426	0.672535	0.329301	0.534296	-0.392155
35795	-10.110921	0.174203	2.582514	0.677296	0.330038	0.533305	-0.384618
35796	-10.373673	0.511686	2.591068	0.682479	0.330182	0.532649	-0.376148
35797	-10.900975	0.726246	2.509213	0.688008	0.329530	0.532427	-0.366846
35798	-11.480678	0.740139	2.376495	0.693460	0.328465	0.532655	-0.357076
35799	-11.979740	0.938532	2.280128	0.698460	0.327264	0.533286	-0.347359
35800	-11.842199	0.965569	2.130282	0.703182	0.325550	0.534344	-0.337681
35801	-10.908281	0.658676	2.071581	0.707552	0.323721	0.535395	-0.328522
35802	-9.813158	0.892668	2.153588	0.711328	0.322462	0.536373	-0.319897
35803	-9.233036	1.414586	2.358218	0.714891	0.321032	0.537598	-0.311220
35804	-9.157370	1.780937	2.394717	0.718531	0.318676	0.539279	-0.302220
35805	-9.376629	1.999245	2.207963	0.722463	0.314772	0.541507	-0.292807
35806	-9.729324	1.863352	1.840085	0.726588	0.309422	0.544103	-0.283336
35807	-9.970701	1.447215	1.584944	0.730623	0.303438	0.546609	-0.274470
35808	-9.791184	1.045845	1.388209	0.734035	0.298113	0.548705	-0.266917
35809	-9.450880	0.933619	1.318431	0.736427	0.294520	0.550278	-0.261011
35810	-9.237108	1.094096	1.392782	0.737833	0.292875	0.551275	-0.256753
35811	-9.069276	1.771141	1.373846	0.738702	0.292263	0.551910	-0.253570
35812	-8.938978	2.219594	1.350897	0.739797	0.291000	0.552535	-0.250449
35813	-8.883082	2.259997	1.246995	0.741142	0.288859	0.553370	-0.247084
35814	-9.003145	2.087138	1.235411	0.742542	0.286170	0.554407	-0.243662
35815	-9.249815	1.969514	1.218770	0.743696	0.283504	0.555593	-0.240536
35816	-9.409624	1.902173	1.109086	0.744521	0.281063	0.556864	-0.237898
35817	-9.315700	1.625478	0.958421	0.745092	0.278977	0.558051	-0.235771
35818	-9.126116	1.472543	0.933232	0.745210	0.277952	0.558930	-0.234524
35819	-9.016111	1.704144	1.062373	0.745101	0.277607	0.559568	-0.233757
35820	-8.913546	1.882740	1.188928	0.744992	0.277394	0.560104	-0.233074
35821	-8.790632	1.897275	1.234373	0.745097	0.276907	0.560587	-0.232155
35822	-8.699000	1.808345	1.186102	0.745427	0.276282	0.560938	-0.230990
35823	-8.655027	1.690763	1.187074	0.745777	0.275858	0.561161	-0.229820
35824	-8.707729	1.579818	1.226596	0.746042	0.275918	0.561150	-0.228911
35825	-8.786586	1.566701	1.272470	0.745955	0.276900	0.560886	-0.228657
35826	-9.006445	1.859100	1.352398	0.745521	0.278543	0.560505	-0.229012
35827	-9.198118	2.113904	1.441096	0.744907	0.280258	0.560178	-0.229718
35828	-9.420278	2.159876	1.525361	0.744301	0.281723	0.559933	-0.230485
35829	-9.607321	2.109657	1.527829	0.743667	0.282931	0.559841	-0.231274
35830	-9.690824	1.920110	1.485805	0.742961	0.284117	0.559819	-0.232140
35831	-9.718980	1.693143	1.475741	0.742083	0.285678	0.559749	-0.233199
35832	-9.760284	1.539536	1.544833	0.740990	0.287871	0.559487	-0.234604
35833	-9.693854	1.620246	1.659310	0.739666	0.290791	0.558996	-0.236343
35834	-9.628070	1.781617	1.819752	0.738282	0.293944	0.558447	-0.238060
35835	-9.494945	1.996899	1.995194	0.736964	0.296916	0.558025	-0.239442
35836	-9.400681	2.175143	2.177999	0.735901	0.299111	0.557975	-0.240095
35837	-9.316853	2.300268	2.283114	0.735202	0.300207	0.558431	-0.239809
35838	-9.386486	2.246738	2.357456	0.734953	0.299975	0.559449	-0.238485
35839	-9.775518	1.945695	2.258947	0.735091	0.298690	0.560834	-0.236413
35840	-10.331860	1.555894	2.085528	0.735188	0.297209	0.562349	-0.234370
35841	-10.832593	1.397232	1.955628	0.735018	0.296067	0.563833	-0.232776
35842	-10.987158	1.189065	1.974405	0.734490	0.295499	0.565172	-0.231915
35843	-10.843763	1.201178	1.985619	0.733666	0.295699	0.566152	-0.231880
35844	-10.628508	1.469521	1.998819	0.732917	0.296043	0.566844	-0.232119
35845	-10.232795	1.428828	2.064876	0.732537	0.295974	0.567339	-0.232198
35846	-9.809836	1.159032	2.187026	0.732397	0.295849	0.567630	-0.232086
35847	-9.546757	1.104807	2.316250	0.732087	0.296373	0.567698	-0.232231
35848	-9.614074	1.462203	2.376892	0.731705	0.297129	0.567611	-0.232680
35849	-9.615947	1.679669	2.292658	0.731669	0.297209	0.567446	-0.233092
35850	-9.377977	1.453257	2.056607	0.732092	0.296399	0.567195	-0.233407
35851	-8.999098	1.048677	1.831603	0.732657	0.295644	0.566681	-0.233842
35852	-8.836386	0.966791	1.747651	0.732965	0.295783	0.565857	-0.234694
35853	-9.183958	1.330807	1.776685	0.733068	0.296510	0.564837	-0.235906
35854	-9.619717	1.608172	1.623445	0.733284	0.296966	0.563770	-0.237212
35855	-9.663195	1.400052	1.434753	0.733717	0.296909	0.562725	-0.238421
35856	-9.327644	1.114544	1.242676	0.733977	0.297175	0.561611	-0.239913
35857	-8.830822	0.964630	1.227459	0.733861	0.298336	0.560325	-0.241828
35858	-8.917860	1.354091	1.308935	0.733183	0.300643	0.558896	-0.244319
35859	-9.270824	1.980054	1.368128	0.732328	0.302872	0.557636	-0.246993
35860	-9.321141	2.107419	1.298782	0.731674	0.304112	0.556736	-0.249428
35861	-8.858068	1.714966	1.119474	0.731052	0.304943	0.556083	-0.251681
35862	-8.296851	1.471463	1.116490	0.730162	0.306326	0.555443	-0.253988
35863	-8.527608	2.000923	1.246000	0.728940	0.308452	0.554767	-0.256395
35864	-9.237555	2.629667	1.305704	0.727984	0.309944	0.554232	-0.258461
35865	-9.923092	2.590147	1.148159	0.727558	0.310055	0.553990	-0.260038
35866	-10.126404	2.099004	0.935292	0.727063	0.309992	0.553852	-0.261786
35867	-9.502918	1.478796	0.812804	0.726088	0.311134	0.553353	-0.264184
35868	-8.776870	1.442946	1.029664	0.724310	0.314410	0.552193	-0.267589
35869	-8.735415	2.269759	1.356364	0.721966	0.318940	0.550740	-0.271529
35870	-9.100004	2.951865	1.550145	0.720086	0.322367	0.549481	-0.275004
35871	-9.333824	2.963358	1.526710	0.719072	0.323804	0.548666	-0.277584
35872	-9.331989	2.368023	1.365289	0.718477	0.324187	0.548152	-0.279683
35873	-9.315654	1.791457	1.365216	0.717615	0.324881	0.547614	-0.282133
35874	-9.330962	1.715223	1.456877	0.716054	0.326760	0.546805	-0.285480
35875	-9.512898	2.285367	1.585523	0.713837	0.329440	0.545938	-0.289581
35876	-9.635234	2.738091	1.644298	0.711651	0.331403	0.545429	-0.293654
35877	-9.639594	2.591094	1.666941	0.709860	0.332066	0.545366	-0.297332
35878	-9.526884	2.214815	1.677733	0.708303	0.332041	0.545531	-0.300752
35879	-9.260234	1.831232	1.650134	0.706699	0.332225	0.545575	-0.304222
35880	-8.985484	1.860280	1.770778	0.704892	0.332997	0.545448	-0.307777
35881	-8.736463	2.160508	1.871563	0.703041	0.333993	0.545252	-0.311260
35882	-8.763251	2.677521	1.987894	0.701533	0.334283	0.545341	-0.314182
35883	-9.061124	2.858848	2.109515	0.700758	0.332873	0.546000	-0.316257
35884	-9.775116	2.762184	2.102220	0.700551	0.329791	0.547276	-0.317736
35885	-10.497866	2.310647	1.977232	0.700723	0.325395	0.548957	-0.318986
35886	-10.741201	1.656861	1.741920	0.701052	0.320557	0.550504	-0.320491
35887	-10.646634	1.028818	1.484633	0.701118	0.316508	0.551397	-0.322828
35888	-10.380411	0.696639	1.335901	0.700698	0.314212	0.551232	-0.326246
35889	-10.028289	0.797048	1.375452	0.699931	0.313722	0.549975	-0.330459
35890	-10.080351	1.270908	1.469772	0.698994	0.314560	0.547890	-0.335075
35891	-10.220997	1.676022	1.564573	0.698467	0.315277	0.545539	-0.339310
35892	-10.234399	1.720704	1.688785	0.698467	0.315304	0.543323	-0.342823
35893	-10.252559	1.531467	1.730966	0.698677	0.314912	0.541460	-0.345691
35894	-10.190282	1.124279	1.809604	0.698868	0.314497	0.539863	-0.348171
35895	-9.963052	1.006036	1.961328	0.698943	0.314407	0.538315	-0.350492
35896	-9.997001	1.160767	2.110996	0.698912	0.314322	0.536986	-0.352661
35897	-10.494762	1.382296	2.209681	0.698899	0.313710	0.536212	-0.354405
35898	-11.294600	1.167152	2.223881	0.698984	0.312212	0.536192	-0.355588
35899	-11.334147	0.427697	2.168361	0.698936	0.310509	0.536501	-0.356706
35900	-10.481666	-0.220445	2.245059	0.698416	0.309881	0.536576	-0.358154
35901	-9.510528	-0.136163	2.522398	0.697549	0.310598	0.536199	-0.359784
35902	-8.922295	0.306361	2.853455	0.697006	0.311440	0.535725	-0.360813
35903	-8.957894	0.654050	3.149752	0.697617	0.310760	0.535605	-0.360396
35904	-9.169198	0.432096	3.211323	0.699654	0.307884	0.535974	-0.358363
35905	-9.635610	-0.274590	3.159016	0.702537	0.303620	0.536594	-0.355421
35906	-9.912155	-0.988025	3.007823	0.705471	0.299423	0.537006	-0.352534
35907	-10.115914	-1.422803	2.931800	0.707824	0.296473	0.536885	-0.350491
35908	-9.998171	-1.447595	3.085822	0.709478	0.295055	0.536096	-0.349549
35909	-9.773650	-1.047374	3.298144	0.710786	0.294416	0.534804	-0.349409
35910	-9.460355	-0.762063	3.564805	0.712330	0.293296	0.533460	-0.349262
35911	-9.070216	-0.736750	3.734741	0.714229	0.291174	0.532322	-0.348894
35912	-8.762624	-0.905787	3.751716	0.716271	0.288221	0.531504	-0.348408
35913	-8.530725	-1.125731	3.724450	0.718071	0.285202	0.530902	-0.348105
35914	-8.493850	-1.087779	3.695069	0.719441	0.282552	0.530343	-0.348289
35915	-8.522720	-0.854572	3.707981	0.720368	0.280142	0.529952	-0.348914
35916	-8.505312	-0.580771	3.693284	0.721010	0.277588	0.529839	-0.349799
35917	-8.507971	-0.479882	3.613053	0.721437	0.274792	0.529963	-0.350937
35918	-8.503355	-0.383374	3.554659	0.721601	0.271844	0.530291	-0.352398
35919	-8.638545	-0.250632	3.517054	0.721432	0.268839	0.530803	-0.354272
35920	-8.850530	-0.094653	3.430244	0.720928	0.265924	0.531446	-0.356527
35921	-9.053413	-0.152727	3.261841	0.720087	0.263295	0.532055	-0.359260
35922	-9.315321	-0.097956	3.101756	0.718919	0.261249	0.532388	-0.362583
35923	-9.485740	-0.029724	3.003858	0.717635	0.259692	0.532429	-0.366168
35924	-9.486401	0.018913	2.886957	0.716366	0.258549	0.532127	-0.369882
35925	-9.472492	0.026355	2.856130	0.715234	0.257806	0.531480	-0.373505
35926	-9.303005	-0.116890	2.844287	0.714384	0.257328	0.530512	-0.376822
35927	-9.101281	-0.093725	2.863436	0.713743	0.257334	0.529178	-0.379896
35928	-9.106380	-0.084917	2.902348	0.713556	0.257499	0.527509	-0.382448
35929	-9.091576	-0.203439	2.805063	0.713897	0.257632	0.525534	-0.384435
35930	-9.069940	-0.340303	2.735220	0.714607	0.258006	0.523206	-0.386038
35931	-9.102839	-0.417624	2.731918	0.715579	0.258645	0.520561	-0.387383
35932	-8.998709	-0.485393	2.794179	0.716664	0.259738	0.517564	-0.388660
35933	-8.832060	-0.465171	2.833823	0.717794	0.261231	0.514313	-0.389888
35934	-8.652862	-0.316722	2.888940	0.718856	0.262968	0.511010	-0.391105
35935	-8.683290	-0.124118	3.016803	0.719852	0.264503	0.507999	-0.392158
35936	-8.748518	-0.107329	3.058228	0.720795	0.265596	0.505397	-0.393049
35937	-8.778487	-0.200197	3.071382	0.721539	0.266527	0.503159	-0.393924
35938	-8.818003	-0.170769	3.056431	0.722031	0.267447	0.501261	-0.394816
35939	-8.848236	-0.115125	3.070819	0.722293	0.268268	0.499754	-0.395690
35940	-8.930640	-0.084085	3.088763	0.722416	0.268910	0.498614	-0.396468
35941	-8.974360	-0.141005	3.072711	0.722440	0.269511	0.497679	-0.397190
35942	-9.058058	-0.187475	3.097994	0.722271	0.270292	0.496894	-0.397950
35943	-9.105996	-0.059929	3.130312	0.722033	0.271192	0.496163	-0.398680
35944	-9.074891	-0.002446	3.165492	0.721782	0.272046	0.495569	-0.399290
35945	-9.079430	0.072705	3.230156	0.721472	0.272904	0.495113	-0.399831
35946	-9.089332	0.127554	3.231398	0.721174	0.273617	0.494852	-0.400204
35947	-9.130486	0.106978	3.253044	0.720889	0.274331	0.494714	-0.400399
35948	-9.186284	0.216366	3.278769	0.720690	0.275114	0.494595	-0.400368
35949	-9.234413	0.354508	3.217591	0.720705	0.275855	0.494455	-0.400003
35950	-9.249995	0.498986	3.082933	0.720924	0.276618	0.494315	-0.399254
35951	-9.333425	0.597505	3.089613	0.721470	0.276921	0.494454	-0.397883
35952	-9.235130	0.328301	2.927623	0.722181	0.276629	0.495050	-0.396051
35953	-9.159174	0.099486	2.740516	0.722661	0.276566	0.495887	-0.394169
35954	-9.118263	0.030143	2.594013	0.722893	0.276916	0.496783	-0.392365
35955	-9.084339	0.077840	2.545408	0.722863	0.277836	0.497544	-0.390801
35956	-9.093996	0.109242	2.403747	0.722628	0.279135	0.498273	-0.389380
35957	-9.117694	0.380050	2.347729	0.722142	0.281221	0.498807	-0.388095
35958	-9.244438	0.521880	2.376213	0.721801	0.283376	0.499325	-0.386493
35959	-9.209012	0.423584	2.322549	0.721518	0.285692	0.499803	-0.384692
35960	-9.155678	0.326699	2.373571	0.721164	0.288394	0.500186	-0.382840
35961	-9.190874	0.237510	2.462339	0.720653	0.291624	0.500387	-0.381088
35962	-9.162698	0.276226	2.560995	0.720032	0.295324	0.500284	-0.379545
35963	-9.166915	0.459057	2.642866	0.719168	0.299483	0.500054	-0.378224
35964	-9.248734	0.638721	2.774874	0.718170	0.303573	0.500008	-0.376918
35965	-9.306040	0.590753	2.932487	0.717147	0.307314	0.500134	-0.375666
35966	-9.347578	0.620654	3.082075	0.716009	0.310750	0.500493	-0.374530
35967	-9.431956	0.659312	3.272276	0.714776	0.313737	0.501184	-0.373468
35968	-9.560160	0.503431	3.417393	0.713420	0.316380	0.502084	-0.372621
35969	-9.693061	0.380349	3.545349	0.711913	0.318791	0.503048	-0.372148
35970	-9.809224	0.445596	3.593439	0.710262	0.321034	0.504048	-0.372023
35971	-9.755407	0.480329	3.633165	0.708631	0.322894	0.505148	-0.372032
35972	-9.737314	0.455226	3.657208	0.707119	0.324360	0.506292	-0.372077
35973	-9.718696	0.403237	3.626360	0.705734	0.325536	0.507349	-0.372240
35974	-9.725999	0.404511	3.580335	0.704576	0.326178	0.508407	-0.372427
35975	-9.809415	0.394552	3.488623	0.703537	0.326514	0.509404	-0.372735
35976	-9.970264	0.438701	3.391580	0.702650	0.326741	0.510209	-0.373108
35977	-10.045477	0.263118	3.294214	0.701949	0.327401	0.510445	-0.373526
35978	-10.244847	0.227971	3.234502	0.701438	0.329175	0.509610	-0.374067
35979	-10.304483	0.589318	3.367889	0.701334	0.332649	0.507196	-0.374469
35980	-10.459833	1.091544	3.605275	0.702328	0.336932	0.503329	-0.373994
35981	-10.662398	1.787732	3.736085	0.704782	0.341267	0.498169	-0.372353
35982	-10.542791	2.045449	3.739429	0.708816	0.344903	0.492355	-0.369064
35983	-10.421116	2.783279	3.673207	0.714443	0.347357	0.486161	-0.364090
35984	-10.224605	4.236565	3.182274	0.721607	0.347871	0.480600	-0.356782
35985	-9.945793	4.604574	3.038374	0.730302	0.346277	0.475909	-0.346789
35986	-9.445696	4.254485	2.813554	0.739748	0.343966	0.471488	-0.334901
35987	-9.002622	4.237814	2.828427	0.749317	0.341237	0.467348	-0.321973
35988	-8.631688	4.122304	2.658795	0.758815	0.337932	0.463561	-0.308404
35989	-7.938303	3.105348	2.369042	0.768099	0.333974	0.460441	-0.294074
35990	-7.619879	2.343656	2.653752	0.776290	0.330944	0.457185	-0.280770
35991	-7.990418	2.268169	4.100648	0.783325	0.329234	0.453352	-0.269220
35992	-7.774922	2.183568	3.855071	0.789958	0.327765	0.448651	-0.259324
35993	-7.978572	1.423063	3.933365	0.795018	0.329250	0.443559	-0.250592
35994	-8.194250	2.652779	3.930288	0.798688	0.333740	0.437803	-0.242988
