// Start Time: Unknown
// Update Rate: 60.0Hz
// Filter Profile: human (46.1)
// Option Flags: AHS Disabled ICC Disabled 
// Firmware Version: 4.3.5
PacketCounter	Acc_X	Acc_Y	Acc_Z	Quat_q0	Quat_q1	Quat_q2	Quat_q3
08551	0.027271	0.040818	9.835286	0.999997	0.001399	-0.001948	-0.000050
08552	0.045960	0.047582	9.839178	0.999997	0.001397	-0.001949	-0.000021
08553	0.042317	0.032172	9.825464	0.999997	0.001393	-0.001938	-0.000032
08554	0.028562	0.005774	9.826089	0.999997	0.001389	-0.001944	-0.000031
08555	0.017814	-0.005414	9.840429	0.999997	0.001381	-0.001945	-0.000031
08556	0.030227	0.020599	9.839812	0.999997	0.001381	-0.001941	-0.000040
08557	0.029481	0.020547	9.839814	0.999997	0.001386	-0.001932	-0.000047
08558	0.035413	0.033685	9.839508	0.999997	0.001395	-0.001940	-0.000063
08559	0.044909	0.044628	9.825175	0.999997	0.001398	-0.001924	-0.000067
08560	0.031248	0.018264	9.825792	0.999997	0.001392	-0.001943	-0.000037
08561	0.040809	0.029043	9.811461	0.999997	0.001391	-0.001923	-0.000056
08562	0.023207	0.004860	9.826104	0.999997	0.001391	-0.001917	-0.000059
08563	0.037965	0.013668	9.844038	0.999997	0.001378	-0.001910	-0.000059
08564	0.051213	0.022247	9.815683	0.999997	0.001379	-0.001923	-0.000057
08565	0.018236	0.038905	9.835315	0.999997	0.001388	-0.001923	-0.000055
08566	0.036823	0.045680	9.839225	0.999997	0.001377	-0.001934	-0.000054
08567	0.045946	0.024111	9.829718	0.999997	0.001387	-0.001930	-0.000054
08568	0.047654	0.006743	9.848263	0.999997	0.001368	-0.001925	-0.000047
08569	0.041819	0.008370	9.816000	0.999997	0.001370	-0.001939	-0.000062
08570	0.028106	0.031750	9.839538	0.999997	0.001358	-0.001948	-0.000051
08571	0.034138	0.044632	9.839240	0.999997	0.001359	-0.001949	-0.000040
08572	0.049830	0.036249	9.829432	0.999997	0.001366	-0.001957	-0.000038
08573	0.041531	0.008065	9.862301	0.999997	0.001364	-0.001963	-0.000048
08574	0.010486	0.022338	9.821602	0.999997	0.001375	-0.001961	-0.000048
08575	0.038099	0.025182	9.843764	0.999997	0.001379	-0.001979	-0.000044
08576	0.022058	0.016033	9.825821	0.999997	0.001376	-0.001968	-0.000056
08577	0.038148	0.040075	9.811203	0.999997	0.001392	-0.001975	-0.000073
08578	0.039961	0.022971	9.829747	0.999997	0.001394	-0.001977	-0.000063
08579	0.014207	0.035313	9.821308	0.999997	0.001397	-0.001978	-0.000063
08580	0.045296	0.035991	9.829455	0.999997	0.001405	-0.001976	-0.000061
08581	0.038072	0.022786	9.829755	0.999997	0.001386	-0.002022	-0.000038
08582	0.030813	0.009658	9.830053	0.999997	0.001402	-0.002015	-0.000045
08583	0.036753	0.022763	9.829760	0.999997	0.001399	-0.002020	-0.000044
08584	0.043509	0.018355	9.801716	0.999997	0.001402	-0.002023	-0.000052
08585	0.035659	0.022722	9.829764	0.999997	0.001418	-0.002028	-0.000067
08586	0.029874	0.024640	9.797495	0.999997	0.001414	-0.002032	-0.000065
08587	0.028065	0.009439	9.830061	0.999997	0.001410	-0.002039	-0.000064
08588	0.050181	0.013964	9.819976	0.999997	0.001404	-0.002029	-0.000065
08589	0.024221	0.026293	9.811523	0.999997	0.001412	-0.002020	-0.000076
08590	0.035503	0.037334	9.843506	0.999997	0.001405	-0.002034	-0.000065
08591	0.047453	0.030939	9.847739	0.999997	0.001406	-0.002019	-0.000067
08592	0.030535	0.039019	9.857534	0.999997	0.001387	-0.002028	-0.000084
08593	0.034533	0.019285	9.815762	0.999997	0.001396	-0.002042	-0.000070
08594	0.033902	0.019287	9.815764	0.999997	0.001398	-0.002026	-0.000080
08595	0.038218	0.017195	9.848041	0.999997	0.001390	-0.002010	-0.000092
08596	0.051289	0.025876	9.819717	0.999997	0.001398	-0.002007	-0.000083
08597	0.035795	0.049184	9.796944	0.999997	0.001394	-0.002012	-0.000081
08598	0.046538	0.027846	9.833743	0.999997	0.001399	-0.002018	-0.000069
08599	0.029816	0.036116	9.843530	0.999997	0.001395	-0.002024	-0.000067
08600	0.035148	0.016706	9.848054	0.999997	0.001401	-0.002015	-0.000069
08601	0.041020	0.029675	9.847772	0.999997	0.001395	-0.002017	-0.000086
08602	0.025001	0.020564	9.829801	0.999997	0.001402	-0.002023	-0.000084
08603	0.031024	0.033510	9.829519	0.999997	0.001392	-0.002023	-0.000074
08604	0.037024	0.046353	9.829239	0.999997	0.001387	-0.002029	-0.000070
08605	0.038794	0.029073	9.847782	0.999997	0.001389	-0.002031	-0.000076
08606	0.026219	0.017839	9.815790	0.999997	0.001391	-0.002013	-0.000064
08607	0.041766	0.009505	9.806015	0.999997	0.001406	-0.002024	-0.000058
08608	0.024431	0.035520	9.843547	0.999997	0.001427	-0.002041	-0.000053
08609	0.031398	0.031131	9.815512	0.999997	0.001407	-0.002050	-0.000069
08610	0.037432	0.043828	9.815235	0.999997	0.001399	-0.002049	-0.000061
08611	0.022822	0.034828	9.843553	0.999997	0.001398	-0.002044	-0.000062
08612	0.038299	0.026384	9.833782	0.999997	0.001404	-0.002035	-0.000071
08613	0.044239	0.039375	9.833507	0.999997	0.001400	-0.002040	-0.000069
08614	0.030556	0.013035	9.834065	0.999997	0.001399	-0.002046	-0.000079
08615	0.030564	0.045265	9.829266	0.999997	0.001395	-0.002040	-0.000069
08616	0.055039	0.032782	9.837763	0.999997	0.001409	-0.002044	-0.000068
08617	0.026502	0.029838	9.815531	0.999997	0.001388	-0.002051	-0.000068
08618	0.047233	0.019203	9.838047	0.999997	0.001390	-0.002036	-0.000069
08619	0.026573	0.029676	9.861833	0.999997	0.001394	-0.002038	-0.000078
08620	0.039826	0.038421	9.833529	0.999997	0.001399	-0.002028	-0.000071
08621	0.032595	0.025335	9.833806	0.999997	0.001406	-0.002037	-0.000068
08622	0.029300	0.010006	9.820065	0.999997	0.001400	-0.002054	-0.000075
08623	0.042108	0.036043	9.819521	0.999997	0.001405	-0.002062	-0.000063
08624	0.018645	0.031351	9.829558	0.999997	0.001411	-0.002054	-0.000063
08625	0.043153	0.018800	9.838066	0.999997	0.001410	-0.002066	-0.000060
08626	0.049200	0.031748	9.837798	0.999997	0.001409	-0.002061	-0.000061
08627	0.033143	0.022707	9.819802	0.999997	0.001415	-0.002069	-0.000057
08628	0.031851	0.040056	9.847562	0.999997	0.001418	-0.002071	-0.000057
08629	0.034880	0.037806	9.833550	0.999997	0.001416	-0.002067	-0.000056
08630	0.027599	0.024530	9.833823	0.999997	0.001409	-0.002067	-0.000057
08631	0.039569	0.018051	9.838083	0.999997	0.001404	-0.002073	-0.000055
08632	0.045518	0.031023	9.837818	0.999997	0.001411	-0.002065	-0.000056
08633	0.032412	0.037325	9.833561	0.999997	0.001423	-0.002078	-0.000062
08634	0.029024	0.022106	9.819817	0.999997	0.001423	-0.002077	-0.000044
08635	0.034955	0.035233	9.819552	0.999997	0.001441	-0.002072	-0.000053
08636	0.036577	0.018074	9.838094	0.999997	0.001437	-0.002077	-0.000052
08637	0.041193	0.030743	9.791532	0.999997	0.001432	-0.002082	-0.000041
08638	0.042149	0.030737	9.837833	0.999997	0.001427	-0.002090	-0.000040
08639	0.013478	0.028096	9.815562	0.999997	0.001450	-0.002079	-0.000039
08640	0.044563	0.028757	9.823827	0.999997	0.001451	-0.002089	-0.000038
08641	0.043972	0.028694	9.823830	0.999997	0.001456	-0.002080	-0.000038
08642	0.036756	0.015541	9.824096	0.999997	0.001454	-0.002090	-0.000018
08643	0.030338	0.034768	9.819569	0.999997	0.001457	-0.002092	-0.000025
08644	0.026060	0.036869	9.833581	0.999997	0.001459	-0.002092	-0.000023
08645	0.027665	0.019517	9.852124	0.999997	0.001450	-0.002092	-0.000014
08646	0.043216	0.010900	9.842385	0.999997	0.001450	-0.002088	-0.000023
08647	0.024928	0.018968	9.805829	0.999997	0.001446	-0.002093	-0.000023
08648	0.052361	0.021520	9.828120	0.999997	0.001447	-0.002095	-0.000012
08649	0.022895	0.036154	9.833592	0.999997	0.001452	-0.002086	-0.000012
08650	0.038449	0.027534	9.823856	0.999997	0.001439	-0.002088	-0.000013
08651	0.031293	0.014176	9.824117	0.999997	0.001435	-0.002093	-0.000012
08652	0.027793	0.048532	9.833340	0.999997	0.001431	-0.002099	-0.000011
08653	0.033111	0.029138	9.837873	0.999997	0.001440	-0.002097	-0.000009
08654	0.048775	0.020758	9.828140	0.999997	0.001446	-0.002104	-0.000007
08655	0.029037	0.013914	9.824125	0.999997	0.001447	-0.002101	-0.000017
08656	0.035037	0.026990	9.823870	0.999997	0.001461	-0.002106	-0.000016
08657	0.030742	0.029081	9.837881	0.999997	0.001453	-0.002106	-0.000015
08658	0.049184	0.035744	9.841905	0.999997	0.001460	-0.002097	-0.000026
08659	0.052091	0.033582	9.827902	0.999997	0.001464	-0.002087	-0.000016
08660	0.024760	0.031015	9.851895	0.999997	0.001463	-0.002082	-0.000017
08661	0.040377	0.022422	9.842170	0.999997	0.001458	-0.002086	-0.000015
08662	0.033853	0.041569	9.837640	0.999997	0.001454	-0.002080	0.000004
08663	0.046537	0.017739	9.814163	0.999997	0.001450	-0.002085	0.000005
08664	0.029650	0.026069	9.823891	0.999997	0.001456	-0.002076	0.000004
08665	0.037744	0.021807	9.842182	0.999997	0.001448	-0.002074	0.000003
08666	0.033307	0.023810	9.856191	0.999997	0.001453	-0.002066	0.000010
08667	0.034148	0.038805	9.823648	0.999997	0.001456	-0.002067	0.000003
08668	0.023250	0.027775	9.837905	0.999997	0.001452	-0.002071	0.000013
08669	0.045601	0.032194	9.827939	0.999997	0.001448	-0.002078	0.000013
08670	0.019217	0.012301	9.824151	0.999997	0.001457	-0.002075	0.000015
08671	0.033940	0.021091	9.842197	0.999997	0.001445	-0.002068	0.000014
08672	0.045674	0.014630	9.846488	0.999997	0.001450	-0.002058	0.000015
08673	0.032661	0.020814	9.842202	0.999997	0.001446	-0.002080	0.000027
08674	0.033788	0.035784	9.809661	0.999997	0.001455	-0.002078	0.000027
08675	0.031534	0.020717	9.842206	0.999997	0.001455	-0.002074	0.000027
08676	0.028827	0.037777	9.823669	0.999997	0.001454	-0.002085	0.000029
08677	0.049690	0.027201	9.846257	0.999997	0.001449	-0.002092	0.000032
08678	0.037481	0.015781	9.814205	0.999997	0.001429	-0.002101	0.000024
08679	0.029556	0.019810	9.842214	0.999997	0.001432	-0.002105	0.000053
08680	0.039333	0.030456	9.827971	0.999997	0.001416	-0.002101	0.000041
08681	0.028467	0.019390	9.842218	0.999997	0.001428	-0.002116	0.000035
08682	0.038307	0.030263	9.827976	0.999997	0.001427	-0.002110	0.000042
08683	0.018609	0.023460	9.823924	0.999997	0.001436	-0.002124	0.000054
08684	0.040103	0.045359	9.841743	0.999997	0.001431	-0.002113	0.000045
08685	0.045297	0.025833	9.846282	0.999997	0.001428	-0.002118	0.000037
08686	0.025637	0.018911	9.842227	0.999997	0.001424	-0.002124	0.000031
08687	0.045665	0.040552	9.813749	0.999997	0.001424	-0.002107	0.000046
08688	0.047146	0.023327	9.832289	0.999997	0.001432	-0.002122	0.000060
08689	0.037884	0.027393	9.813992	0.999997	0.001426	-0.002121	0.000044
08690	0.037219	0.027214	9.813995	0.999997	0.001424	-0.002115	0.000044
08691	0.026182	0.016222	9.828235	0.999997	0.001426	-0.002117	0.000046
08692	0.028499	0.031271	9.842002	0.999997	0.001420	-0.002115	0.000036
08693	0.040394	0.024816	9.846306	0.999997	0.001422	-0.002118	0.000038
08694	0.031132	0.028875	9.828006	0.999997	0.001422	-0.002130	0.000041
08695	0.030654	0.028608	9.828008	0.999997	0.001408	-0.002132	0.000047
08696	0.030096	0.028470	9.828010	0.999997	0.001421	-0.002135	0.000049
08697	0.033269	0.026368	9.814011	0.999997	0.001425	-0.002137	0.000041
08698	0.034826	0.009046	9.832550	0.999997	0.001420	-0.002144	0.000051
08699	0.043879	0.037254	9.846088	0.999997	0.001434	-0.002146	0.000051
08700	0.027821	0.028365	9.828017	0.999997	0.001432	-0.002142	0.000053
08701	0.023407	0.030318	9.842019	0.999997	0.001386	-0.002063	-0.000041
08702	0.026567	0.027934	9.828022	0.999997	0.001382	-0.002068	-0.000041
08703	0.026055	0.027744	9.828024	0.999997	0.001379	-0.002074	-0.000041
08704	0.050510	0.015074	9.836642	0.999997	0.001391	-0.002078	-0.000023
08705	0.028553	0.025495	9.814029	0.999997	0.001386	-0.002068	-0.000032
08706	0.032877	0.023460	9.846337	0.999997	0.001398	-0.002073	-0.000021
08707	0.023721	0.027669	9.828030	0.999997	0.001402	-0.002092	-0.000026
08708	0.042427	0.034422	9.832115	0.999997	0.001411	-0.002090	-0.000025
08709	0.028451	0.008333	9.832571	0.999997	0.001412	-0.002091	-0.000015
08710	0.050717	0.012890	9.822662	0.999997	0.001421	-0.002087	-0.000013
08711	0.030773	0.006250	9.818578	0.999997	0.001432	-0.002072	-0.000004
08712	0.041844	0.017392	9.850662	0.999997	0.001444	-0.002087	-0.000010
08713	0.036423	0.019165	9.818356	0.999997	0.001420	-0.002093	0.000008
08714	0.041781	0.049185	9.845903	0.999997	0.001418	-0.002099	-0.000001
08715	0.010332	0.031284	9.809729	0.999997	0.001416	-0.002095	-0.000001
08716	0.024190	0.007717	9.832583	0.999997	0.001425	-0.002093	0.000008
08717	0.033204	0.035887	9.846135	0.999997	0.001422	-0.002098	0.000000
08718	0.029768	0.020513	9.832364	0.999997	0.001418	-0.002103	0.000001
08719	0.023367	0.039811	9.827825	0.999997	0.001426	-0.002101	0.000003
08720	0.028551	0.020467	9.832367	0.999997	0.001429	-0.002104	-0.000003
08721	0.031673	0.018066	9.818375	0.999997	0.001411	-0.002102	-0.000013
08722	0.040639	0.046014	9.831933	0.999997	0.001412	-0.002103	0.000004
08723	0.026713	0.019796	9.832374	0.999997	0.001409	-0.002109	0.000004
08724	0.040243	0.028415	9.804169	0.999997	0.001414	-0.002099	0.000004
08725	0.053195	0.022158	9.854801	0.999997	0.001414	-0.002093	0.000003
08726	0.028449	0.017326	9.818386	0.999997	0.001412	-0.002101	-0.000015
08727	0.046170	0.041202	9.850267	0.999997	0.001408	-0.002093	0.000011
08728	0.019619	0.021231	9.846377	0.999997	0.001399	-0.002093	0.000011
08729	0.033079	0.029719	9.818178	0.999997	0.001395	-0.002082	0.000001
08730	0.032447	0.029464	9.818181	0.999997	0.001384	-0.002092	0.000002
08731	0.048069	0.020808	9.808518	0.999997	0.001390	-0.002083	0.000001
08732	0.039814	0.025142	9.836507	0.999997	0.001397	-0.002080	0.000012
08733	0.032532	0.012050	9.836722	0.999997	0.001393	-0.002087	0.000005
08734	0.038625	0.024951	9.836512	0.999997	0.001394	-0.002082	-0.000012
08735	0.029099	0.029042	9.818192	0.999997	0.001395	-0.002065	-0.000014
08736	0.060041	0.029092	9.826648	0.999997	0.001373	-0.002071	-0.000012
08737	0.027983	0.028509	9.818197	0.999997	0.001382	-0.002084	0.000001
08738	0.031212	0.026316	9.804207	0.999997	0.001381	-0.002078	-0.000000
08739	0.031782	0.026286	9.850517	0.999997	0.001378	-0.002084	-0.000001
08740	0.041585	0.037056	9.836320	0.999997	0.001383	-0.002076	-0.000001
08741	0.029202	0.026005	9.804214	0.999997	0.001383	-0.002072	-0.000018
08742	0.043970	0.034784	9.822336	0.999997	0.001387	-0.002074	-0.000026
08743	0.033902	0.056287	9.831785	0.999997	0.001393	-0.002081	-0.000016
08744	0.032355	0.023907	9.836537	0.999997	0.001399	-0.002072	-0.000032
08745	0.029547	0.041043	9.818006	0.999997	0.001395	-0.002061	-0.000042
08746	0.030789	0.023501	9.836543	0.999997	0.001377	-0.002056	-0.000044
08747	0.030195	0.023181	9.836546	0.999997	0.001374	-0.002062	-0.000052
08748	0.040120	0.033933	9.822355	0.999997	0.001377	-0.002062	-0.000052
08749	0.049099	0.012456	9.812912	0.999997	0.001391	-0.002068	-0.000058
08750	0.007467	0.033682	9.813879	0.999997	0.001391	-0.002078	-0.000056
08751	0.042307	0.031690	9.808373	0.999997	0.001386	-0.002070	-0.000029
08752	0.015022	0.029174	9.832212	0.999997	0.001386	-0.002081	-0.000028
08753	0.021214	0.042006	9.832012	0.999997	0.001379	-0.002080	-0.000029
08754	0.033037	0.035579	9.836358	0.999997	0.001390	-0.002079	-0.000046
08755	0.033264	0.018266	9.808584	0.999997	0.001392	-0.002081	-0.000044
08756	0.046121	0.044171	9.808187	0.999997	0.001387	-0.002086	-0.000035
08757	0.033178	0.018142	9.854897	0.999997	0.001392	-0.002077	-0.000035
08758	0.040971	0.046339	9.822181	0.999997	0.001410	-0.002077	-0.000023
