// Start Time: Unknown
// Update Rate: 60.0Hz
// Filter Profile: human (46.1)
// Option Flags: AHS Disabled ICC Disabled 
// Firmware Version: 4.3.5
PacketCounter	Acc_X	Acc_Y	Acc_Z	Quat_q0	Quat_q1	Quat_q2	Quat_q3
40913	-0.409120	0.594654	9.714090	-0.632366	-0.049035	-0.008311	0.773072
40914	-0.646096	0.609842	9.878517	-0.632908	-0.049825	-0.007854	0.772582
40915	-0.786915	0.544028	9.902202	-0.633535	-0.050336	-0.007657	0.772037
40916	-0.902021	0.456130	9.651926	-0.634207	-0.050809	-0.007640	0.771454
40917	-1.010688	0.353512	9.538621	-0.634698	-0.051461	-0.007418	0.771009
40918	-1.055940	0.389352	9.497773	-0.634940	-0.052355	-0.006954	0.770754
40919	-0.991493	0.534381	9.641889	-0.634995	-0.053532	-0.006191	0.770634
40920	-0.918292	0.736927	9.631206	-0.635065	-0.054627	-0.005583	0.770505
40921	-1.022588	0.553763	9.746835	-0.635111	-0.055419	-0.005368	0.770412
40922	-1.060121	0.518116	9.879743	-0.635028	-0.055853	-0.005513	0.770448
40923	-1.034373	0.371065	9.922877	-0.634900	-0.056004	-0.005992	0.770539
40924	-1.055120	0.404159	9.867270	-0.634776	-0.056217	-0.006218	0.770623
40925	-1.011813	0.457045	9.760482	-0.634547	-0.056472	-0.006395	0.770792
40926	-1.007832	0.370280	9.726545	-0.634236	-0.056829	-0.006507	0.771021
40927	-1.090808	0.461397	9.777168	-0.633896	-0.057321	-0.006354	0.771265
40928	-1.003351	0.521862	9.822804	-0.633591	-0.057724	-0.006098	0.771487
40929	-1.123005	0.516584	9.773978	-0.633316	-0.058241	-0.005732	0.771677
40930	-0.998071	0.522260	9.843451	-0.633016	-0.058605	-0.005296	0.771899
40931	-1.065952	0.547290	9.848706	-0.632725	-0.059019	-0.004897	0.772109
40932	-0.943690	0.636315	9.792848	-0.632487	-0.059184	-0.004829	0.772292
40933	-1.055276	0.680270	9.873249	-0.632197	-0.059344	-0.004852	0.772516
40934	-0.982424	0.543851	9.734211	-0.631882	-0.059449	-0.004768	0.772767
40935	-0.977138	0.522996	9.715400	-0.631549	-0.059740	-0.004431	0.773018
40936	-0.968890	0.529520	9.724693	-0.631243	-0.060281	-0.003926	0.773229
40937	-0.988898	0.654150	9.838173	-0.631020	-0.060710	-0.003417	0.773380
40938	-0.917533	0.744609	9.850971	-0.630859	-0.060990	-0.003065	0.773491
40939	-0.885091	0.778544	9.832805	-0.630756	-0.061127	-0.002950	0.773565
40940	-0.919920	0.648698	9.779673	-0.630701	-0.061195	-0.002847	0.773604
40941	-0.927227	0.660024	9.789772	-0.630620	-0.061364	-0.002672	0.773657
40942	-0.925060	0.708200	9.720887	-0.630493	-0.061730	-0.002164	0.773733
40943	-0.847445	0.822665	9.782153	-0.630397	-0.062017	-0.001815	0.773790
40944	-0.881717	0.852220	9.782209	-0.630382	-0.062101	-0.001846	0.773795
40945	-0.954169	0.672011	9.718865	-0.630366	-0.062274	-0.001773	0.773794
40946	-0.968733	0.639470	9.756374	-0.630278	-0.062444	-0.001559	0.773852
40947	-0.880168	0.746229	9.764351	-0.630250	-0.062505	-0.001473	0.773871
40948	-0.889965	0.737711	9.682458	-0.630266	-0.062625	-0.001453	0.773848
40949	-0.929787	0.760974	9.641637	-0.630194	-0.062903	-0.001287	0.773884
40950	-0.961693	0.691591	9.696368	-0.630044	-0.063247	-0.001008	0.773979
40951	-0.970863	0.722665	9.777516	-0.629832	-0.063526	-0.000760	0.774129
40952	-0.971498	0.676774	9.878370	-0.629626	-0.063818	-0.000587	0.774272
40953	-0.927952	0.922489	9.693317	-0.629508	-0.063987	-0.000439	0.774355
40954	-0.893647	1.027180	9.685787	-0.629419	-0.064103	-0.000414	0.774417
40955	-0.884623	1.007566	9.708222	-0.629347	-0.064179	-0.000424	0.774469
40956	-1.005334	0.760739	9.597083	-0.629316	-0.064357	-0.000291	0.774480
40957	-1.039612	0.686296	9.695497	-0.629269	-0.064744	0.000189	0.774486
40958	-1.040092	0.979163	9.782551	-0.629186	-0.065243	0.000940	0.774511
40959	-0.929704	0.988630	9.780221	-0.629121	-0.065775	0.001468	0.774518
40960	-0.926749	0.971172	9.824668	-0.629121	-0.066113	0.001805	0.774488
40961	-0.935562	1.026052	9.660294	-0.629093	-0.066582	0.002303	0.774470
40962	-0.958875	1.027199	9.610401	-0.629057	-0.067077	0.002848	0.774455
40963	-0.990110	0.876866	9.604250	-0.628948	-0.067548	0.003260	0.774500
40964	-0.998332	0.950085	9.615564	-0.628804	-0.067968	0.003550	0.774579
40965	-0.893599	0.948462	9.593500	-0.628630	-0.068339	0.003700	0.774687
40966	-0.957744	0.979472	9.510923	-0.628440	-0.068775	0.003738	0.774803
40967	-1.009246	1.044252	9.474054	-0.628242	-0.069071	0.003544	0.774938
40968	-0.996535	0.882732	9.463498	-0.627933	-0.069649	0.003478	0.775137
40969	-0.938702	0.788490	9.480234	-0.627388	-0.070288	0.003427	0.775521
40970	-0.907475	0.872143	9.472811	-0.626732	-0.071036	0.003228	0.775984
40971	-0.808202	1.195401	9.379102	-0.625930	-0.071882	0.002842	0.776554
40972	-0.836671	1.112610	9.242850	-0.624950	-0.072668	0.001713	0.777273
40973	-0.807381	0.828295	9.192619	-0.623540	-0.073608	0.000029	0.778319
40974	-0.835464	0.574537	9.056806	-0.621325	-0.074858	-0.002138	0.779966
40975	-0.815503	0.208230	8.782970	-0.617928	-0.076277	-0.005345	0.782508
40976	-0.879591	-0.342294	8.319228	-0.613365	-0.078344	-0.008918	0.785854
40977	-1.185024	-0.892907	8.049012	-0.607966	-0.081768	-0.012146	0.789648
40978	-1.425313	-0.609114	8.141050	-0.601838	-0.086641	-0.015069	0.793762
40979	-1.491261	0.304221	8.625264	-0.594517	-0.092054	-0.018565	0.798580
40980	-1.427735	0.725918	8.585101	-0.586147	-0.097066	-0.023544	0.804025
40981	-1.230301	0.566309	8.212548	-0.577527	-0.101795	-0.030523	0.809425
40982	-2.016036	0.323381	8.169822	-0.568938	-0.107324	-0.039461	0.814392
40983	-2.960268	0.015264	8.510384	-0.559882	-0.113147	-0.049281	0.819330
40984	-2.709656	0.105549	8.675119	-0.550135	-0.119538	-0.058137	0.824428
40985	-2.370563	1.032727	8.402392	-0.540072	-0.127337	-0.066154	0.829296
40986	-2.460107	1.890491	8.457525	-0.530782	-0.134444	-0.077002	0.833227
40987	-3.331357	1.039832	8.551974	-0.522066	-0.141916	-0.090344	0.836149
40988	-4.096972	0.047450	8.460682	-0.513685	-0.150018	-0.104607	0.838260
40989	-4.672785	-0.358229	8.533001	-0.504153	-0.159387	-0.117419	0.840618
40990	-4.068218	-0.154495	8.704496	-0.494364	-0.168129	-0.130470	0.842802
40991	-4.381689	-0.276141	8.899300	-0.484494	-0.177693	-0.144766	0.844236
40992	-5.049215	-0.803259	8.566529	-0.475388	-0.187382	-0.160281	0.844514
40993	-5.067237	-0.552297	7.262722	-0.466285	-0.198821	-0.174344	0.844188
40994	-4.882875	0.124789	6.508707	-0.458137	-0.210266	-0.189736	0.842555
40995	-5.191364	-0.477768	7.433080	-0.451260	-0.221348	-0.207170	0.839315
40996	-6.252756	-1.320272	8.542165	-0.444255	-0.232982	-0.222985	0.835843
40997	-6.656757	-2.154908	8.481705	-0.437387	-0.244854	-0.238172	0.831873
40998	-7.444551	-1.917707	7.981842	-0.430348	-0.257932	-0.251973	0.827515
40999	-7.298885	-0.198870	7.670053	-0.424478	-0.269747	-0.266288	0.822281
41000	-6.489947	0.362557	6.950414	-0.419672	-0.280659	-0.283940	0.815159
41001	-7.294147	0.691854	6.455616	-0.415451	-0.291511	-0.304662	0.805980
41002	-8.269483	-1.153520	6.581525	-0.413189	-0.301865	-0.328291	0.793963
41003	-8.351955	-2.969351	6.887575	-0.411868	-0.312130	-0.350598	0.781038
41004	-9.360859	-3.049394	6.968257	-0.411255	-0.321855	-0.370250	0.768241
41005	-8.689374	-1.529318	6.517528	-0.411550	-0.329598	-0.387620	0.756137
41006	-8.419265	-1.026601	6.018857	-0.412978	-0.334761	-0.406221	0.743215
41007	-8.866480	-1.242975	5.681883	-0.415567	-0.338547	-0.424802	0.729543
41008	-9.165113	-2.023268	5.345900	-0.420164	-0.340757	-0.442280	0.715357
41009	-9.788220	-1.825103	4.391927	-0.426306	-0.341991	-0.457227	0.701605
41010	-9.382901	-1.303244	3.313552	-0.434234	-0.342825	-0.470973	0.687093
41011	-9.755616	-2.141043	3.261430	-0.444126	-0.342983	-0.483654	0.671710
41012	-10.024784	-3.165734	3.449622	-0.455120	-0.342695	-0.493018	0.657540
41013	-10.176372	-2.415289	3.076402	-0.466987	-0.342494	-0.498960	0.644717
41014	-10.504998	-2.109183	2.672006	-0.480600	-0.341358	-0.504074	0.631195
41015	-11.011962	-2.968389	2.460064	-0.495122	-0.339816	-0.507464	0.617948
41016	-11.183400	-2.741851	1.836255	-0.510126	-0.338407	-0.507912	0.606035
41017	-10.944804	-2.621158	1.967255	-0.525877	-0.337012	-0.505842	0.594979
41018	-10.646112	-2.980276	2.222192	-0.541407	-0.335877	-0.501217	0.585531
41019	-10.300637	-2.426541	1.947014	-0.555645	-0.335869	-0.493741	0.578506
41020	-10.250968	-1.689296	1.592467	-0.569073	-0.336013	-0.485019	0.572720
41021	-10.390152	-0.729634	1.386425	-0.581483	-0.336432	-0.476254	0.567339
41022	-10.757135	-1.158724	1.751139	-0.593232	-0.337054	-0.467399	0.562145
41023	-10.464875	-0.554883	1.397996	-0.603581	-0.339005	-0.457311	0.558241
41024	-9.837167	0.241763	1.218573	-0.613057	-0.341444	-0.447852	0.554081
41025	-9.842206	0.045903	2.069483	-0.621308	-0.344478	-0.438792	0.550248
41026	-9.834416	-0.169651	2.179209	-0.627736	-0.348601	-0.429139	0.547964
41027	-9.424481	0.843057	2.101882	-0.632836	-0.353910	-0.418691	0.546776
41028	-8.912091	1.078414	2.498814	-0.637113	-0.359902	-0.408186	0.545841
41029	-8.525534	1.997091	2.378299	-0.641082	-0.365227	-0.397947	0.545216
41030	-8.195490	2.113166	2.695447	-0.645081	-0.368836	-0.388950	0.544562
41031	-8.371039	1.692423	2.598403	-0.648623	-0.371636	-0.380314	0.544551
41032	-9.315544	1.366173	2.597666	-0.651521	-0.374188	-0.371933	0.545133
41033	-9.849998	1.711660	2.700354	-0.653463	-0.377287	-0.363470	0.546379
41034	-10.550590	1.690150	2.840135	-0.654589	-0.380649	-0.355388	0.548014
41035	-10.889007	2.140011	2.716536	-0.655329	-0.383674	-0.347741	0.549921
41036	-10.692768	1.988170	2.820754	-0.656308	-0.385766	-0.341210	0.551381
41037	-10.452539	0.970378	3.446209	-0.657525	-0.387058	-0.335521	0.552514
41038	-10.039179	0.172372	4.069069	-0.658009	-0.388608	-0.329044	0.554742
41039	-9.466518	-0.145722	4.630828	-0.656395	-0.392006	-0.322177	0.558282
41040	-9.248084	0.398275	5.398807	-0.652079	-0.396890	-0.316028	0.563380
41041	-8.562391	1.859168	5.767599	-0.646643	-0.401482	-0.311959	0.568635
41042	-8.087556	2.152646	6.137819	-0.642608	-0.403971	-0.310759	0.572094
41043	-8.444497	0.870602	6.647718	-0.641614	-0.403792	-0.311002	0.573202
41044	-8.671586	-0.498697	6.920562	-0.642296	-0.403817	-0.309226	0.573383
41045	-8.514592	-0.685936	6.917616	-0.642907	-0.405469	-0.304134	0.574254
41046	-8.027291	0.073191	7.082892	-0.642974	-0.407964	-0.297603	0.575832
41047	-7.862826	0.674597	7.088266	-0.642823	-0.410119	-0.290918	0.577882
41048	-8.087674	0.932830	6.760535	-0.643447	-0.410822	-0.285359	0.579458
41049	-7.935696	0.906038	6.672659	-0.644888	-0.410619	-0.280519	0.580362
41050	-7.199329	0.389231	6.444157	-0.646730	-0.409943	-0.276026	0.580944
41051	-6.575033	-0.189738	6.273323	-0.648347	-0.409551	-0.271004	0.581783
41052	-6.234291	-0.198611	5.844946	-0.649825	-0.409445	-0.265164	0.582898
41053	-6.391535	0.004209	5.606495	-0.651253	-0.409878	-0.259175	0.583694
41054	-6.544173	0.305450	5.370489	-0.653025	-0.410254	-0.253883	0.583775
41055	-6.445520	-0.161919	5.279451	-0.655077	-0.410351	-0.249589	0.583259
41056	-6.334648	-0.325395	5.047942	-0.656818	-0.410607	-0.245787	0.582736
41057	-6.130755	-0.570109	4.713436	-0.657944	-0.411175	-0.242433	0.582470
41058	-5.846684	-0.756436	4.371511	-0.658267	-0.412155	-0.239449	0.582647
41059	-5.583081	-0.651488	3.774577	-0.657267	-0.413856	-0.237246	0.583470
41060	-6.058193	-0.436488	3.334309	-0.654746	-0.416424	-0.236052	0.584960
41061	-6.851390	0.183270	2.943076	-0.650392	-0.419878	-0.235732	0.587472
41062	-7.769358	0.745622	2.601634	-0.644741	-0.423200	-0.236511	0.590994
41063	-8.662166	0.885530	2.349409	-0.638377	-0.425809	-0.238564	0.595188
41064	-8.777425	0.591745	1.898392	-0.630175	-0.429005	-0.241230	0.600535
41065	-9.478773	0.383142	1.329721	-0.619691	-0.432961	-0.244801	0.607125
41066	-9.886842	1.637334	0.643313	-0.606755	-0.438214	-0.247891	0.615115
41067	-9.903382	3.303115	0.515961	-0.592471	-0.444436	-0.251232	0.623167
41068	-9.616694	4.293704	0.946252	-0.576619	-0.451938	-0.254885	0.631107
41069	-9.088025	5.359900	1.901903	-0.559583	-0.459830	-0.258862	0.639073
41070	-8.594789	6.209979	2.747895	-0.542599	-0.467380	-0.262560	0.646687
41071	-8.600577	7.713414	3.452126	-0.527182	-0.473602	-0.265630	0.653621
41072	-8.840580	8.538319	4.484083	-0.514803	-0.477645	-0.269051	0.659125
41073	-8.886301	8.890051	5.952123	-0.505077	-0.481040	-0.271897	0.663000
41074	-8.430909	9.910664	8.309144	-0.498216	-0.484456	-0.274098	0.664796
41075	-8.908420	12.062203	10.176884	-0.494721	-0.487337	-0.277066	0.664069
41076	-9.957707	14.528252	11.286891	-0.496998	-0.486577	-0.282000	0.660842
41077	-10.337143	14.979145	11.191969	-0.506441	-0.480654	-0.288245	0.655289
41078	-10.728083	14.573706	10.065735	-0.522205	-0.470604	-0.293171	0.647985
41079	-11.632811	15.200368	8.951024	-0.542923	-0.457976	-0.295383	0.638938
41080	-12.152176	16.100462	7.960761	-0.567851	-0.443111	-0.294749	0.627950
41081	-12.544800	16.978758	7.026298	-0.596342	-0.426624	-0.291542	0.614306
41082	-13.237177	18.014075	6.000135	-0.628621	-0.408609	-0.285377	0.597021
41083	-14.624744	18.451354	5.127497	-0.665446	-0.387669	-0.276368	0.574904
41084	-15.958691	17.125134	4.192966	-0.706296	-0.362910	-0.263831	0.547572
41085	-17.364079	13.853625	3.092644	-0.748912	-0.335328	-0.247387	0.515254
41086	-18.043795	11.578521	2.025737	-0.791037	-0.305856	-0.227086	0.478691
41087	-18.898704	9.505601	0.774040	-0.831170	-0.274703	-0.203361	0.438565
41088	-19.737616	7.309799	-1.586489	-0.867953	-0.242969	-0.177864	0.394953
41089	-21.647212	5.889981	-3.442164	-0.900750	-0.210971	-0.151760	0.348009
41090	-23.287528	3.329492	-5.698097	-0.929267	-0.177303	-0.126046	0.298561
41091	-22.499922	2.079884	-4.261374	-0.953070	-0.138127	-0.102822	0.249009
41092	-20.892855	-1.268350	-3.613817	-0.970437	-0.101158	-0.078452	0.204608
41093	-16.430786	-1.209387	-4.092454	-0.983293	-0.068674	-0.050468	0.160845
41094	-9.416598	-1.821275	-3.916643	-0.991808	-0.037936	-0.031550	0.117825
41095	-11.462222	-11.596335	-0.505617	-0.995990	0.014107	-0.022877	0.085335
41096	-15.379189	-38.589059	-7.394775	-0.996181	0.059227	-0.006991	0.063768
41097	-9.384956	-39.825328	-7.658081	-0.996381	0.066643	-0.008009	0.052150
41098	-14.260312	-40.312886	3.328155	-0.996928	0.054295	-0.012607	0.055027
41099	-10.920512	-25.439879	9.405902	-0.996977	0.016628	-0.018829	0.073522
41100	-9.428272	-10.832322	9.855659	-0.994400	0.003070	-0.030864	0.101025
41101	-10.356143	-9.031190	6.069764	-0.989877	0.005442	-0.049914	0.132751
41102	-13.592232	-11.168034	2.605431	-0.982617	-0.009496	-0.072378	0.170691
41103	-17.847811	-12.619387	1.159552	-0.971598	-0.043671	-0.094885	0.212339
41104	-16.961336	-8.619868	-1.602097	-0.954514	-0.094543	-0.119008	0.256517
41105	-20.584748	1.707823	-5.034453	-0.929353	-0.144557	-0.147728	0.305914
41106	-21.320775	4.874007	-5.787533	-0.898965	-0.179301	-0.180001	0.356809
41107	-18.494387	6.005998	-6.459167	-0.863874	-0.206169	-0.217660	0.404771
41108	-18.915837	1.731797	-4.541447	-0.824052	-0.229956	-0.261760	0.446700
41109	-20.603460	1.126529	-2.147707	-0.776598	-0.264776	-0.298656	0.487436
41110	-20.787454	7.954066	-1.040268	-0.722510	-0.306451	-0.321857	0.529598
41111	-16.476627	13.277087	0.350300	-0.666036	-0.345813	-0.336553	0.568807
41112	-13.758355	17.353620	0.606473	-0.612401	-0.380597	-0.341816	0.602721
41113	-11.392643	20.811663	0.878523	-0.568767	-0.406045	-0.343640	0.627330
41114	-10.934011	18.875683	3.928118	-0.536191	-0.423991	-0.344489	0.643473
41115	-8.653795	13.827183	5.484534	-0.511865	-0.439538	-0.337010	0.656678
41116	-8.543969	14.597597	7.372526	-0.492215	-0.456565	-0.322236	0.667410
41117	-8.752196	15.328626	7.832172	-0.479356	-0.469807	-0.305083	0.675591
41118	-9.501493	13.312604	7.461423	-0.474130	-0.477328	-0.292425	0.679593
41119	-10.139022	8.399191	6.949004	-0.473681	-0.481622	-0.283489	0.680662
41120	-11.328097	5.092560	7.115023	-0.473756	-0.485973	-0.275734	0.680703
41121	-12.410297	4.447025	7.622671	-0.473224	-0.490237	-0.269017	0.680703
41122	-13.376187	5.857763	6.955599	-0.473679	-0.493297	-0.265891	0.679403
41123	-13.721899	5.907199	6.269375	-0.476639	-0.493537	-0.267105	0.676677
41124	-13.128956	5.427247	5.169803	-0.481589	-0.491791	-0.272259	0.672376
41125	-12.462641	5.102245	4.525770	-0.486112	-0.490239	-0.278839	0.667540
41126	-11.351996	5.852640	3.867388	-0.488522	-0.490408	-0.285264	0.662926
41127	-10.995693	8.359374	3.760885	-0.489372	-0.492616	-0.291596	0.657888
41128	-10.068235	10.293954	4.083841	-0.491374	-0.494214	-0.299744	0.651504
41129	-8.932177	10.519905	4.588506	-0.495817	-0.493782	-0.309780	0.643725
41130	-8.368661	10.981115	4.338630	-0.503956	-0.490734	-0.321211	0.634060
41131	-8.960958	11.263414	3.228451	-0.516708	-0.484905	-0.332665	0.622266
41132	-9.251831	10.016333	2.296878	-0.533960	-0.476251	-0.343132	0.608549
41133	-9.072182	7.861225	1.456416	-0.554588	-0.465020	-0.350815	0.594237
41134	-8.147413	6.102186	0.601368	-0.578236	-0.451836	-0.354439	0.579535
41135	-7.418287	4.654981	-0.599977	-0.603913	-0.438130	-0.354036	0.563906
41136	-8.633593	3.364439	-1.841309	-0.630268	-0.424963	-0.350603	0.547034
41137	-11.504759	2.727359	-2.654812	-0.655426	-0.412785	-0.344522	0.530405
41138	-11.606553	1.629212	-2.393446	-0.678291	-0.401376	-0.337560	0.514657
41139	-10.276510	0.836871	-1.798253	-0.697193	-0.393106	-0.330018	0.500478
41140	-9.058670	0.756802	-1.194499	-0.712076	-0.388635	-0.323189	0.487298
41141	-9.007902	1.392104	-0.658855	-0.724040	-0.386684	-0.318740	0.473968
41142	-10.132549	1.604298	0.171730	-0.734316	-0.385993	-0.316773	0.459831
41143	-10.260195	0.590153	1.552282	-0.743161	-0.386547	-0.316288	0.445258
41144	-10.146004	0.101748	2.797334	-0.750262	-0.388719	-0.316171	0.431325
41145	-10.123071	0.138158	4.048897	-0.755445	-0.391934	-0.316367	0.419049
41146	-10.221156	0.702018	5.353629	-0.759230	-0.394977	-0.316563	0.409086
41147	-9.516017	0.775940	6.383068	-0.762530	-0.397422	-0.315778	0.401108
41148	-8.372754	0.641008	7.284260	-0.765661	-0.399495	-0.314012	0.394415
41149	-7.546114	0.683660	7.593899	-0.769053	-0.400973	-0.311190	0.388509
41150	-7.569151	0.853585	7.191658	-0.772585	-0.401528	-0.307989	0.383446
41151	-7.745640	1.183935	6.187109	-0.776070	-0.400839	-0.305145	0.379382
41152	-7.158953	1.147965	5.386337	-0.779417	-0.398377	-0.303107	0.376737
41153	-5.550194	0.744275	4.708342	-0.782712	-0.394247	-0.301614	0.375446
41154	-3.254951	-0.015722	4.188174	-0.785993	-0.389139	-0.300378	0.374913
41155	-1.270495	-0.373391	3.363480	-0.789384	-0.384277	-0.298014	0.374689
41156	0.546959	-0.405018	2.231700	-0.793354	-0.379319	-0.294426	0.374192
41157	2.338473	-0.445605	1.163375	-0.797806	-0.374319	-0.289642	0.373495
41158	3.596602	-0.698691	-0.668561	-0.802417	-0.369445	-0.285352	0.371768
41159	3.612170	-1.798419	-2.786380	-0.806838	-0.364946	-0.282371	0.368909
41160	2.908682	-2.241516	-4.002505	-0.809992	-0.362038	-0.281245	0.365707
41161	1.543560	-2.090418	-4.255100	-0.811021	-0.361547	-0.282498	0.362937
41162	0.568110	-1.632313	-3.526989	-0.809879	-0.363493	-0.285548	0.361153
41163	-0.417711	-0.145787	-2.416605	-0.806973	-0.366676	-0.291090	0.360014
41164	-1.557832	0.757516	-0.957570	-0.803819	-0.368969	-0.299134	0.358127
41165	-3.133605	1.285739	0.522481	-0.801137	-0.369722	-0.308853	0.355099
41166	-4.939088	1.004251	2.145779	-0.798701	-0.369886	-0.319219	0.351227
41167	-5.877647	0.838904	3.896981	-0.796132	-0.370647	-0.328215	0.347951
41168	-5.329685	1.350072	5.736927	-0.793486	-0.371243	-0.335722	0.346193
41169	-5.983541	2.516215	6.727281	-0.791212	-0.370150	-0.342994	0.345438
41170	-9.753698	3.539335	7.033929	-0.790451	-0.365991	-0.349944	0.344640
41171	-13.067619	3.114002	7.155777	-0.791728	-0.359070	-0.355589	0.343209
41172	-12.976140	2.015579	7.299227	-0.793627	-0.352965	-0.358064	0.342583
41173	-11.767301	2.697433	7.754575	-0.795211	-0.349048	-0.357330	0.343686
41174	-12.752582	4.472317	8.593373	-0.797189	-0.345041	-0.354666	0.345903
41175	-15.654954	4.198965	9.462134	-0.800537	-0.339869	-0.350386	0.347650
41176	-16.937966	3.849591	10.744108	-0.804143	-0.335454	-0.344003	0.349980
41177	-16.201352	3.700896	11.837882	-0.808460	-0.330143	-0.335546	0.353281
41178	-16.144430	4.059522	12.687608	-0.812561	-0.325666	-0.324962	0.357892
41179	-17.834529	4.929041	12.637734	-0.816930	-0.320416	-0.313272	0.363069
41180	-20.742967	5.391679	12.228801	-0.820492	-0.316215	-0.301679	0.368498
41181	-21.824856	6.316175	12.588145	-0.822579	-0.313951	-0.291521	0.373917
41182	-21.907906	7.631208	12.997326	-0.822761	-0.313778	-0.283760	0.379589
41183	-20.814441	9.251961	13.885908	-0.821806	-0.313083	-0.280071	0.384934
41184	-19.572541	8.790450	14.399015	-0.820109	-0.311208	-0.281335	0.389128
41185	-19.040056	6.800483	14.533700	-0.817258	-0.310711	-0.285714	0.392321
41186	-18.146988	6.940749	14.783405	-0.813751	-0.312309	-0.290110	0.395106
41187	-16.262191	5.709108	14.675260	-0.810338	-0.313457	-0.294645	0.397846
41188	-15.100890	3.985666	13.475643	-0.806352	-0.315339	-0.298068	0.401887
41189	-13.824210	3.244322	11.750151	-0.801910	-0.318123	-0.300485	0.406752
41190	-13.324605	2.338657	9.781756	-0.797416	-0.320820	-0.303170	0.411448
41191	-14.271718	1.193123	8.388633	-0.793288	-0.322869	-0.306010	0.415702
41192	-14.151084	0.813407	7.080659	-0.789347	-0.324890	-0.308975	0.419418
41193	-13.236344	1.336304	6.110910	-0.785848	-0.326661	-0.311909	0.422431
41194	-11.045694	0.818687	5.051033	-0.782286	-0.328530	-0.314985	0.425301
41195	-9.641042	0.653884	3.909832	-0.777901	-0.331097	-0.318454	0.428757
41196	-9.207998	0.962506	3.976521	-0.772916	-0.333756	-0.322311	0.432810
41197	-9.069598	1.522482	3.712383	-0.766506	-0.337926	-0.326027	0.438157
41198	-8.752816	1.818001	3.763004	-0.758774	-0.344025	-0.329388	0.444312
41199	-8.840968	2.609896	3.383899	-0.749498	-0.352722	-0.332258	0.451048
41200	-8.319504	4.279038	3.273286	-0.740349	-0.361327	-0.335534	0.456883
41201	-7.259005	4.751278	3.523527	-0.732238	-0.368758	-0.339474	0.461088
41202	-6.135379	4.416311	3.568158	-0.725626	-0.375080	-0.343505	0.463451
41203	-5.100369	3.166639	3.917706	-0.720741	-0.379915	-0.347107	0.464451
41204	-4.304442	2.631224	4.113339	-0.716427	-0.384699	-0.350909	0.464329
41205	-4.190488	1.142350	4.440227	-0.713560	-0.388437	-0.352768	0.464223
41206	-3.229440	1.071846	3.408045	-0.710758	-0.393004	-0.351176	0.465882
41207	-2.262425	2.166145	2.600098	-0.708860	-0.396833	-0.347011	0.468642
41208	-1.734924	3.122238	2.672281	-0.707690	-0.400118	-0.341748	0.471475
41209	-1.269852	3.524960	2.983753	-0.707561	-0.402479	-0.336149	0.473679
41210	-0.908447	3.835150	3.374735	-0.708879	-0.404393	-0.329657	0.474639
41211	-0.578173	2.849697	4.708388	-0.712252	-0.404899	-0.322398	0.474145
41212	-0.436787	2.247794	4.420435	-0.716934	-0.403661	-0.313438	0.474151
41213	-0.118389	3.008784	2.741332	-0.723174	-0.399919	-0.303857	0.474084
41214	-0.320544	3.601065	1.301989	-0.731000	-0.394138	-0.295643	0.472111
41215	-1.940586	2.356000	1.580010	-0.740252	-0.386440	-0.288786	0.468288
41216	-3.049804	0.891510	1.721318	-0.748790	-0.379555	-0.280329	0.465476
41217	-3.096830	0.215269	2.168336	-0.755630	-0.374706	-0.269760	0.464596
41218	-3.297180	0.278812	2.636499	-0.760363	-0.372277	-0.258550	0.465198
41219	-4.668367	0.239955	2.221994	-0.763964	-0.370764	-0.247866	0.466321
41220	-6.560512	0.445173	1.879542	-0.765371	-0.371314	-0.238493	0.468459
41221	-8.738955	0.786971	1.946795	-0.763683	-0.374156	-0.230388	0.472988
41222	-9.066998	1.774172	2.435599	-0.757954	-0.378713	-0.225382	0.480922
41223	-8.124714	1.871988	2.530888	-0.748777	-0.383446	-0.223637	0.492228
41224	-7.840407	0.906628	2.386687	-0.736550	-0.389762	-0.224221	0.505277
41225	-8.392375	1.583552	1.609179	-0.720462	-0.399867	-0.223619	0.520610
41226	-8.426768	4.328667	0.866475	-0.702374	-0.410282	-0.223707	0.536931
41227	-7.593633	5.406402	0.618985	-0.682630	-0.421086	-0.224618	0.553398
41228	-6.913968	5.890278	1.320260	-0.663015	-0.429345	-0.225907	0.570123
41229	-5.533789	6.194871	1.567736	-0.642420	-0.437014	-0.224260	0.588236
41230	-4.699957	7.709326	1.532617	-0.620795	-0.444749	-0.219132	0.607284
41231	-4.003578	11.268104	0.813940	-0.599645	-0.452096	-0.212533	0.625191
41232	-3.469596	15.205680	0.768048	-0.581377	-0.458427	-0.207884	0.639241
41233	-3.822237	18.166484	2.093546	-0.567700	-0.465139	-0.207841	0.646656
41234	-4.711925	19.147147	4.416373	-0.560153	-0.470363	-0.211935	0.648128
41235	-4.791693	20.058557	6.005139	-0.558771	-0.473669	-0.218114	0.644856
41236	-5.425067	20.788329	8.484002	-0.564390	-0.474948	-0.223999	0.636956
41237	-6.823972	23.056245	10.488877	-0.577121	-0.474027	-0.229518	0.624140
41238	-9.556175	23.963420	12.766794	-0.597027	-0.468702	-0.235932	0.606805
41239	-11.925073	23.987229	12.967917	-0.622774	-0.457982	-0.242223	0.586287
41240	-14.967798	22.541084	10.586664	-0.653968	-0.439580	-0.248786	0.563207
41241	-16.998862	19.993280	7.807699	-0.689491	-0.413964	-0.254356	0.537159
41242	-16.949447	16.930579	5.305155	-0.727696	-0.382655	-0.256475	0.508187
41243	-16.129852	14.638135	3.075712	-0.766907	-0.347342	-0.253052	0.476626
41244	-16.243820	13.139393	0.541446	-0.805468	-0.310619	-0.242417	0.442686
41245	-17.771474	11.857084	-2.405320	-0.842870	-0.273637	-0.225495	0.404777
41246	-20.360681	8.767287	-6.944498	-0.877466	-0.239356	-0.203828	0.362238
41247	-22.405103	3.179322	-11.216970	-0.907965	-0.205375	-0.181107	0.317207
41248	-24.615697	-0.602621	-9.605333	-0.932969	-0.169785	-0.163904	0.271805
41249	-23.438950	-2.776884	-6.629288	-0.952772	-0.143195	-0.143091	0.226374
41250	-16.773104	-3.363167	-3.923671	-0.970852	-0.120383	-0.115712	0.171944
41251	-11.649355	-10.017459	-3.785179	-0.982992	-0.093624	-0.097423	0.124382
41252	-14.473920	-14.093044	0.777642	-0.990165	-0.055242	-0.081316	0.099547
41253	-12.378382	-30.714156	-6.403163	-0.993331	-0.027100	-0.076084	0.082284
41254	-14.455231	-29.754062	-1.638048	-0.993685	0.001258	-0.082173	0.076390
41255	-12.241974	-32.671051	4.290496	-0.992414	-0.002978	-0.089653	0.084076
41256	-12.059859	-18.858979	6.193271	-0.989076	-0.018347	-0.101553	0.105253
41257	-11.474840	-9.843405	9.831937	-0.984061	-0.027549	-0.116483	0.131517
41258	-12.149382	-7.887974	9.208475	-0.977268	-0.031365	-0.134544	0.160817
41259	-13.502324	-9.039709	4.902830	-0.967756	-0.041013	-0.154797	0.194433
41260	-14.435360	-9.710613	1.390144	-0.954354	-0.064578	-0.174918	0.233326
41261	-17.149660	-5.659414	0.649676	-0.936987	-0.088195	-0.198769	0.273438
41262	-18.898312	-4.071572	-0.708796	-0.915784	-0.110292	-0.223689	0.314862
41263	-19.174190	-1.632164	-1.945995	-0.890441	-0.131808	-0.249555	0.357021
41264	-19.233964	-2.100508	-1.370033	-0.860476	-0.151540	-0.280801	0.397199
41265	-20.782872	-5.354908	-0.611560	-0.824868	-0.175312	-0.311575	0.437927
41266	-21.171923	-4.292232	-1.759468	-0.782928	-0.206261	-0.337241	0.480363
41267	-20.665048	-1.686839	-1.597585	-0.737622	-0.237319	-0.360200	0.519469
41268	-18.532834	-0.947350	-0.520186	-0.691588	-0.269919	-0.373317	0.556313
41269	-16.529209	1.399418	-1.509692	-0.646266	-0.301768	-0.377097	0.590824
41270	-14.567970	5.129511	-3.598544	-0.602796	-0.332924	-0.370911	0.623076
41271	-14.990344	7.026013	-5.511063	-0.561381	-0.360735	-0.361671	0.651088
41272	-16.010562	7.303158	-6.986212	-0.520179	-0.388856	-0.344069	0.678101
41273	-15.363746	9.216721	-6.252016	-0.480192	-0.417410	-0.318094	0.702852
41274	-12.280376	11.074417	-4.412171	-0.443216	-0.445515	-0.285521	0.723570
41275	-9.311679	11.226574	-2.839384	-0.409041	-0.471276	-0.249594	0.740465
41276	-6.389429	12.264876	-1.314926	-0.377736	-0.493112	-0.213295	0.754097
41277	-5.237215	10.881032	-0.062850	-0.349820	-0.510132	-0.178906	0.765104
41278	-4.630579	9.445448	0.651083	-0.324977	-0.521895	-0.144722	0.775288
41279	-4.759045	8.235221	0.896598	-0.302565	-0.529325	-0.111019	0.784821
41280	-5.629015	7.634653	0.173294	-0.281212	-0.533233	-0.077337	0.794104
41281	-6.680802	7.609779	0.027740	-0.261861	-0.533042	-0.045758	0.803244
41282	-6.638401	7.626904	-0.041011	-0.242605	-0.531273	-0.017494	0.811533
41283	-7.051635	8.525553	0.354074	-0.223891	-0.529624	0.006582	0.818125
41284	-8.625081	9.063101	0.734558	-0.206977	-0.529654	0.025019	0.822193
41285	-11.288430	8.898033	1.119050	-0.192106	-0.530354	0.037513	0.824871
41286	-13.506447	8.146794	1.973334	-0.179382	-0.531065	0.045171	0.826892
41287	-14.461402	7.442225	2.941118	-0.167178	-0.532383	0.052664	0.828158
41288	-14.008036	9.318249	4.392057	-0.155670	-0.535492	0.060409	0.827868
41289	-13.301159	11.280666	6.202071	-0.146836	-0.539601	0.065471	0.826428
41290	-12.005141	11.130237	8.054298	-0.141879	-0.543706	0.066097	0.824551
41291	-10.888006	9.705154	8.738313	-0.140368	-0.546809	0.064112	0.822913
41292	-10.610808	8.650636	7.751417	-0.142134	-0.548233	0.060711	0.821920
41293	-10.980731	7.043417	5.902152	-0.147179	-0.547139	0.056754	0.822044
41294	-10.409816	5.095308	4.517074	-0.154115	-0.544104	0.054251	0.822956
41295	-9.619759	4.548893	3.288503	-0.161806	-0.540330	0.053536	0.824012
41296	-8.956388	4.027069	2.410030	-0.169904	-0.536565	0.053591	0.824839
41297	-8.054845	3.793011	1.942622	-0.178043	-0.533080	0.053514	0.825386
41298	-7.549149	3.382216	1.743139	-0.186133	-0.530144	0.052663	0.825548
41299	-7.522916	3.333083	1.653895	-0.194322	-0.527823	0.050912	0.825257
41300	-7.836371	3.496344	1.707573	-0.202592	-0.526205	0.047802	0.824487
41301	-7.801099	3.891734	2.169540	-0.210102	-0.525580	0.043316	0.823254
41302	-7.872796	4.478214	2.545298	-0.216568	-0.525976	0.036699	0.821645
41303	-7.946633	5.128118	2.918613	-0.222209	-0.527345	0.026967	0.819636
41304	-8.496143	6.261801	2.568254	-0.227351	-0.529745	0.013762	0.817002
41305	-8.764507	7.857893	1.912202	-0.233303	-0.533365	-0.003345	0.813068
41306	-9.067323	8.125511	1.511752	-0.240890	-0.537012	-0.025271	0.808054
41307	-8.269805	7.490286	1.894307	-0.248895	-0.539377	-0.051005	0.802821
41308	-7.381552	6.076578	2.583989	-0.255368	-0.540605	-0.079303	0.797649
41309	-7.837837	6.432409	2.853004	-0.259720	-0.540841	-0.109050	0.792556
41310	-9.229234	9.102270	1.829555	-0.263535	-0.538118	-0.140604	0.788168
41311	-9.436289	10.014052	0.741875	-0.270161	-0.529957	-0.176827	0.784150
41312	-8.443367	9.200953	-0.695052	-0.279616	-0.516763	-0.216043	0.779805
41313	-8.963354	9.257423	-2.268524	-0.291395	-0.499172	-0.256928	0.774535
41314	-9.427163	8.190039	-3.925030	-0.305770	-0.477392	-0.297258	0.768270
41315	-8.990677	6.607090	-5.361638	-0.323413	-0.452625	-0.335788	0.760119
41316	-8.146750	5.736196	-6.310318	-0.343615	-0.426155	-0.369703	0.750760
41317	-7.739249	4.342167	-7.084088	-0.367091	-0.397990	-0.398636	0.740228
41318	-6.937815	1.376303	-7.192664	-0.394512	-0.368258	-0.423364	0.727674
41319	-7.268366	-1.912667	-7.953827	-0.424564	-0.340162	-0.441758	0.713362
41320	-8.556204	-5.476547	-8.909705	-0.456446	-0.316781	-0.455145	0.695809
41321	-9.940077	-10.232023	-9.040648	-0.488474	-0.299001	-0.462896	0.676549
41322	-10.270312	-13.658187	-7.343734	-0.518154	-0.286493	-0.467018	0.656759
41323	-11.043455	-15.381771	-4.659892	-0.543361	-0.278442	-0.469728	0.637640
41324	-11.478585	-16.955778	-1.795123	-0.564966	-0.272582	-0.472628	0.618979
41325	-11.124401	-18.262133	0.362263	-0.583844	-0.267964	-0.476104	0.600538
41326	-11.809720	-19.900544	1.728677	-0.598643	-0.265751	-0.479080	0.584367
41327	-12.802782	-19.308162	3.261012	-0.608284	-0.266202	-0.480500	0.572928
41328	-13.357352	-16.214894	4.984254	-0.613333	-0.267998	-0.481414	0.565898
41329	-13.976107	-13.509299	6.042465	-0.616409	-0.268565	-0.482386	0.561441
41330	-14.142329	-11.813433	6.474309	-0.617913	-0.267856	-0.483239	0.559389
41331	-13.845545	-10.578384	5.762584	-0.617588	-0.267384	-0.482454	0.560651
41332	-12.740465	-9.225542	4.885958	-0.615665	-0.267617	-0.479807	0.564909
41333	-11.740927	-7.579056	4.076857	-0.612104	-0.269322	-0.475267	0.571765
41334	-10.955365	-5.426644	3.659115	-0.607172	-0.272089	-0.469880	0.580106
41335	-10.135338	-3.432433	3.119230	-0.601203	-0.275444	-0.464617	0.588912
41336	-9.192720	-2.371167	2.333610	-0.594472	-0.279351	-0.460128	0.597368
41337	-8.025939	-1.487195	1.918137	-0.586976	-0.284476	-0.456079	0.605412
41338	-6.991314	-1.859930	2.078247	-0.579370	-0.289897	-0.453060	0.612394
41339	-6.439052	-1.792902	2.340877	-0.571680	-0.296427	-0.449028	0.619425
41340	-5.533172	-1.042128	2.448787	-0.564349	-0.303246	-0.444473	0.626096
41341	-5.197876	-0.153567	2.786764	-0.557537	-0.310206	-0.440718	0.631421
41342	-4.670377	0.405170	2.971436	-0.551941	-0.316496	-0.438385	0.634831
41343	-4.523964	0.792895	2.833233	-0.547372	-0.322910	-0.437788	0.635967
41344	-4.987697	0.528147	3.152745	-0.544284	-0.329340	-0.438122	0.635090
41345	-5.379927	-0.553648	3.949993	-0.543384	-0.335617	-0.437920	0.632710
41346	-5.711769	-0.780975	5.052852	-0.544313	-0.342844	-0.435293	0.629843
41347	-5.736785	-0.254786	5.987182	-0.547918	-0.349791	-0.430014	0.626514
41348	-5.220849	0.852347	7.307205	-0.553649	-0.356732	-0.421956	0.623032
41349	-5.746464	0.879097	8.234077	-0.561682	-0.362145	-0.412965	0.618727
41350	-6.816197	0.533071	8.372720	-0.571195	-0.365970	-0.403967	0.613688
41351	-8.600408	0.545396	8.544037	-0.581588	-0.368788	-0.394698	0.608247
41352	-8.974700	0.850894	8.590845	-0.594148	-0.368250	-0.385200	0.602495
41353	-8.192783	1.316053	8.793141	-0.608289	-0.364260	-0.375977	0.596607
41354	-7.902789	1.345070	8.044409	-0.623201	-0.358001	-0.366894	0.590631
41355	-8.277918	1.329174	6.878683	-0.638985	-0.349880	-0.358230	0.583911
41356	-9.202772	0.720442	5.811442	-0.655523	-0.340953	-0.348758	0.576548
41357	-9.763647	-0.222007	5.113169	-0.671434	-0.332710	-0.337650	0.569626
41358	-9.618216	-0.804802	4.630768	-0.685705	-0.325220	-0.325259	0.564134
41359	-8.685435	-0.800734	3.808488	-0.697416	-0.319515	-0.311337	0.560883
41360	-8.089439	-1.138419	3.769595	-0.706531	-0.315209	-0.297308	0.559522
41361	-8.543608	-1.490822	3.656433	-0.712301	-0.313280	-0.282549	0.560936
41362	-8.633864	-1.505768	3.350176	-0.715201	-0.313223	-0.266804	0.564973
41363	-8.192961	-1.053941	2.984276	-0.715781	-0.315190	-0.249610	0.570971
41364	-7.538394	-0.522712	2.595696	-0.714278	-0.318672	-0.232665	0.578033
41365	-7.948824	0.200331	2.004585	-0.710411	-0.323798	-0.216437	0.586196
41366	-7.962896	0.736133	1.845489	-0.704599	-0.329809	-0.200858	0.595334
41367	-8.104801	1.077381	1.994593	-0.696586	-0.336727	-0.186051	0.605614
41368	-8.394960	1.293872	2.345429	-0.686708	-0.343931	-0.172686	0.616703
41369	-8.284450	1.867685	2.865739	-0.675467	-0.351610	-0.161249	0.627785
41370	-7.972464	2.620848	3.167862	-0.663759	-0.359780	-0.152235	0.637814
41371	-7.292710	2.180063	3.538058	-0.651956	-0.367843	-0.145392	0.646920
41372	-7.447014	1.689114	3.758765	-0.639034	-0.377723	-0.139447	0.655374
41373	-7.497433	2.291647	3.966934	-0.625457	-0.387389	-0.134063	0.663897
41374	-7.470988	2.379627	4.207813	-0.610989	-0.396714	-0.129474	0.672716
41375	-8.413229	2.121088	4.240234	-0.596125	-0.405230	-0.126469	0.681490
41376	-9.980007	2.375793	4.747543	-0.579921	-0.413903	-0.122928	0.690843
41377	-9.513950	3.401790	4.851903	-0.563567	-0.420754	-0.119391	0.700788
41378	-8.471202	2.919783	4.502926	-0.548295	-0.425435	-0.116286	0.710532
41379	-7.937153	2.353912	3.260222	-0.533810	-0.430501	-0.110439	0.719388
41380	-7.858039	2.253329	2.446751	-0.520552	-0.435628	-0.103007	0.727079
41381	-7.974871	3.157011	2.614927	-0.507370	-0.441543	-0.093959	0.734021
41382	-7.727355	3.615130	2.795997	-0.495318	-0.446465	-0.085871	0.740240
41383	-7.595230	4.292441	2.662264	-0.483600	-0.450701	-0.077626	0.746306
41384	-7.655631	4.960519	2.167867	-0.473386	-0.453573	-0.071461	0.751711
41385	-7.422576	4.475693	1.600041	-0.464603	-0.455892	-0.066705	0.756212
41386	-6.869263	2.867305	1.775242	-0.456087	-0.459907	-0.061511	0.759399
41387	-6.310875	3.190608	2.038353	-0.447895	-0.465059	-0.057391	0.761457
41388	-6.096555	3.835967	2.530157	-0.440123	-0.471298	-0.053838	0.762411
41389	-5.911270	4.833021	3.050662	-0.433081	-0.477850	-0.050909	0.762567
41390	-5.938121	4.907621	3.595892	-0.427497	-0.483734	-0.050519	0.762034
41391	-6.680069	4.182396	4.017165	-0.422540	-0.488734	-0.050896	0.761583
41392	-7.140152	3.835393	4.944390	-0.418353	-0.492132	-0.053111	0.761555
41393	-7.588452	3.690069	5.592029	-0.414442	-0.493974	-0.057078	0.762213
41394	-7.443976	4.007935	5.830682	-0.411334	-0.494150	-0.062580	0.763350
41395	-7.154823	3.986803	6.187376	-0.408954	-0.493603	-0.068801	0.764447
41396	-7.549107	4.200547	6.012262	-0.407354	-0.492686	-0.075166	0.765293
41397	-8.289676	4.480437	5.890490	-0.407228	-0.491726	-0.082572	0.765214
41398	-8.382169	3.987184	6.224589	-0.407833	-0.491516	-0.088945	0.764312
41399	-8.181588	3.645683	6.331918	-0.408625	-0.492246	-0.092807	0.762959
41400	-8.318799	3.879618	6.239679	-0.408997	-0.494305	-0.093608	0.761329
41401	-8.706159	4.832991	6.130687	-0.408936	-0.496729	-0.092274	0.759946
41402	-9.519104	4.997191	6.386598	-0.409495	-0.498317	-0.091378	0.758712
41403	-10.497507	4.297422	6.973949	-0.410313	-0.499261	-0.090713	0.757728
41404	-11.064136	3.651118	7.372998	-0.411430	-0.499481	-0.090520	0.757001
41405	-11.907736	3.126144	7.320820	-0.412316	-0.499815	-0.090206	0.756336
41406	-12.930082	3.425826	7.191391	-0.412550	-0.500651	-0.089655	0.755720
41407	-13.166424	4.313692	6.834413	-0.411921	-0.501667	-0.089169	0.755447
41408	-12.860893	4.964920	6.910138	-0.411358	-0.502229	-0.089793	0.755307
41409	-13.107467	5.061015	7.598476	-0.411083	-0.502364	-0.091487	0.755163
41410	-13.889611	4.823038	8.268904	-0.410906	-0.502689	-0.093341	0.754816
41411	-14.021920	4.571581	8.519661	-0.411386	-0.503199	-0.094833	0.754028
41412	-14.292534	4.271426	8.308432	-0.412508	-0.504351	-0.095196	0.752599
41413	-14.551150	4.419619	8.183078	-0.413714	-0.505871	-0.093680	0.751105
41414	-13.898053	4.921442	7.885213	-0.414734	-0.507324	-0.090804	0.749915
41415	-13.481352	5.113724	7.784565	-0.415926	-0.507992	-0.087183	0.749232
41416	-12.648869	5.183136	7.453139	-0.417135	-0.507749	-0.083067	0.749192
41417	-12.161839	4.489097	7.250060	-0.418772	-0.506842	-0.080091	0.749217
41418	-12.300581	4.051627	6.990065	-0.420291	-0.505865	-0.077421	0.749308
41419	-12.282882	3.928475	6.698400	-0.421362	-0.505422	-0.074215	0.749330
41420	-11.584275	4.325176	6.274303	-0.421829	-0.505643	-0.070427	0.749284
41421	-10.849046	4.842692	5.791856	-0.421781	-0.506587	-0.066222	0.749056
41422	-10.426618	4.855164	5.328828	-0.422163	-0.507194	-0.062542	0.748747
41423	-10.596731	4.491300	5.398501	-0.423077	-0.507513	-0.059902	0.748230
41424	-10.520638	3.947438	5.568730	-0.424238	-0.507161	-0.058063	0.747956
41425	-9.427194	3.544674	5.484962	-0.424967	-0.506222	-0.056777	0.748277
41426	-7.987298	3.481733	5.114814	-0.425088	-0.504632	-0.056183	0.749326
41427	-6.495537	3.603504	4.344946	-0.425388	-0.502189	-0.057294	0.750712
41428	-6.016147	3.146149	3.701175	-0.425704	-0.499656	-0.059345	0.752063
41429	-6.369423	2.898000	3.106548	-0.426193	-0.496830	-0.062291	0.753418
41430	-5.814389	2.655395	2.914906	-0.426753	-0.493931	-0.066186	0.754674
41431	-4.976337	2.062400	2.800716	-0.426398	-0.491801	-0.068865	0.756025
41432	-3.643176	2.037695	2.451287	-0.424810	-0.490353	-0.069131	0.757833
41433	-2.452989	3.010013	1.992228	-0.423856	-0.488072	-0.070210	0.759738
41434	-1.544505	3.214231	2.168172	-0.424235	-0.484761	-0.073223	0.761360
41435	-1.134993	2.559496	2.116288	-0.425394	-0.481419	-0.077502	0.762410
41436	-1.257307	1.624081	2.008859	-0.426770	-0.478356	-0.081088	0.763196
41437	-1.302171	1.836379	1.664510	-0.428362	-0.475589	-0.083510	0.763772
41438	-1.734968	2.145501	1.632875	-0.430709	-0.472947	-0.086116	0.763803
41439	-2.230863	2.307241	2.136528	-0.433488	-0.470618	-0.088138	0.763439
41440	-2.894774	2.733036	2.473191	-0.437252	-0.468582	-0.090531	0.762264
41441	-3.450036	3.138634	2.692990	-0.442163	-0.466595	-0.093512	0.760287
41442	-4.207625	3.286514	2.684883	-0.448580	-0.464691	-0.097689	0.757163
41443	-5.490758	3.241531	3.010750	-0.456275	-0.462986	-0.102566	0.752952
41444	-6.727547	3.378432	3.385958	-0.464502	-0.461933	-0.106386	0.748023
41445	-7.134398	4.155923	3.386019	-0.472937	-0.461973	-0.109965	0.742172
41446	-8.389233	4.753623	3.374985	-0.482622	-0.462186	-0.116442	0.734779
41447	-9.393670	5.124117	3.056158	-0.493181	-0.461140	-0.124703	0.727029
41448	-9.768426	5.912310	2.845647	-0.503974	-0.459322	-0.134233	0.719038
41449	-10.006678	6.515409	3.098263	-0.515232	-0.456841	-0.145474	0.710401
41450	-9.813380	7.319502	3.178357	-0.527294	-0.453430	-0.157688	0.701068
41451	-9.555979	7.462765	3.321499	-0.540708	-0.449354	-0.171215	0.690218
41452	-9.813840	7.258301	3.343255	-0.555806	-0.443687	-0.185468	0.678103
41453	-9.517967	7.051641	3.259801	-0.572418	-0.436197	-0.199634	0.664993
41454	-9.452903	7.479673	3.196758	-0.589774	-0.427851	-0.212611	0.651081
41455	-9.790561	7.053945	3.406295	-0.608203	-0.418138	-0.224998	0.636102
41456	-10.029585	6.385523	3.320462	-0.628084	-0.406330	-0.235961	0.620265
41457	-10.784256	5.883464	3.304158	-0.649582	-0.392424	-0.246180	0.602861
41458	-12.029918	5.345579	3.438602	-0.672237	-0.376544	-0.255422	0.584014
41459	-12.859565	4.832812	3.642375	-0.695475	-0.358045	-0.263833	0.564368
41460	-12.999925	3.780431	3.182490	-0.718953	-0.337119	-0.270914	0.544117
41461	-12.738843	3.117043	2.907579	-0.741544	-0.315238	-0.276960	0.523480
41462	-12.001222	2.964121	2.383683	-0.762935	-0.291088	-0.283234	0.502968
41463	-11.144464	2.402354	1.544315	-0.783002	-0.264159	-0.290400	0.482490
41464	-11.028696	0.982585	0.902412	-0.801498	-0.235897	-0.297705	0.461871
41465	-10.663156	0.084126	0.322827	-0.818416	-0.207285	-0.303786	0.441522
41466	-11.052557	-0.041567	0.340697	-0.833426	-0.178036	-0.309325	0.421928
41467	-11.348604	-0.415829	0.791961	-0.846696	-0.148425	-0.313955	0.403122
41468	-10.828821	-1.450232	0.794982	-0.857911	-0.118978	-0.319166	0.384663
41469	-10.164167	-2.014050	1.318767	-0.866270	-0.092055	-0.326203	0.367005
41470	-8.874679	-1.042671	1.981499	-0.872437	-0.068847	-0.333545	0.350516
41471	-7.172367	-0.018421	2.055933	-0.876663	-0.043867	-0.344778	0.332666
41472	-8.353131	-1.412368	3.196397	-0.879421	-0.016025	-0.358125	0.313222
41473	-10.185785	-2.043389	4.126388	-0.881047	0.013802	-0.371127	0.292969
41474	-10.341913	-3.524902	4.089074	-0.882474	0.046204	-0.381885	0.270681
41475	-9.426916	-3.457970	3.837662	-0.882596	0.078797	-0.392125	0.247091
41476	-8.712262	-3.920466	4.126764	-0.880133	0.114585	-0.404096	0.221231
41477	-8.223956	-5.034157	3.745743	-0.875699	0.150762	-0.415205	0.195002
41478	-7.833191	-6.281906	3.161666	-0.870926	0.186618	-0.422112	0.168771
41479	-7.355872	-6.225608	2.646903	-0.866897	0.217613	-0.424481	0.144742
41480	-6.559717	-5.021077	1.605053	-0.863267	0.245031	-0.423780	0.123048
41481	-4.932024	-4.349407	1.263496	-0.859376	0.271301	-0.420860	0.103661
41482	-4.261571	-4.227408	1.006187	-0.854566	0.298391	-0.416369	0.085537
41483	-3.543590	-5.388589	0.556252	-0.848132	0.328483	-0.410315	0.066431
41484	-3.783413	-6.002503	-0.102542	-0.841837	0.354489	-0.403838	0.050626
41485	-3.533615	-5.494789	-0.814252	-0.835183	0.378577	-0.397160	0.037600
41486	-2.898115	-5.689949	-0.952885	-0.828382	0.400390	-0.390695	0.028790
41487	-2.196603	-6.360538	-0.415499	-0.821908	0.421369	-0.382624	0.022681
41488	-2.017799	-6.547048	0.561403	-0.816859	0.438939	-0.373804	0.018577
41489	-1.423192	-5.471194	0.752485	-0.811967	0.455728	-0.364453	0.013997
41490	-0.469273	-4.692394	-0.010073	-0.805882	0.474143	-0.354517	0.007768
41491	-0.403465	-4.620431	-0.873956	-0.798377	0.493853	-0.344533	0.000950
41492	-1.927930	-5.083220	-1.808500	-0.790577	0.512781	-0.334687	-0.005331
41493	-3.519732	-5.100572	-2.166426	-0.782750	0.529433	-0.326977	-0.009440
41494	-4.130710	-6.106553	-0.337661	-0.773221	0.546330	-0.321705	-0.012576
41495	-3.743846	-6.583018	2.729937	-0.762628	0.563292	-0.317610	-0.014964
41496	-2.519874	-7.599654	4.015700	-0.749081	0.583363	-0.313325	-0.019826
41497	-2.630209	-9.486600	3.042103	-0.736185	0.602282	-0.307548	-0.026495
41498	-2.370064	-10.579293	-0.245919	-0.724275	0.619678	-0.300439	-0.034071
41499	-3.398174	-11.778684	-2.244776	-0.712949	0.635715	-0.293208	-0.040005
41500	-6.059246	-11.334932	-4.163678	-0.702381	0.650295	-0.285863	-0.045385
41501	-7.699116	-12.842083	-5.966576	-0.687769	0.667831	-0.279542	-0.053205
41502	-8.021073	-18.956888	-6.000264	-0.670702	0.686603	-0.273361	-0.063313
41503	-7.030920	-21.195726	-3.525839	-0.662345	0.696453	-0.267124	-0.069976
41504	-4.977932	-17.019726	-1.526017	-0.660703	0.700321	-0.260064	-0.073413
41505	-4.184793	-14.045511	-1.220691	-0.660132	0.703436	-0.252455	-0.075299
41506	-4.409726	-12.454130	-2.257158	-0.658862	0.706612	-0.246468	-0.076512
41507	-4.694762	-13.023031	-3.980531	-0.653644	0.712564	-0.241939	-0.080423
41508	-4.338419	-16.771919	-6.063844	-0.649281	0.716881	-0.239176	-0.085500
41509	-5.100745	-18.884628	-7.220238	-0.652275	0.714198	-0.237860	-0.088775
41510	-5.918198	-18.813563	-7.213359	-0.661701	0.705556	-0.237681	-0.088604
41511	-7.239618	-18.850781	-5.985281	-0.674779	0.693366	-0.237560	-0.086497
41512	-6.487724	-21.003290	-5.617681	-0.689799	0.678834	-0.237580	-0.083173
41513	-5.872412	-24.181209	-6.643257	-0.710833	0.657425	-0.238138	-0.076158
41514	-4.466217	-25.237723	-7.618920	-0.740415	0.625097	-0.238755	-0.063520
41515	-2.585677	-22.634209	-7.493864	-0.777072	0.580673	-0.239050	-0.042818
41516	-1.283774	-17.189228	-7.222267	-0.814234	0.529223	-0.238137	-0.015398
41517	-1.674091	-11.337372	-5.806682	-0.845688	0.478225	-0.236409	0.014942
41518	-2.136853	-6.586105	-3.247806	-0.869496	0.431798	-0.235510	0.045412
41519	-2.437012	-3.986562	-1.778561	-0.887774	0.388401	-0.235906	0.073151
41520	-2.524700	-2.738619	-0.569777	-0.902813	0.343778	-0.238684	0.098868
41521	-3.077904	-0.449157	0.729830	-0.915455	0.296277	-0.243527	0.121889
41522	-2.894556	2.696236	1.733390	-0.924943	0.248651	-0.250552	0.140984
41523	-3.676278	4.823623	3.237057	-0.930325	0.207064	-0.261293	0.152797
41524	-3.836378	4.076240	4.053585	-0.933213	0.170144	-0.274785	0.157031
41525	-4.571453	3.896057	3.737742	-0.934926	0.134942	-0.288960	0.155585
41526	-4.699112	2.983377	3.411242	-0.935959	0.101946	-0.302339	0.148925
41527	-3.968462	2.031890	2.624983	-0.936702	0.067634	-0.313524	0.140421
41528	-3.791109	1.742485	2.208403	-0.936821	0.033903	-0.322607	0.130927
41529	-3.232615	0.509678	2.229497	-0.936390	0.000063	-0.329401	0.121118
41530	-3.580076	2.201291	2.501500	-0.935363	-0.036553	-0.333131	0.113066
41531	-3.781539	2.008835	2.785728	-0.933969	-0.070653	-0.333786	0.106286
41532	-3.919314	1.442779	2.630949	-0.931716	-0.101612	-0.333252	0.102583
41533	-4.569184	1.775080	3.290532	-0.928421	-0.131028	-0.332282	0.102248
41534	-4.021881	3.955618	3.599594	-0.924067	-0.161544	-0.330072	0.105152
41535	-4.271065	4.765320	4.323319	-0.919283	-0.189070	-0.327632	0.108757
41536	-5.045965	4.073778	3.718978	-0.914829	-0.212734	-0.323876	0.113736
41537	-5.923717	3.783771	3.490997	-0.909640	-0.234801	-0.320708	0.120706
41538	-6.701986	4.716438	3.806630	-0.903956	-0.254312	-0.318876	0.128478
41539	-7.233523	4.811726	4.436668	-0.897807	-0.271206	-0.319034	0.136407
41540	-7.686018	4.938738	5.045575	-0.891550	-0.286408	-0.320019	0.143865
41541	-7.631408	5.864986	5.454526	-0.885459	-0.300197	-0.321144	0.150701
41542	-6.945302	5.690606	6.166917	-0.880118	-0.311531	-0.321641	0.157760
41543	-6.110937	4.951837	6.631942	-0.874995	-0.321167	-0.322022	0.165945
41544	-5.979445	4.804414	6.676153	-0.869694	-0.330290	-0.322191	0.175311
41545	-6.334177	4.811952	6.328367	-0.864711	-0.337638	-0.322328	0.185417
41546	-6.673014	4.976069	6.005337	-0.859979	-0.342894	-0.322883	0.196486
41547	-7.354797	4.519873	5.787377	-0.855277	-0.345719	-0.324799	0.208529
41548	-7.902818	3.896702	5.923852	-0.850317	-0.346203	-0.328659	0.221556
41549	-8.287199	3.451512	6.247997	-0.844481	-0.345259	-0.335176	0.235170
41550	-8.917481	2.574751	7.319101	-0.837453	-0.343203	-0.344559	0.249325
41551	-9.299563	1.786027	7.622018	-0.828337	-0.341360	-0.356277	0.265327
41552	-9.333005	1.609060	7.168361	-0.817179	-0.339787	-0.369328	0.283480
41553	-8.777543	1.913322	6.341092	-0.804434	-0.338656	-0.382215	0.303497
41554	-7.008985	2.844080	4.683953	-0.791260	-0.337047	-0.393987	0.324163
41555	-5.359575	3.812428	3.176485	-0.778233	-0.332337	-0.409161	0.341311
41556	-6.704068	2.673051	4.004653	-0.765215	-0.326040	-0.424124	0.358138
41557	-8.153594	2.387848	3.183665	-0.751310	-0.320137	-0.438375	0.375330
41558	-11.231177	1.272165	2.266622	-0.737321	-0.315074	-0.451274	0.391713
41559	-12.470469	2.712035	1.167185	-0.721918	-0.315725	-0.460543	0.408720
41560	-13.085699	4.167168	0.850139	-0.708174	-0.315753	-0.471404	0.420200
41561	-13.847177	2.416983	2.513325	-0.696461	-0.317176	-0.480428	0.428405
41562	-14.366226	1.880601	2.471383	-0.684653	-0.325131	-0.483401	0.438021
41563	-12.322840	4.355005	0.025110	-0.673575	-0.338384	-0.481473	0.447186
41564	-10.538009	7.963516	-0.616469	-0.664770	-0.351039	-0.484126	0.447743
41565	-11.738493	4.084512	3.493405	-0.662269	-0.355977	-0.492587	0.438222
41566	-11.776029	-1.190549	3.045606	-0.659771	-0.363383	-0.494648	0.433565
41567	-9.326341	2.829104	-0.553094	-0.653790	-0.377750	-0.490640	0.434897
41568	-8.811582	4.059551	0.452515	-0.654678	-0.378730	-0.497474	0.424829
41569	-9.798239	-2.477589	2.967316	-0.657512	-0.374091	-0.505725	0.414699
41570	-10.001491	-5.278876	2.910483	-0.652301	-0.380379	-0.504963	0.418124
41571	-10.864323	-3.832457	1.473205	-0.644427	-0.386448	-0.504393	0.425393
41572	-11.999024	-4.433220	0.578642	-0.636707	-0.389368	-0.503335	0.435489
41573	-12.913981	-4.205027	0.221823	-0.628669	-0.392338	-0.498878	0.449406
41574	-11.978376	-3.095097	-0.591593	-0.620145	-0.396452	-0.491549	0.465431
41575	-11.748536	-1.923325	-1.035616	-0.611484	-0.400601	-0.482578	0.482416
41576	-11.651254	-1.248017	-0.917925	-0.603150	-0.404336	-0.471568	0.500346
41577	-11.671001	-0.892996	-0.802297	-0.594705	-0.407787	-0.458168	0.519729
41578	-11.837811	0.235328	-1.116086	-0.585858	-0.411445	-0.442528	0.540049
41579	-11.312422	1.701747	-1.341281	-0.578508	-0.413733	-0.427207	0.558254
41580	-10.308133	1.627814	-1.454722	-0.573425	-0.414303	-0.414768	0.572280
41581	-9.780831	0.578131	-1.267908	-0.567764	-0.417056	-0.402730	0.584394
41582	-9.771622	0.648259	-1.352297	-0.561548	-0.421985	-0.389106	0.595977
41583	-9.549425	1.007027	-1.395557	-0.555884	-0.427560	-0.373908	0.606941
41584	-9.109761	0.704310	-1.111381	-0.551204	-0.433030	-0.358887	0.616328
41585	-9.308549	-0.357928	-0.646137	-0.546467	-0.439455	-0.343682	0.624609
41586	-9.339498	-0.932296	-0.501406	-0.540611	-0.447363	-0.327333	0.632819
41587	-9.282616	-0.989117	-0.361861	-0.533601	-0.455701	-0.311037	0.640986
41588	-9.115262	-1.392214	-0.061912	-0.525038	-0.464088	-0.294841	0.649635
41589	-8.723689	-1.031928	0.387358	-0.513829	-0.473397	-0.278087	0.659198
41590	-8.460873	-0.359369	0.736130	-0.501294	-0.482152	-0.263162	0.668566
41591	-8.225936	0.066254	1.199701	-0.487556	-0.490724	-0.250320	0.677361
41592	-8.215298	0.631275	1.377718	-0.472894	-0.498711	-0.239795	0.685680
41593	-8.551904	1.441310	1.480227	-0.457787	-0.505841	-0.231334	0.693571
41594	-8.609916	1.759777	1.663369	-0.443265	-0.511368	-0.225247	0.700916
41595	-8.669061	1.687788	1.617811	-0.428465	-0.516517	-0.220044	0.707961
41596	-8.924805	1.562132	1.576900	-0.413546	-0.521478	-0.215300	0.714623
41597	-9.305346	0.878261	1.885229	-0.397868	-0.526632	-0.210301	0.721203
41598	-9.504404	0.556819	1.904441	-0.380189	-0.532827	-0.203529	0.728099
41599	-9.698376	0.945474	1.898980	-0.361008	-0.539553	-0.195720	0.735017
41600	-9.599047	1.809261	1.878989	-0.341976	-0.545733	-0.188514	0.741411
41601	-9.384974	2.570067	1.963007	-0.324790	-0.550937	-0.183581	0.746510
41602	-9.341796	2.144968	2.196319	-0.310111	-0.555402	-0.181733	0.749888
41603	-9.728324	1.185155	2.391986	-0.296499	-0.559905	-0.181214	0.752168
41604	-10.298362	0.929549	2.108551	-0.282761	-0.564668	-0.180733	0.754010
41605	-10.052111	1.227294	1.648671	-0.269630	-0.569181	-0.180866	0.755394
41606	-9.796567	0.532157	2.016198	-0.256422	-0.574047	-0.181634	0.756127
41607	-10.033597	-0.179295	2.584460	-0.240631	-0.580221	-0.180247	0.756936
41608	-10.599071	0.659828	2.756342	-0.223062	-0.586665	-0.177355	0.758032
41609	-11.173097	1.679975	3.002023	-0.206091	-0.592679	-0.175155	0.758669
41610	-11.765269	2.221660	3.495173	-0.190993	-0.598393	-0.174376	0.758314
41611	-11.764799	1.838197	3.852296	-0.178397	-0.603614	-0.175208	0.757052
41612	-11.376403	1.237360	3.892313	-0.167590	-0.608103	-0.176574	0.755610
41613	-11.019377	1.026734	3.526922	-0.158416	-0.611728	-0.178111	0.754301
41614	-10.523845	0.364332	3.169188	-0.151295	-0.614672	-0.180159	0.752882
41615	-10.269692	-0.873348	3.234130	-0.145200	-0.616947	-0.181757	0.751837
41616	-10.259405	-1.389562	2.897403	-0.137826	-0.618690	-0.180429	0.752111
41617	-10.146580	-1.245244	2.467379	-0.129675	-0.619711	-0.176778	0.753586
41618	-10.060687	-0.755983	2.020767	-0.120744	-0.620562	-0.171293	0.755634
41619	-9.973436	-0.175438	1.967015	-0.112528	-0.621190	-0.165331	0.757711
41620	-9.651239	-0.226693	2.107942	-0.105215	-0.621635	-0.159273	0.759692
41621	-9.423181	-0.472806	2.452890	-0.098511	-0.621691	-0.152929	0.761846
41622	-9.037185	-0.358637	2.634225	-0.091270	-0.621135	-0.145254	0.764698
41623	-8.530454	0.166367	2.588545	-0.083681	-0.620220	-0.136750	0.767870
41624	-8.095115	1.072503	2.464384	-0.076504	-0.619657	-0.128509	0.770491
41625	-8.302085	1.024326	2.809016	-0.071815	-0.619290	-0.122991	0.772137
41626	-8.517754	0.507245	2.995489	-0.068096	-0.619002	-0.118302	0.773436
41627	-8.734417	0.085787	2.991829	-0.065531	-0.618629	-0.114424	0.774539
41628	-8.907683	-0.536252	2.958977	-0.063348	-0.618133	-0.110361	0.775705
41629	-8.978233	-0.673636	2.826925	-0.060374	-0.617564	-0.104905	0.777152
41630	-8.853589	-0.236570	2.704147	-0.056976	-0.617222	-0.098716	0.778490
41631	-8.794039	-0.032969	2.696034	-0.054281	-0.617522	-0.093616	0.779074
41632	-8.999333	-0.399334	2.982751	-0.052702	-0.618493	-0.090356	0.778797
41633	-8.898735	-1.271565	3.227006	-0.051456	-0.619271	-0.087951	0.778537
41634	-8.839774	-1.749805	2.992228	-0.049087	-0.619857	-0.084549	0.778601
41635	-9.199168	-1.909684	2.946021	-0.045974	-0.619645	-0.080828	0.779354
41636	-8.985595	-2.393721	3.172595	-0.041612	-0.618070	-0.076650	0.781270
41637	-8.838708	-3.001707	3.432413	-0.035295	-0.615783	-0.071450	0.783875
41638	-9.193712	-2.120424	3.760472	-0.025956	-0.613112	-0.063937	0.786976
41639	-9.426481	-0.902878	4.079391	-0.016709	-0.610276	-0.057628	0.789913
41640	-9.594455	-1.070344	4.358063	-0.008622	-0.607453	-0.053471	0.792507
41641	-9.589670	-1.069941	4.330573	-0.001474	-0.604571	-0.051037	0.794913
41642	-9.855723	-1.571056	3.992337	0.005428	-0.601337	-0.049485	0.797443
41643	-9.845230	-1.791905	3.660572	0.012634	-0.597377	-0.048515	0.800392
41644	-9.609914	-2.765490	3.668677	0.020630	-0.593380	-0.048245	0.803211
41645	-9.333190	-3.297955	4.039719	0.031153	-0.589452	-0.046535	0.805860
41646	-9.240393	-2.699002	4.590090	0.044899	-0.585313	-0.042613	0.808441
41647	-9.123710	-1.872220	5.025666	0.060450	-0.580656	-0.038584	0.810984
41648	-9.181135	-1.637686	5.573558	0.076448	-0.575647	-0.035972	0.813322
41649	-8.897534	-0.506287	5.376003	0.092568	-0.570762	-0.034182	0.815164
41650	-8.470105	0.210803	4.827259	0.105916	-0.566586	-0.035594	0.816392
41651	-7.996447	0.042664	4.634972	0.116681	-0.563299	-0.039353	0.817026
41652	-7.845983	-0.697739	4.455268	0.125437	-0.561054	-0.044574	0.817005
41653	-7.797072	-1.377774	4.172105	0.133365	-0.559525	-0.049119	0.816538
41654	-7.874598	-1.446229	3.783797	0.140664	-0.558277	-0.052415	0.815961
41655	-8.011840	-1.404735	3.452439	0.147950	-0.557372	-0.053958	0.815191
41656	-9.120713	-0.597038	2.977802	0.155375	-0.556686	-0.054166	0.814264
41657	-10.190374	-0.349119	2.568591	0.161469	-0.556529	-0.055227	0.813114
41658	-9.347996	-0.519677	2.297270	0.166050	-0.556818	-0.057053	0.811866
41659	-8.135970	-1.181218	1.772848	0.169303	-0.557829	-0.059777	0.810303
41660	-8.322632	-1.657852	1.683878	0.171899	-0.559221	-0.062020	0.808626
41661	-9.931090	-2.462394	2.116844	0.174399	-0.559207	-0.062205	0.808086
41662	-10.442341	-2.720371	2.307147	0.177711	-0.556663	-0.058913	0.809367
41663	-10.481074	-2.492964	2.718877	0.181197	-0.552604	-0.053290	0.811762
41664	-10.227461	-1.588414	3.172927	0.185474	-0.548195	-0.045112	0.814277
41665	-9.920726	-0.632223	3.214682	0.188392	-0.545371	-0.037900	0.815869
41666	-9.846871	-0.349109	2.885724	0.187596	-0.545986	-0.034311	0.815800
41667	-10.031883	-1.642452	3.162957	0.182522	-0.549522	-0.035235	0.814537
41668	-10.041495	-2.764282	3.197357	0.176785	-0.553594	-0.035703	0.813023
41669	-9.432883	-3.375549	3.024861	0.171742	-0.556986	-0.034266	0.811848
41670	-8.506422	-3.229620	2.870941	0.168830	-0.559165	-0.029761	0.811138
41671	-7.573755	-2.318955	2.600958	0.167465	-0.560714	-0.023797	0.810548
41672	-7.133182	-1.379061	2.547474	0.166337	-0.562330	-0.018458	0.809800
41673	-7.263789	-0.802122	2.614920	0.164470	-0.564142	-0.015300	0.808987
41674	-7.538504	-0.561403	2.338185	0.161704	-0.565828	-0.014245	0.808386
41675	-7.519649	-0.419671	1.736535	0.157646	-0.567888	-0.015503	0.807719
41676	-7.727541	-1.264037	1.768335	0.151014	-0.570120	-0.020283	0.807308
41677	-8.541465	-3.171247	2.371984	0.145603	-0.571563	-0.023865	0.807184
41678	-9.763005	-3.404837	2.749006	0.144321	-0.570127	-0.022623	0.808464
41679	-10.185314	-2.477229	1.435864	0.144514	-0.566865	-0.018574	0.810823
41680	-10.096010	-1.410815	0.629922	0.143782	-0.564078	-0.014483	0.812978
41681	-10.130798	-1.790204	0.806999	0.141923	-0.562716	-0.011652	0.814293
41682	-9.952008	-2.419683	1.236995	0.141598	-0.562363	-0.006908	0.814647
41683	-9.904948	-3.146139	1.617359	0.143194	-0.562784	-0.000082	0.814106
41684	-9.749465	-3.025709	2.160498	0.148143	-0.563458	0.010578	0.812685
41685	-9.867495	-1.704037	2.585847	0.155473	-0.563897	0.023149	0.810748
41686	-9.309063	-0.156351	2.621405	0.163619	-0.564554	0.035795	0.808224
41687	-9.053964	0.179468	2.648145	0.170018	-0.567111	0.045195	0.804635
41688	-8.986305	0.014560	2.551299	0.175715	-0.571239	0.053236	0.799985
41689	-8.985601	-0.236767	2.651101	0.181047	-0.576147	0.060356	0.794754
41690	-9.143735	-0.294447	2.727789	0.186696	-0.581144	0.067592	0.789207
41691	-9.309343	-0.360926	2.895881	0.192793	-0.585706	0.074822	0.783697
41692	-9.467920	-0.263395	2.842752	0.199491	-0.589714	0.082076	0.778270
41693	-9.598069	-0.114489	2.806762	0.206544	-0.593288	0.089066	0.772927
41694	-9.647493	-0.148752	2.879319	0.214063	-0.596138	0.096095	0.767830
41695	-9.658863	0.055933	2.920153	0.222056	-0.598275	0.103239	0.762954
41696	-9.556074	0.390792	2.833859	0.230072	-0.599981	0.109737	0.758319
41697	-9.663524	0.373523	2.959021	0.237716	-0.601664	0.115344	0.753782
41698	-9.801889	0.306578	3.218251	0.245663	-0.602985	0.120632	0.749338
41699	-9.681930	0.785533	2.999449	0.253152	-0.604226	0.124959	0.745124
41700	-9.628068	0.913763	2.973243	0.259403	-0.605756	0.127894	0.741224
41701	-9.546342	0.695189	3.102578	0.264757	-0.607241	0.129723	0.737790
41702	-9.421709	0.513151	3.072134	0.269206	-0.608701	0.130551	0.734825
41703	-9.440540	0.297691	3.013798	0.273242	-0.610026	0.131169	0.732121
41704	-9.796261	0.097642	2.963094	0.276988	-0.610825	0.131598	0.729968
41705	-10.041847	-0.008968	2.783018	0.280171	-0.611289	0.131694	0.728345
41706	-10.142551	-0.404833	2.774381	0.282850	-0.611195	0.131713	0.727385
41707	-10.249563	-0.664732	2.622236	0.285627	-0.610455	0.132256	0.726822
41708	-10.374961	-0.565642	2.426931	0.288234	-0.609279	0.132849	0.726671
41709	-10.801299	-0.694800	2.465115	0.290340	-0.608230	0.133417	0.726608
41710	-11.243823	-0.926692	2.535177	0.292547	-0.607135	0.134633	0.726414
41711	-11.589527	-1.018945	2.567755	0.294812	-0.606012	0.136456	0.726096
41712	-11.798792	-1.072764	2.649802	0.297195	-0.604798	0.139028	0.725649
41713	-11.958612	-0.902949	2.802685	0.299298	-0.603755	0.142003	0.725077
41714	-12.036427	-0.884897	2.908039	0.300771	-0.603097	0.144920	0.724437
41715	-11.687623	-1.152755	3.096925	0.301345	-0.602781	0.147351	0.723971
41716	-10.710543	-1.413472	3.243814	0.301727	-0.602348	0.149785	0.723673
41717	-9.594907	-1.422173	3.230849	0.301895	-0.601898	0.151937	0.723528
41718	-8.797789	-1.350069	3.120215	0.301899	-0.601228	0.153800	0.723690
41719	-8.238325	-1.086871	2.872705	0.301498	-0.600088	0.155191	0.724506
41720	-7.792101	-0.937311	2.562695	0.300472	-0.598482	0.155764	0.726136
41721	-7.621468	-1.174749	2.256599	0.298658	-0.596415	0.155517	0.728633
41722	-7.854668	-1.607926	2.126919	0.296634	-0.593698	0.154946	0.731794
41723	-7.878044	-1.813311	1.951078	0.294669	-0.590247	0.154446	0.735476
41724	-7.832736	-1.833620	1.879523	0.292700	-0.586483	0.154303	0.739294
41725	-8.050340	-1.914158	1.920202	0.290493	-0.582743	0.154305	0.743111
41726	-8.534430	-1.963423	2.023382	0.287856	-0.579241	0.154439	0.746839
41727	-8.789476	-2.014923	2.066354	0.284436	-0.576138	0.154562	0.750514
41728	-8.948357	-2.232465	2.054746	0.280267	-0.573638	0.155040	0.753891
41729	-8.983551	-2.473682	2.106852	0.275643	-0.571892	0.156253	0.756668
41730	-9.122098	-2.664734	2.216786	0.271097	-0.570605	0.158427	0.758826
41731	-9.158483	-2.487296	2.260810	0.267102	-0.569858	0.161626	0.760128
41732	-9.337624	-2.314659	2.472028	0.263454	-0.569781	0.165160	0.760700
41733	-9.374755	-2.353034	2.838463	0.260389	-0.570036	0.168741	0.760778
41734	-9.336043	-2.154542	3.057004	0.258561	-0.570134	0.172476	0.760490
41735	-9.103287	-1.541242	3.028471	0.257384	-0.570543	0.175693	0.759846
41736	-8.922120	-1.497678	3.239732	0.256392	-0.571707	0.177953	0.758780
41737	-8.938007	-1.531223	3.447060	0.256190	-0.573067	0.180072	0.757321
41738	-8.961455	-1.202623	3.335009	0.256470	-0.574396	0.181865	0.755789
41739	-8.743587	-0.873837	3.274921	0.256356	-0.575685	0.182824	0.754615
41740	-8.836129	-0.974828	3.465421	0.255819	-0.576999	0.182782	0.753803
41741	-9.247075	-1.247583	3.576514	0.255450	-0.577885	0.182289	0.753369
41742	-9.389497	-1.203992	3.390461	0.255681	-0.578222	0.182195	0.753055
41743	-9.403314	-0.938356	3.279276	0.255934	-0.578374	0.182026	0.752893
