// Start Time: Unknown
// Update Rate: 60.0Hz
// Filter Profile: human (46.1)
// Option Flags: AHS Disabled ICC Disabled 
// Firmware Version: 4.3.5
PacketCounter	Acc_X	Acc_Y	Acc_Z	Quat_q0	Quat_q1	Quat_q2	Quat_q3
34999	-9.729915	1.009327	-0.310847	0.690173	-0.028121	0.715896	0.101803
35000	-9.723011	1.069850	-0.300488	0.690314	-0.028426	0.715695	0.102168
35001	-9.753837	1.028860	-0.236491	0.690462	-0.028831	0.715466	0.102661
35002	-9.660272	0.893272	-0.128234	0.690576	-0.029288	0.715265	0.103163
35003	-9.653411	0.901751	-0.065973	0.690649	-0.029410	0.715159	0.103376
35004	-9.687834	1.111132	-0.094195	0.690660	-0.029615	0.715105	0.103620
35005	-9.677873	1.065341	-0.071481	0.690616	-0.029969	0.715074	0.104021
35006	-9.692191	0.973856	-0.171275	0.690541	-0.030272	0.715088	0.104335
35007	-9.696762	1.005546	-0.288306	0.690458	-0.030435	0.715129	0.104561
35008	-9.755906	1.183434	-0.319233	0.690343	-0.030965	0.715112	0.105274
35009	-9.739246	1.174810	-0.323360	0.690182	-0.032125	0.715013	0.106644
35010	-9.783704	1.057956	-0.345802	0.690007	-0.033684	0.714833	0.108490
35011	-9.724539	1.032177	-0.385986	0.689895	-0.035096	0.714619	0.110148
35012	-9.779870	1.054316	-0.446389	0.689883	-0.036147	0.714383	0.111409
35013	-9.753843	0.997642	-0.424289	0.689982	-0.036784	0.714142	0.112123
35014	-9.764669	1.014192	-0.250754	0.690161	-0.037117	0.713903	0.112440
35015	-9.695490	0.931037	-0.148504	0.690358	-0.037184	0.713716	0.112392
35016	-9.646999	0.980285	-0.055119	0.690563	-0.036929	0.713597	0.111974
35017	-9.675346	0.998108	-0.016176	0.690741	-0.036499	0.713549	0.111323
35018	-9.680278	0.987154	-0.061672	0.690868	-0.035828	0.713598	0.110432
35019	-9.710593	1.059986	-0.093029	0.690969	-0.035204	0.713662	0.109582
35020	-9.737536	0.962472	-0.179088	0.691017	-0.034644	0.713758	0.108829
35021	-9.738396	1.064845	-0.182484	0.691037	-0.034200	0.713854	0.108211
35022	-9.684176	1.036149	-0.256624	0.691043	-0.034042	0.713901	0.107912
35023	-9.721345	1.050527	-0.295790	0.691032	-0.034006	0.713937	0.107764
35024	-9.724796	1.090671	-0.276513	0.691009	-0.034112	0.713949	0.107792
35025	-9.753803	1.032610	-0.221040	0.691012	-0.034315	0.713920	0.107906
35026	-9.707953	0.972321	-0.281228	0.691018	-0.034466	0.713892	0.108005
35027	-9.705831	0.969982	-0.267189	0.691030	-0.034654	0.713852	0.108133
35028	-9.681714	0.965479	-0.316335	0.691040	-0.034803	0.713815	0.108261
35029	-9.794744	1.116922	-0.323362	0.691038	-0.035168	0.713736	0.108675
35030	-9.771630	1.112848	-0.266230	0.691004	-0.035984	0.713586	0.109610
35031	-9.714356	1.017653	-0.166111	0.690950	-0.037083	0.713384	0.110893
35032	-9.698731	0.930326	-0.148632	0.690887	-0.038131	0.713199	0.112108
35033	-9.660320	0.918895	-0.214264	0.690869	-0.038757	0.713064	0.112859
35034	-9.733913	1.095245	-0.236188	0.690839	-0.039140	0.712987	0.113393
35035	-9.737899	1.060734	-0.194920	0.690794	-0.039796	0.712861	0.114231
35036	-9.729984	0.931567	-0.289092	0.690738	-0.040611	0.712707	0.115241
35037	-9.804521	0.978120	-0.239109	0.690674	-0.041498	0.712518	0.116469
35038	-9.667618	1.020040	-0.175556	0.690634	-0.042508	0.712276	0.117821
35039	-9.674274	0.965619	-0.180737	0.690581	-0.043365	0.712078	0.119007
35040	-9.719184	0.965630	-0.187103	0.690590	-0.043789	0.711935	0.119654
35041	-9.709361	0.994826	-0.077346	0.690628	-0.043857	0.711852	0.119901
35042	-9.667892	0.975005	-0.011699	0.690680	-0.043603	0.711844	0.119741
35043	-9.695425	1.050307	-0.026827	0.690681	-0.043177	0.711938	0.119331
35044	-9.687484	1.017560	-0.006759	0.690641	-0.042802	0.712068	0.118923
35045	-9.689595	1.020031	-0.025778	0.690561	-0.042309	0.712265	0.118377
35046	-9.701757	1.174063	-0.065521	0.690435	-0.041736	0.712537	0.117683
35047	-9.692945	1.248417	-0.153028	0.690246	-0.041284	0.712843	0.117093
35048	-9.739355	1.195203	-0.238084	0.690031	-0.041066	0.713122	0.116738
35049	-9.776700	1.157069	-0.231424	0.689786	-0.041281	0.713335	0.116809
35050	-9.704256	1.062741	-0.248786	0.689502	-0.041713	0.713524	0.117180
35051	-9.735414	1.135697	-0.179567	0.689177	-0.042281	0.713716	0.117713
35052	-9.686857	1.069172	-0.114311	0.688835	-0.043035	0.713894	0.118361
35053	-9.715622	0.936020	-0.154478	0.688479	-0.043589	0.714132	0.118797
35054	-9.691980	0.994929	-0.142376	0.688113	-0.043867	0.714441	0.118955
35055	-9.690205	0.968459	-0.172091	0.687749	-0.044030	0.714776	0.118988
35056	-9.655931	0.917434	-0.211047	0.687380	-0.044067	0.715149	0.118867
35057	-9.704884	1.028844	-0.377209	0.687012	-0.043974	0.715543	0.118654
35058	-9.747777	1.010329	-0.400505	0.686668	-0.043923	0.715901	0.118506
35059	-9.760823	1.050267	-0.477135	0.686381	-0.043841	0.716217	0.118287
35060	-9.767273	1.014423	-0.460859	0.686155	-0.043663	0.716487	0.118034
35061	-9.757545	0.966724	-0.447289	0.685984	-0.043413	0.716714	0.117735
35062	-9.700811	0.921213	-0.408466	0.685858	-0.043091	0.716910	0.117393
35063	-9.687833	0.962278	-0.379104	0.685767	-0.042652	0.717092	0.116974
35064	-9.741778	1.054410	-0.347963	0.685659	-0.042159	0.717304	0.116490
35065	-9.748898	1.112213	-0.343502	0.685574	-0.041764	0.717470	0.116106
35066	-9.728625	1.095993	-0.323944	0.685481	-0.041384	0.717644	0.115715
35067	-9.740836	1.116255	-0.279548	0.685366	-0.041095	0.717817	0.115429
35068	-9.695129	1.016406	-0.276236	0.685237	-0.040934	0.717973	0.115281
35069	-9.686060	1.050026	-0.292594	0.685087	-0.040800	0.718147	0.115129
35070	-9.723974	1.057393	-0.367084	0.684911	-0.040691	0.718341	0.115013
35071	-9.714868	1.078484	-0.400895	0.684742	-0.040566	0.718538	0.114831
35072	-9.710956	1.061869	-0.394391	0.684628	-0.040366	0.718695	0.114597
35073	-9.725212	1.071372	-0.381466	0.684497	-0.040144	0.718884	0.114267
35074	-9.750266	1.073979	-0.338530	0.684378	-0.039975	0.719052	0.113984
35075	-9.706645	1.011034	-0.299174	0.684247	-0.039792	0.719240	0.113651
35076	-9.702935	1.005544	-0.276484	0.684089	-0.039548	0.719461	0.113286
35077	-9.692343	1.078721	-0.363226	0.683917	-0.039231	0.719717	0.112808
35078	-9.724672	1.077226	-0.396445	0.683736	-0.038993	0.719965	0.112410
35079	-9.697236	1.033027	-0.487920	0.683565	-0.038764	0.720197	0.112036
35080	-9.731715	1.137944	-0.534629	0.683405	-0.038598	0.720411	0.111695
35081	-9.733307	1.125898	-0.571411	0.683269	-0.038735	0.720540	0.111645
35082	-9.738421	1.062614	-0.568664	0.683167	-0.038991	0.720610	0.111727
35083	-9.769086	1.058699	-0.582443	0.683143	-0.039160	0.720624	0.111724
35084	-9.725870	1.051009	-0.604296	0.683178	-0.039297	0.720585	0.111717
35085	-9.720721	1.030334	-0.577088	0.683281	-0.039396	0.720496	0.111627
35086	-9.750402	1.072425	-0.505376	0.683419	-0.039470	0.720377	0.111522
35087	-9.738069	1.061958	-0.535124	0.683576	-0.039611	0.720222	0.111512
35088	-9.727604	1.022473	-0.478580	0.683753	-0.039828	0.720037	0.111547
35089	-9.720829	0.999178	-0.433287	0.683958	-0.040053	0.719822	0.111595
35090	-9.719540	0.994230	-0.413979	0.684172	-0.040264	0.719605	0.111603
35091	-9.714711	0.997282	-0.349336	0.684368	-0.040456	0.719408	0.111609
35092	-9.705408	0.898745	-0.389872	0.684576	-0.040565	0.719208	0.111579
35093	-9.720623	0.955693	-0.300134	0.684776	-0.040649	0.719018	0.111548
35094	-9.675881	0.958232	-0.286143	0.684939	-0.040793	0.718850	0.111575
35095	-9.670510	0.925591	-0.273017	0.685098	-0.040900	0.718695	0.111562
35096	-9.698395	0.997588	-0.285923	0.685217	-0.040903	0.718597	0.111456
35097	-9.728152	1.071360	-0.314410	0.685305	-0.040942	0.718536	0.111297
35098	-9.713714	1.022489	-0.381644	0.685399	-0.041046	0.718444	0.111274
35099	-9.748151	0.998355	-0.453300	0.685493	-0.041264	0.718326	0.111374
35100	-9.739084	0.974247	-0.395703	0.685583	-0.041593	0.718182	0.111631
35101	-9.748007	0.940301	-0.381481	0.685697	-0.041917	0.718015	0.111880
35102	-9.717771	0.978181	-0.316707	0.685792	-0.042244	0.717864	0.112147
35103	-9.706603	0.927826	-0.277827	0.685911	-0.042444	0.717718	0.112278
35104	-9.706840	0.938874	-0.258804	0.686006	-0.042543	0.717621	0.112276
35105	-9.690730	0.937696	-0.244597	0.686084	-0.042574	0.717551	0.112230
35106	-9.689003	0.934213	-0.229837	0.686128	-0.042529	0.717537	0.112072
35107	-9.680432	0.965986	-0.241799	0.686134	-0.042485	0.717556	0.111930
35108	-9.725478	0.948384	-0.269986	0.686115	-0.042381	0.717611	0.111733
35109	-9.727365	0.949603	-0.286591	0.686083	-0.042274	0.717680	0.111530
35110	-9.725340	0.922287	-0.308561	0.686030	-0.042109	0.717779	0.111281
35111	-9.723530	0.931685	-0.280814	0.685956	-0.041955	0.717893	0.111054
35112	-9.718412	0.956036	-0.341356	0.685871	-0.041770	0.718030	0.110768
35113	-9.730668	0.926863	-0.363024	0.685795	-0.041516	0.718162	0.110474
35114	-9.701617	0.918847	-0.386996	0.685720	-0.041221	0.718305	0.110121
35115	-9.725583	0.988181	-0.378024	0.685640	-0.041006	0.718429	0.109888
35116	-9.746520	0.939341	-0.371370	0.685551	-0.040892	0.718529	0.109832
35117	-9.703303	0.971556	-0.346076	0.685455	-0.040779	0.718640	0.109751
35118	-9.724983	1.003297	-0.372326	0.685345	-0.040750	0.718742	0.109778
35119	-9.736832	0.950988	-0.426516	0.685255	-0.040760	0.718822	0.109810
35120	-9.762376	1.011410	-0.447414	0.685164	-0.040802	0.718892	0.109910
35121	-9.736881	1.021817	-0.481209	0.685101	-0.040961	0.718899	0.110196
35122	-9.770675	1.014004	-0.538614	0.685063	-0.041333	0.718835	0.110707
35123	-9.767228	1.049340	-0.458579	0.685040	-0.041918	0.718706	0.111463
35124	-9.725102	0.992869	-0.425382	0.685046	-0.042569	0.718536	0.112278
35125	-9.728070	0.931663	-0.401738	0.685090	-0.042987	0.718379	0.112851
35126	-9.726540	0.967964	-0.334204	0.685164	-0.043181	0.718246	0.113171
35127	-9.691769	0.918906	-0.358684	0.685258	-0.043240	0.718125	0.113349
35128	-9.700805	0.923678	-0.295143	0.685356	-0.043180	0.718028	0.113401
35129	-9.683421	1.015067	-0.281991	0.685417	-0.043206	0.717953	0.113489
35130	-9.712050	0.999716	-0.294789	0.685462	-0.043264	0.717886	0.113625
35131	-9.731979	1.029744	-0.302040	0.685494	-0.043283	0.717836	0.113731
35132	-9.708503	1.041794	-0.347474	0.685527	-0.043373	0.717782	0.113847
35133	-9.696981	0.956730	-0.361497	0.685550	-0.043501	0.717723	0.114029
35134	-9.678774	0.943378	-0.350428	0.685580	-0.043587	0.717666	0.114172
35135	-9.711314	0.968837	-0.341956	0.685603	-0.043672	0.717613	0.114337
35136	-9.727312	0.958398	-0.370997	0.685623	-0.043792	0.717549	0.114571
35137	-9.723503	0.956097	-0.341400	0.685637	-0.043924	0.717480	0.114870
35138	-9.703566	0.965634	-0.282091	0.685659	-0.044040	0.717415	0.115098
35139	-9.701669	0.977234	-0.250470	0.685660	-0.044116	0.717377	0.115302
35140	-9.686721	0.924941	-0.186769	0.685626	-0.044077	0.717399	0.115384
35141	-9.661614	0.983993	-0.153011	0.685548	-0.044016	0.717470	0.115430
35142	-9.687908	0.919594	-0.223284	0.685424	-0.043866	0.717595	0.115441
35143	-9.702250	0.988664	-0.275641	0.685236	-0.043681	0.717792	0.115403
35144	-9.735961	0.994300	-0.321325	0.685052	-0.043572	0.717960	0.115493
35145	-9.749881	1.039731	-0.407647	0.684898	-0.043440	0.718110	0.115524
35146	-9.742036	1.053808	-0.471195	0.684762	-0.043278	0.718248	0.115531
35147	-9.712597	1.048771	-0.494836	0.684668	-0.043121	0.718348	0.115527
35148	-9.762707	1.021801	-0.451348	0.684599	-0.043034	0.718409	0.115590
35149	-9.737174	0.988795	-0.402226	0.684570	-0.042903	0.718442	0.115608
35150	-9.733314	1.042864	-0.440732	0.684577	-0.042664	0.718465	0.115505
35151	-9.736787	1.073500	-0.436516	0.684611	-0.042479	0.718454	0.115444
35152	-9.702454	1.073030	-0.396324	0.684629	-0.042418	0.718428	0.115520
35153	-9.704080	1.021163	-0.344520	0.684640	-0.042470	0.718385	0.115702
35154	-9.732914	1.043202	-0.307728	0.684659	-0.042497	0.718342	0.115849
35155	-9.741562	1.000325	-0.313752	0.684663	-0.042431	0.718328	0.115935
35156	-9.689029	1.042035	-0.329424	0.684651	-0.042336	0.718335	0.115999
35157	-9.690571	0.978267	-0.295489	0.684623	-0.042303	0.718344	0.116114
35158	-9.688543	0.978424	-0.282389	0.684585	-0.042214	0.718376	0.116177
35159	-9.697321	1.040343	-0.288918	0.684509	-0.042177	0.718437	0.116261
35160	-9.705809	1.065686	-0.346590	0.684440	-0.042023	0.718522	0.116199
35161	-9.719881	1.145609	-0.380346	0.684382	-0.041850	0.718604	0.116097
35162	-9.737354	1.032280	-0.428593	0.684335	-0.041703	0.718678	0.115967
35163	-9.737082	1.020813	-0.447786	0.684313	-0.041463	0.718747	0.115754
35164	-9.733169	1.073112	-0.486746	0.684339	-0.041206	0.718774	0.115525
35165	-9.695438	1.054953	-0.435428	0.684353	-0.041045	0.718784	0.115432
35166	-9.710022	1.090395	-0.384022	0.684378	-0.041014	0.718759	0.115455
35167	-9.672045	1.035943	-0.382038	0.684413	-0.041034	0.718714	0.115518
35168	-9.733148	1.032989	-0.404590	0.684466	-0.041015	0.718660	0.115552
35169	-9.759974	1.095831	-0.435632	0.684545	-0.040954	0.718587	0.115559
35170	-9.725822	1.081991	-0.410496	0.684634	-0.040989	0.718488	0.115635
35171	-9.744038	1.029063	-0.369737	0.684723	-0.041040	0.718380	0.115760
35172	-9.704613	0.996440	-0.317728	0.684830	-0.041067	0.718265	0.115830
35173	-9.708323	1.037757	-0.294115	0.684925	-0.041037	0.718175	0.115839
35174	-9.677927	1.076444	-0.231178	0.684979	-0.040980	0.718134	0.115792
35175	-9.641720	1.011349	-0.260543	0.685011	-0.040831	0.718136	0.115639
35176	-9.693784	1.040874	-0.295355	0.685014	-0.040643	0.718171	0.115479
35177	-9.697263	1.070388	-0.292149	0.684964	-0.040624	0.718215	0.115507
35178	-9.700985	1.031750	-0.240148	0.684890	-0.040743	0.718257	0.115645
35179	-9.704116	1.012810	-0.305198	0.684780	-0.040822	0.718339	0.115752
35180	-9.737468	1.060268	-0.431514	0.684696	-0.040781	0.718423	0.115743
35181	-9.753074	1.129583	-0.496298	0.684639	-0.040818	0.718464	0.115816
35182	-9.691894	1.041741	-0.459013	0.684613	-0.040947	0.718457	0.115966
35183	-9.728141	1.015412	-0.414533	0.684629	-0.040998	0.718424	0.116062
35184	-9.719253	1.098049	-0.358331	0.684610	-0.041124	0.718399	0.116278
35185	-9.721137	1.033775	-0.323673	0.684581	-0.041348	0.718358	0.116626
35186	-9.681667	1.014644	-0.257044	0.684523	-0.041711	0.718306	0.117152
35187	-9.706373	0.948506	-0.310304	0.684445	-0.041969	0.718295	0.117585
35188	-9.680793	1.125197	-0.257630	0.684333	-0.042109	0.718337	0.117929
35189	-9.680162	1.104422	-0.293728	0.684180	-0.042408	0.718385	0.118417
35190	-9.678246	1.000904	-0.284282	0.683982	-0.042772	0.718460	0.118969
35191	-9.709920	0.992901	-0.331176	0.683792	-0.042936	0.718574	0.119317
35192	-9.727110	1.127335	-0.327423	0.683587	-0.043063	0.718715	0.119595
35193	-9.708729	1.115552	-0.321827	0.683396	-0.043135	0.718859	0.119798
35194	-9.702513	1.026869	-0.402076	0.683247	-0.042990	0.719022	0.119722
35195	-9.730287	1.092817	-0.453313	0.683141	-0.042598	0.719204	0.119370
35196	-9.722377	1.128686	-0.483277	0.683067	-0.042249	0.719356	0.119002
35197	-9.725852	1.169353	-0.465513	0.683016	-0.042004	0.719466	0.118719
35198	-9.713878	1.116881	-0.418652	0.682983	-0.041865	0.719539	0.118510
35199	-9.694508	1.111219	-0.379610	0.682962	-0.041635	0.719628	0.118169
35200	-9.714319	1.150971	-0.373639	0.682965	-0.041362	0.719705	0.117783
35201	-9.701445	1.141471	-0.408838	0.682958	-0.041156	0.719785	0.117408
35202	-9.737873	1.075253	-0.417380	0.682981	-0.040895	0.719864	0.116881
35203	-9.709106	1.063463	-0.439594	0.683031	-0.040453	0.719958	0.116154
35204	-9.748884	1.129459	-0.442127	0.683082	-0.039987	0.720056	0.115412
35205	-9.718516	1.115544	-0.449275	0.683145	-0.039724	0.720092	0.114902
35206	-9.732389	1.040087	-0.385393	0.683168	-0.039714	0.720108	0.114671
35207	-9.691997	1.002126	-0.321911	0.683183	-0.039701	0.720122	0.114493
35208	-9.688150	1.064154	-0.344188	0.683171	-0.039629	0.720168	0.114303
35209	-9.727555	1.003627	-0.380523	0.683139	-0.039659	0.720213	0.114199
35210	-9.725367	0.963807	-0.418771	0.683092	-0.039631	0.720277	0.114084
35211	-9.711052	0.977664	-0.405836	0.683041	-0.039624	0.720333	0.114038
35212	-9.698320	0.994058	-0.407169	0.682994	-0.039588	0.720390	0.113974
35213	-9.680545	0.991920	-0.382161	0.682950	-0.039437	0.720466	0.113811
35214	-9.749825	1.023482	-0.447151	0.682903	-0.039192	0.720561	0.113574
35215	-9.709991	1.037505	-0.318449	0.682844	-0.039115	0.720635	0.113485
35216	-9.666848	0.951855	-0.309572	0.682747	-0.038935	0.720761	0.113336
35217	-9.670675	1.006010	-0.276236	0.682612	-0.038664	0.720943	0.113085
35218	-9.674041	1.035505	-0.277736	0.682436	-0.038344	0.721178	0.112751
35219	-9.701938	0.995210	-0.332699	0.682229	-0.037927	0.721464	0.112316
35220	-9.688254	1.091968	-0.373520	0.682009	-0.037433	0.721782	0.111773
35221	-9.706715	1.083920	-0.441213	0.681781	-0.037030	0.722089	0.111316
35222	-9.703911	1.045014	-0.485798	0.681521	-0.036730	0.722403	0.110970
35223	-9.720012	1.069719	-0.474853	0.681263	-0.036487	0.722707	0.110653
35224	-9.726221	1.102555	-0.508229	0.681007	-0.036254	0.723001	0.110382
35225	-9.743825	1.129600	-0.511243	0.680748	-0.036141	0.723274	0.110228
35226	-9.700880	1.056056	-0.489530	0.680490	-0.036144	0.723526	0.110169
35227	-9.680542	1.015112	-0.505111	0.680249	-0.036093	0.723771	0.110066
35228	-9.704455	1.062146	-0.548571	0.680007	-0.036018	0.724025	0.109911
35229	-9.717053	1.057881	-0.540652	0.679792	-0.035928	0.724257	0.109744
35230	-9.691024	1.077886	-0.562665	0.679574	-0.035848	0.724491	0.109575
35231	-9.706941	1.089966	-0.566293	0.679363	-0.035876	0.724695	0.109529
35232	-9.716988	1.046709	-0.592261	0.679153	-0.036053	0.724867	0.109629
35233	-9.685444	1.024294	-0.618776	0.678967	-0.036251	0.725004	0.109809
35234	-9.702201	1.062072	-0.587207	0.678798	-0.036408	0.725135	0.109940
35235	-9.708069	1.013230	-0.568195	0.678662	-0.036466	0.725258	0.109954
35236	-9.698899	1.057923	-0.567053	0.678560	-0.036427	0.725376	0.109814
35237	-9.661539	1.013980	-0.550952	0.678472	-0.036285	0.725501	0.109580
35238	-9.694520	1.014661	-0.596136	0.678407	-0.036078	0.725623	0.109239
35239	-9.724994	1.092992	-0.660287	0.678362	-0.035935	0.725711	0.108985
35240	-9.692368	1.066834	-0.669270	0.678342	-0.035981	0.725743	0.108879
35241	-9.743881	1.024443	-0.641620	0.678352	-0.035977	0.725755	0.108740
35242	-9.723397	1.073574	-0.667042	0.678423	-0.035827	0.725741	0.108433
35243	-9.742316	1.074583	-0.709084	0.678550	-0.035580	0.725703	0.107975
35244	-9.748825	1.126432	-0.685374	0.678716	-0.035293	0.725644	0.107423
35245	-9.765796	1.134428	-0.680084	0.678943	-0.035116	0.725510	0.106947
35246	-9.714797	1.193627	-0.658071	0.679185	-0.035161	0.725319	0.106696
35247	-9.708668	1.144267	-0.644671	0.679431	-0.035418	0.725080	0.106670
35248	-9.746867	1.113760	-0.593465	0.679703	-0.035900	0.724776	0.106845
35249	-9.788214	1.029905	-0.488449	0.679987	-0.036500	0.724441	0.107101
35250	-9.693947	0.954893	-0.529080	0.680294	-0.036955	0.724111	0.107225
35251	-9.745064	0.884354	-0.525383	0.680596	-0.037296	0.723805	0.107258
35252	-9.716623	0.779848	-0.519853	0.680898	-0.037487	0.723516	0.107222
35253	-9.701585	0.824657	-0.419023	0.681194	-0.037570	0.723245	0.107149
35254	-9.657082	0.770067	-0.320551	0.681426	-0.037728	0.723005	0.107228
35255	-9.630141	0.730898	-0.235059	0.681580	-0.037686	0.722870	0.107180
35256	-9.626712	0.807023	-0.238254	0.681659	-0.037421	0.722842	0.106954
35257	-9.681773	0.900385	-0.206167	0.681656	-0.037016	0.722916	0.106615
35258	-9.662669	0.898153	-0.167705	0.681555	-0.036557	0.723094	0.106218
35259	-9.657630	0.938291	-0.228926	0.681366	-0.036027	0.723368	0.105741
35260	-9.709965	0.921992	-0.368201	0.681127	-0.035318	0.723721	0.105104
35261	-9.715830	1.104448	-0.502932	0.680857	-0.034625	0.724101	0.104466
35262	-9.683932	1.047238	-0.597966	0.680580	-0.034138	0.724445	0.104045
35263	-9.721794	1.149198	-0.724543	0.680324	-0.033755	0.724752	0.103707
35264	-9.770547	1.164499	-0.769814	0.680117	-0.033853	0.724915	0.103889
35265	-9.774200	1.277884	-0.818797	0.679942	-0.034376	0.724946	0.104639
35266	-9.802319	1.174554	-0.814936	0.679801	-0.035562	0.724811	0.106087
35267	-9.797400	0.861491	-0.765213	0.679728	-0.036869	0.724573	0.107720
35268	-9.771077	0.946525	-0.663714	0.679745	-0.037924	0.724295	0.109111
35269	-9.674802	0.962634	-0.547208	0.679810	-0.038819	0.724005	0.110311
35270	-9.695221	0.811235	-0.517453	0.679920	-0.039239	0.723772	0.111013
35271	-9.726644	0.989616	-0.410578	0.680024	-0.039514	0.723571	0.111582
35272	-9.649053	0.868887	-0.402368	0.680109	-0.039712	0.723395	0.112134
35273	-9.728817	0.933589	-0.367882	0.680137	-0.039947	0.723259	0.112762
35274	-9.698620	0.918467	-0.401493	0.680148	-0.040095	0.723162	0.113264
35275	-9.730905	1.064976	-0.376500	0.680137	-0.040065	0.723125	0.113575
35276	-9.673808	0.963344	-0.412958	0.680109	-0.039928	0.723127	0.113777
35277	-9.726966	0.989152	-0.494940	0.680086	-0.039589	0.723174	0.113732
35278	-9.683395	1.128703	-0.465911	0.680051	-0.039270	0.723223	0.113744
35279	-9.678959	1.174570	-0.535739	0.680018	-0.039208	0.723221	0.113973
35280	-9.707473	1.058205	-0.551083	0.679984	-0.039290	0.723189	0.114349
35281	-9.772790	1.136568	-0.504035	0.679967	-0.039268	0.723164	0.114615
35282	-9.726493	1.237104	-0.508698	0.679957	-0.039350	0.723110	0.114986
35283	-9.704837	1.115502	-0.454180	0.679945	-0.039620	0.723026	0.115495
35284	-9.708212	1.066967	-0.594242	0.679978	-0.039718	0.722936	0.115831
35285	-9.754824	1.175868	-0.631494	0.680021	-0.039823	0.722834	0.116180
35286	-9.772871	1.218919	-0.605854	0.680090	-0.040149	0.722648	0.116814
35287	-9.653686	1.140394	-0.550904	0.680153	-0.040837	0.722382	0.117849
35288	-9.688880	0.964137	-0.555013	0.680220	-0.041639	0.722069	0.119090
35289	-9.625560	1.076001	-0.508188	0.680290	-0.042414	0.721761	0.120283
35290	-9.686289	1.090985	-0.508841	0.680400	-0.043108	0.721429	0.121399
35291	-9.757103	0.943985	-0.534832	0.680574	-0.043490	0.721116	0.122140
35292	-9.718643	1.055412	-0.424690	0.680759	-0.043538	0.720854	0.122644
35293	-9.699926	0.985122	-0.313786	0.680888	-0.043785	0.720590	0.123389
35294	-9.703443	0.797523	-0.310859	0.680995	-0.044019	0.720334	0.124208
35295	-9.692103	1.050604	-0.325112	0.681054	-0.044074	0.720149	0.124933
35296	-9.708300	1.051851	-0.365615	0.681087	-0.044119	0.719968	0.125773
35297	-9.706014	1.071968	-0.330719	0.681106	-0.044043	0.719834	0.126469
35298	-9.722125	1.073823	-0.372712	0.681130	-0.043826	0.719731	0.126995
35299	-9.728604	1.093770	-0.263943	0.681117	-0.043527	0.719674	0.127497
35300	-9.655923	1.054368	-0.189835	0.681063	-0.043125	0.719676	0.127907
35301	-9.668141	1.135934	-0.252059	0.680963	-0.042577	0.719752	0.128197
35302	-9.637795	1.201909	-0.367265	0.680855	-0.042031	0.719840	0.128457
35303	-9.644213	1.346918	-0.449916	0.680767	-0.041500	0.719915	0.128676
35304	-9.684097	1.542526	-0.505256	0.680679	-0.040993	0.719989	0.128887
35305	-9.704200	1.525029	-0.449217	0.680576	-0.040971	0.719961	0.129590
35306	-9.730334	1.143861	-0.455131	0.680490	-0.041086	0.719898	0.130350
35307	-9.687632	1.231744	-0.370200	0.680413	-0.041046	0.719864	0.130952
35308	-9.704027	1.291808	-0.329404	0.680318	-0.041073	0.719823	0.131662
35309	-9.672373	1.204748	-0.275194	0.680175	-0.041193	0.719800	0.132487
35310	-9.620525	1.195123	-0.225198	0.679985	-0.041257	0.719841	0.133220
35311	-9.598834	1.282104	-0.231153	0.679765	-0.041154	0.719963	0.133715
35312	-9.636042	1.462197	-0.290899	0.679519	-0.040887	0.720163	0.133966
35313	-9.685056	1.477876	-0.365972	0.679241	-0.040678	0.720397	0.134185
35314	-9.647711	1.415941	-0.388976	0.678979	-0.040470	0.720630	0.134324
35315	-9.684820	1.401419	-0.545620	0.678714	-0.040334	0.720858	0.134481
35316	-9.705716	1.319749	-0.580747	0.678490	-0.040258	0.721037	0.134669
35317	-9.687618	1.308419	-0.575447	0.678329	-0.040145	0.721181	0.134746
35318	-9.713325	1.291023	-0.566147	0.678243	-0.039845	0.721312	0.134567
35319	-9.722458	1.369465	-0.585001	0.678235	-0.039266	0.721445	0.134065
35320	-9.708585	1.554205	-0.526732	0.678266	-0.038634	0.721568	0.133429
35321	-9.667904	1.610671	-0.493003	0.678337	-0.038220	0.721609	0.132959
35322	-9.696465	1.405160	-0.378494	0.678386	-0.038151	0.721612	0.132715
35323	-9.668487	1.284513	-0.373420	0.678424	-0.037947	0.721661	0.132308
35324	-9.713064	1.412194	-0.378539	0.678491	-0.037488	0.721758	0.131569
35325	-9.690086	1.468880	-0.373051	0.678520	-0.037236	0.721847	0.130998
35326	-9.679466	1.361537	-0.380048	0.678572	-0.036874	0.721948	0.130274
35327	-9.678988	1.430271	-0.460664	0.678586	-0.036589	0.722072	0.129592
35328	-9.669651	1.324445	-0.481947	0.678596	-0.036592	0.722135	0.129189
35329	-9.669927	1.282845	-0.535238	0.678632	-0.036555	0.722193	0.128687
35330	-9.683587	1.406024	-0.514251	0.678682	-0.036608	0.722210	0.128313
35331	-9.702700	1.248475	-0.598553	0.678775	-0.036633	0.722196	0.127888
35332	-9.697578	1.318073	-0.601353	0.678920	-0.036496	0.722165	0.127335
35333	-9.715928	1.338970	-0.594182	0.679080	-0.036621	0.722062	0.127028
35334	-9.680828	1.288513	-0.572419	0.679270	-0.036816	0.721910	0.126821
35335	-9.725068	1.253545	-0.599220	0.679518	-0.036941	0.721721	0.126528
35336	-9.766721	1.322409	-0.622341	0.679857	-0.037029	0.721463	0.126153
35337	-9.718912	1.177604	-0.568019	0.680252	-0.037052	0.721164	0.125727
35338	-9.683182	1.268931	-0.502773	0.680688	-0.036921	0.720860	0.125149
35339	-9.646500	1.394297	-0.372450	0.681099	-0.036938	0.720540	0.124750
35340	-9.567470	1.227312	-0.338586	0.681448	-0.037265	0.720211	0.124643
35341	-9.630488	1.123696	-0.326038	0.681774	-0.037505	0.719919	0.124471
35342	-9.714311	1.173163	-0.346943	0.682094	-0.037628	0.719660	0.124185
35343	-9.718351	1.195681	-0.336104	0.682374	-0.037781	0.719432	0.123918
35344	-9.693189	1.160762	-0.234001	0.682619	-0.037932	0.719233	0.123679
35345	-9.591938	1.286251	-0.233955	0.682823	-0.038021	0.719091	0.123350
35346	-9.651589	1.190767	-0.180462	0.682922	-0.038417	0.718970	0.123380
35347	-9.695146	0.965305	-0.315189	0.683020	-0.038472	0.718929	0.123060
35348	-9.758724	1.212393	-0.342681	0.683106	-0.038378	0.718928	0.122620
35349	-9.693731	1.024314	-0.364360	0.683181	-0.038413	0.718906	0.122322
35350	-9.684741	1.088919	-0.325045	0.683237	-0.038317	0.718928	0.121908
35351	-9.666775	1.140883	-0.378483	0.683309	-0.038206	0.718930	0.121528
35352	-9.692926	1.104936	-0.382116	0.683372	-0.037967	0.718967	0.121024
35353	-9.703226	1.080824	-0.356120	0.683425	-0.037694	0.719017	0.120516
35354	-9.711805	1.043241	-0.332670	0.683466	-0.037378	0.719072	0.120052
35355	-9.729789	1.080651	-0.311808	0.683492	-0.037028	0.719142	0.119593
35356	-9.685718	1.167958	-0.364398	0.683492	-0.036738	0.719209	0.119279
35357	-9.687681	1.087947	-0.333977	0.683460	-0.036619	0.719261	0.119187
35358	-9.685547	1.050170	-0.372264	0.683413	-0.036396	0.719344	0.119017
35359	-9.682221	1.166361	-0.342865	0.683369	-0.036125	0.719424	0.118872
35360	-9.676842	1.113565	-0.369159	0.683313	-0.035933	0.719488	0.118867
35361	-9.686241	1.084015	-0.360491	0.683231	-0.035905	0.719536	0.119053
35362	-9.733300	1.077074	-0.419100	0.683139	-0.035889	0.719579	0.119332
35363	-9.713247	1.171734	-0.409068	0.683057	-0.035921	0.719595	0.119689
35364	-9.643963	1.120249	-0.381143	0.682969	-0.036010	0.719594	0.120173
35365	-9.674561	1.042445	-0.347716	0.682876	-0.035941	0.719627	0.120518
35366	-9.706950	1.207225	-0.337013	0.682759	-0.035765	0.719706	0.120764
35367	-9.695933	1.234247	-0.367111	0.682632	-0.035701	0.719769	0.121129
35368	-9.664425	1.230228	-0.374059	0.682494	-0.035729	0.719816	0.121618
35369	-9.686304	1.176180	-0.383419	0.682353	-0.035864	0.719846	0.122190
35370	-9.669319	1.170664	-0.389089	0.682203	-0.035922	0.719891	0.122746
35371	-9.733524	1.206776	-0.425247	0.682068	-0.035902	0.719939	0.123214
35372	-9.699358	1.210831	-0.386547	0.681931	-0.035837	0.719997	0.123653
35373	-9.687936	1.226840	-0.433169	0.681804	-0.035745	0.720055	0.124042
35374	-9.675504	1.276719	-0.414666	0.681667	-0.035753	0.720097	0.124547
35375	-9.671479	1.255480	-0.421222	0.681549	-0.035802	0.720111	0.125096
35376	-9.671636	1.374611	-0.463809	0.681425	-0.035933	0.720111	0.125731
35377	-9.663933	1.249163	-0.382161	0.681338	-0.036126	0.720064	0.126417
35378	-9.668474	1.277770	-0.423169	0.681253	-0.036175	0.720053	0.126925
35379	-9.682052	1.283020	-0.422646	0.681169	-0.036272	0.720029	0.127482
35380	-9.705665	1.219701	-0.461947	0.681112	-0.036302	0.719991	0.127989
35381	-9.701490	1.319281	-0.476185	0.681073	-0.036336	0.719937	0.128496
35382	-9.692518	1.299778	-0.405880	0.681037	-0.036476	0.719853	0.129112
35383	-9.696075	1.385561	-0.345972	0.681010	-0.036599	0.719762	0.129722
35384	-9.666064	1.383546	-0.363501	0.680962	-0.036874	0.719667	0.130425
35385	-9.723146	1.360006	-0.391662	0.680910	-0.037149	0.719569	0.131157
35386	-9.660203	1.382816	-0.526958	0.680882	-0.037472	0.719438	0.131924
35387	-9.660652	1.380404	-0.555444	0.680868	-0.037870	0.719271	0.132794
35388	-9.657244	1.370281	-0.539481	0.680917	-0.038348	0.719030	0.133703
35389	-9.684191	1.282074	-0.443997	0.680981	-0.038797	0.718784	0.134570
35390	-9.711428	1.329055	-0.354018	0.681082	-0.038981	0.718567	0.135167
35391	-9.747746	1.305259	-0.291013	0.681195	-0.039111	0.718347	0.135728
35392	-9.714195	1.212458	-0.381867	0.681346	-0.039020	0.718149	0.136038
35393	-9.756000	1.571471	-0.442478	0.681506	-0.038888	0.717940	0.136381
35394	-9.737894	1.597869	-0.373606	0.681629	-0.039437	0.717585	0.137472
35395	-9.655183	1.536148	-0.354975	0.681707	-0.040380	0.717167	0.138983
35396	-9.559722	1.631700	-0.141920	0.681699	-0.041833	0.716699	0.140996
35397	-9.603957	1.422306	-0.049773	0.681594	-0.043669	0.716225	0.143334
35398	-9.689577	1.178257	0.035095	0.681442	-0.045139	0.715897	0.145229
35399	-9.594231	1.185869	-0.075484	0.681296	-0.045962	0.715743	0.146412
35400	-9.646621	1.218047	-0.155248	0.681126	-0.046304	0.715759	0.147011
35401	-9.628799	1.228384	-0.113893	0.680934	-0.046315	0.715904	0.147191
35402	-9.595402	1.213774	-0.096942	0.680726	-0.045946	0.716188	0.146884
35403	-9.586436	1.368016	-0.180267	0.680510	-0.045125	0.716612	0.146073
35404	-9.590636	1.516401	-0.250955	0.680274	-0.044303	0.717077	0.145135
35405	-9.626376	1.459652	-0.227277	0.680011	-0.043435	0.717593	0.144076
35406	-9.611074	1.343764	-0.191398	0.679751	-0.042244	0.718201	0.142624
35407	-9.678698	1.550845	-0.235331	0.679508	-0.040847	0.718866	0.140831
35408	-9.715248	2.016644	-0.518818	0.679230	-0.039725	0.719489	0.139300
35409	-9.731704	1.913229	-0.491303	0.678823	-0.040116	0.719834	0.139390
35410	-9.703873	1.197520	-0.743390	0.678450	-0.041096	0.719992	0.140102
35411	-9.729836	1.405312	-0.826635	0.678166	-0.042033	0.720049	0.140902
35412	-9.788537	1.550002	-0.825152	0.678008	-0.043189	0.719929	0.141927
35413	-9.754363	1.426138	-0.715013	0.677989	-0.044379	0.719663	0.142993
35414	-9.695442	1.176536	-0.644997	0.678123	-0.045128	0.719373	0.143578
35415	-9.684800	1.272071	-0.530341	0.678362	-0.045340	0.719137	0.143567
35416	-9.680414	1.392314	-0.470023	0.678670	-0.045231	0.718925	0.143209
35417	-9.655589	1.340556	-0.371102	0.678998	-0.045166	0.718686	0.142871
35418	-9.689121	1.169675	-0.231549	0.679315	-0.044886	0.718513	0.142323
35419	-9.657854	1.287684	-0.220974	0.679596	-0.044376	0.718419	0.141616
35420	-9.636366	1.450920	-0.067674	0.679737	-0.044297	0.718338	0.141374
35421	-9.664687	1.171536	-0.044802	0.679773	-0.044369	0.718308	0.141331
35422	-9.648376	1.225132	-0.156957	0.679731	-0.044192	0.718406	0.141084
35423	-9.694077	1.327583	-0.241351	0.679648	-0.043947	0.718555	0.140804
35424	-9.655467	1.219392	-0.286406	0.679538	-0.043517	0.718778	0.140330
35425	-9.653490	1.453882	-0.337184	0.679412	-0.043028	0.719032	0.139786
35426	-9.662342	1.383770	-0.372080	0.679248	-0.042754	0.719266	0.139463
35427	-9.676123	1.336424	-0.446811	0.679078	-0.042482	0.719502	0.139162
35428	-9.674528	1.334174	-0.439263	0.678913	-0.042216	0.719726	0.138887
35429	-9.641593	1.341180	-0.387486	0.678743	-0.041987	0.719945	0.138649
35430	-9.688734	1.221429	-0.413054	0.678602	-0.041570	0.720177	0.138259
35431	-9.666730	1.423724	-0.443378	0.678471	-0.040975	0.720450	0.137660
35432	-9.725927	1.444389	-0.426814	0.678335	-0.040548	0.720675	0.137276
35433	-9.694293	1.307545	-0.401960	0.678148	-0.040379	0.720887	0.137138
35434	-9.624502	1.244782	-0.351556	0.677938	-0.040185	0.721111	0.137055
35435	-9.632199	1.356543	-0.308072	0.677668	-0.040019	0.721385	0.136999
35436	-9.626801	1.337035	-0.276300	0.677380	-0.039796	0.721687	0.136896
35437	-9.643419	1.470295	-0.350311	0.677049	-0.039486	0.722058	0.136664
35438	-9.646225	1.595409	-0.457662	0.676699	-0.039325	0.722418	0.136546
35439	-9.645378	1.541367	-0.567945	0.676313	-0.039488	0.722737	0.136722
35440	-9.681291	1.340168	-0.552296	0.675944	-0.039801	0.723006	0.137032
35441	-9.667318	1.401429	-0.476869	0.675566	-0.040040	0.723307	0.137239
35442	-9.621044	1.445379	-0.377537	0.675159	-0.040393	0.723616	0.137512
35443	-9.579886	1.407554	-0.249079	0.674678	-0.040796	0.723986	0.137801
35444	-9.536772	1.319898	-0.177186	0.674118	-0.041133	0.724461	0.137945
35445	-9.636295	1.271720	-0.225806	0.673464	-0.041188	0.725086	0.137840
35446	-9.652710	1.340841	-0.455624	0.672773	-0.040929	0.725829	0.137380
35447	-9.716150	1.501088	-0.562708	0.672018	-0.040864	0.726577	0.137142
35448	-9.662574	1.408249	-0.619737	0.671236	-0.041143	0.727270	0.137218
35449	-9.677105	1.539836	-0.704395	0.670423	-0.041660	0.727915	0.137612
35450	-9.614681	1.510455	-0.762470	0.669595	-0.042574	0.728464	0.138457
35451	-9.732209	1.382463	-0.783141	0.668792	-0.043503	0.728985	0.139306
35452	-9.693516	1.469611	-0.755749	0.668055	-0.044294	0.729479	0.140001
35453	-9.815965	1.257326	-0.732486	0.667338	-0.045062	0.729944	0.140750
35454	-9.666098	1.220577	-0.852964	0.666703	-0.045486	0.730417	0.141173
35455	-9.687961	1.345342	-0.738079	0.666065	-0.045959	0.730867	0.141700
35456	-9.514972	1.398020	-0.765562	0.665453	-0.046362	0.731312	0.142147
35457	-9.661151	1.558877	-0.741470	0.664829	-0.046833	0.731762	0.142594
35458	-9.715788	1.529724	-0.774414	0.664213	-0.047400	0.732177	0.143148
35459	-9.673508	1.270970	-0.813177	0.663603	-0.047895	0.732602	0.143636
35460	-9.599193	1.133651	-0.844070	0.663024	-0.048123	0.733070	0.143845
35461	-9.599049	1.164473	-0.778304	0.662447	-0.048200	0.733561	0.143975
35462	-9.606449	1.270447	-0.712548	0.661841	-0.048196	0.734085	0.144090
35463	-9.616668	1.405550	-0.641499	0.661192	-0.048238	0.734633	0.144266
35464	-9.551931	1.364476	-0.699934	0.660490	-0.048298	0.735225	0.144446
35465	-9.566309	1.384730	-0.729727	0.659743	-0.048251	0.735881	0.144536
35466	-9.593663	1.389364	-0.763730	0.658975	-0.048133	0.736576	0.144538
35467	-9.616088	1.342331	-0.839256	0.658220	-0.047861	0.737307	0.144338
35468	-9.643471	1.346251	-0.949844	0.657487	-0.047333	0.738086	0.143876
35469	-9.610665	1.491202	-1.063249	0.656764	-0.046852	0.738840	0.143462
35470	-9.593280	1.495827	-1.083889	0.656059	-0.046590	0.739517	0.143285
35471	-9.691927	1.483909	-1.223078	0.655450	-0.046386	0.740089	0.143184
35472	-9.673364	1.630305	-1.344872	0.654931	-0.046295	0.740556	0.143175
35473	-9.667754	1.596253	-1.319640	0.654531	-0.046385	0.740869	0.143356
35474	-9.680632	1.447770	-1.403114	0.654251	-0.046448	0.741081	0.143516
35475	-9.676514	1.418942	-1.399869	0.654105	-0.046492	0.741177	0.143675
35476	-9.698574	1.502739	-1.370212	0.654101	-0.046483	0.741159	0.143786
35477	-9.718647	1.554514	-1.254175	0.654213	-0.046424	0.741049	0.143863
35478	-9.630830	1.555644	-1.206879	0.654421	-0.046306	0.740870	0.143876
35479	-9.584427	1.676412	-1.102861	0.654682	-0.046384	0.740601	0.144048
35480	-9.672997	1.360882	-1.052744	0.654950	-0.046771	0.740228	0.144622
35481	-9.624906	1.315808	-1.083904	0.655257	-0.046951	0.739879	0.144958
35482	-9.615975	1.526454	-1.062166	0.655585	-0.047091	0.739510	0.145313
35483	-9.662623	1.547373	-1.092081	0.655947	-0.047306	0.739100	0.145695
35484	-9.670759	1.467066	-1.052468	0.656378	-0.047443	0.738653	0.145975
35485	-9.600409	1.488772	-1.037391	0.656864	-0.047424	0.738205	0.146062
35486	-9.630322	1.480339	-0.996010	0.657379	-0.047451	0.737712	0.146223
35487	-9.637660	1.387165	-0.971719	0.657951	-0.047293	0.737227	0.146152
35488	-9.690931	1.465510	-1.000001	0.658557	-0.047113	0.736717	0.146052
35489	-9.631556	1.441660	-0.991581	0.659202	-0.046811	0.736198	0.145859
35490	-9.637047	1.486159	-0.907012	0.659868	-0.046612	0.735633	0.145759
35491	-9.578726	1.479088	-0.834116	0.660523	-0.046525	0.735048	0.145771
35492	-9.554145	1.512555	-0.826640	0.661188	-0.046448	0.734452	0.145782
35493	-9.660502	1.519431	-0.895180	0.661863	-0.046361	0.733858	0.145744
35494	-9.700522	1.442982	-0.967131	0.662584	-0.046215	0.733229	0.145676
35495	-9.764281	1.322786	-0.911092	0.663387	-0.045967	0.732555	0.145493
35496	-9.666503	1.378562	-0.764044	0.664216	-0.045596	0.731887	0.145185
35497	-9.578123	1.378938	-0.643225	0.665058	-0.045155	0.731219	0.144833
35498	-9.541190	1.455717	-0.551162	0.665836	-0.044628	0.730630	0.144394
35499	-9.621503	1.493587	-0.613123	0.666570	-0.044201	0.730048	0.144083
35500	-9.648528	1.450311	-0.619516	0.667231	-0.043911	0.729491	0.143932
35501	-9.651393	1.476090	-0.583798	0.667846	-0.043801	0.728927	0.143977
35502	-9.578589	1.488924	-0.524605	0.668429	-0.043814	0.728360	0.144134
35503	-9.529299	1.458991	-0.414321	0.668910	-0.043918	0.727863	0.144381
35504	-9.608845	1.362520	-0.402969	0.669309	-0.044001	0.727450	0.144587
35505	-9.749988	1.388536	-0.575114	0.669670	-0.043966	0.727094	0.144717
35506	-9.626967	1.451390	-0.664664	0.670007	-0.043972	0.726744	0.144916
35507	-9.590982	1.523082	-0.687685	0.670375	-0.044043	0.726350	0.145168
35508	-9.689301	1.621777	-0.682082	0.670778	-0.044085	0.725942	0.145334
35509	-9.767110	1.649087	-0.690457	0.671253	-0.044201	0.725469	0.145468
35510	-9.697614	1.509831	-0.709198	0.671810	-0.044237	0.724959	0.145426
35511	-9.608035	1.491297	-0.658473	0.672447	-0.044191	0.724423	0.145168
35512	-9.534011	1.472942	-0.621104	0.673137	-0.044017	0.723876	0.144747
35513	-9.741657	1.503984	-0.511238	0.673832	-0.043854	0.723342	0.144239
35514	-9.776234	1.556539	-0.437342	0.674548	-0.043669	0.722802	0.143654
35515	-9.637621	1.501256	-0.351605	0.675234	-0.043567	0.722276	0.143105
35516	-9.569519	1.539705	-0.318304	0.675907	-0.043467	0.721783	0.142445
35517	-9.550503	1.598514	-0.338363	0.676525	-0.043562	0.721303	0.141911
35518	-9.624571	1.450663	-0.273507	0.677104	-0.043802	0.720834	0.141457
35519	-9.694568	1.270688	-0.201417	0.677604	-0.044007	0.720458	0.140916
35520	-9.635866	1.260061	-0.167408	0.678046	-0.044036	0.720172	0.140238
35521	-9.605798	1.235839	-0.151292	0.678405	-0.044055	0.719960	0.139584
35522	-9.568357	1.221345	-0.255514	0.678727	-0.043953	0.719820	0.138767
35523	-9.617809	1.365111	-0.294654	0.678976	-0.043808	0.719755	0.137929
35524	-9.749487	1.318635	-0.320884	0.679174	-0.043712	0.719715	0.137195
35525	-9.790970	1.253354	-0.358127	0.679358	-0.043534	0.719700	0.136416
35526	-9.691039	1.247547	-0.394801	0.679545	-0.043445	0.719640	0.135829
35527	-9.659198	1.180334	-0.452506	0.679717	-0.043370	0.719584	0.135289
35528	-9.684748	1.284187	-0.413842	0.679880	-0.043393	0.719505	0.134880
35529	-9.651251	1.123604	-0.369012	0.680045	-0.043470	0.719400	0.134585
35530	-9.681030	1.002751	-0.327290	0.680219	-0.043072	0.719399	0.133838
35531	-9.667376	1.280116	-0.306419	0.680379	-0.042561	0.719431	0.133010
35532	-9.682657	1.241749	-0.371876	0.680528	-0.042119	0.719448	0.132293
35533	-9.707832	1.191903	-0.379122	0.680637	-0.041673	0.719496	0.131614
35534	-9.689690	1.271602	-0.411951	0.680727	-0.041252	0.719546	0.131007
35535	-9.674066	1.301236	-0.334178	0.680784	-0.041074	0.719561	0.130685
35536	-9.664737	1.222851	-0.319676	0.680807	-0.041024	0.719573	0.130510
35537	-9.643163	1.196477	-0.252809	0.680782	-0.041012	0.719613	0.130427
35538	-9.665267	1.132958	-0.250061	0.680701	-0.040939	0.719718	0.130291
35539	-9.663154	1.207326	-0.330709	0.680599	-0.040723	0.719864	0.130084
35540	-9.715440	1.223413	-0.447789	0.680482	-0.040556	0.720010	0.129944
35541	-9.743488	1.197575	-0.484604	0.680374	-0.040363	0.720151	0.129791
35542	-9.691878	1.265312	-0.496002	0.680283	-0.040164	0.720269	0.129673
35543	-9.679106	1.306618	-0.463328	0.680240	-0.040023	0.720325	0.129625
35544	-9.663940	1.297794	-0.483118	0.680215	-0.039952	0.720356	0.129611
35545	-9.701631	1.203583	-0.557466	0.680232	-0.039833	0.720358	0.129549
35546	-9.710183	1.257874	-0.607320	0.680285	-0.039666	0.720326	0.129496
35547	-9.730461	1.282172	-0.659679	0.680429	-0.039572	0.720188	0.129539
35548	-9.740756	1.239141	-0.662506	0.680640	-0.039489	0.719984	0.129590
35549	-9.693582	1.258943	-0.567428	0.680945	-0.039320	0.719714	0.129535
35550	-9.690573	1.252118	-0.516493	0.681325	-0.039037	0.719403	0.129350
35551	-9.636247	1.244478	-0.349808	0.681710	-0.038706	0.719096	0.129131
35552	-9.614169	1.240914	-0.225123	0.682087	-0.038291	0.718825	0.128769
35553	-9.644286	1.330304	-0.067223	0.682370	-0.037918	0.718641	0.128402
35554	-9.651299	1.290423	-0.010062	0.682540	-0.037674	0.718527	0.128213
35555	-9.655580	1.177110	-0.042346	0.682619	-0.037411	0.718506	0.127991
35556	-9.643138	1.284038	-0.130948	0.682607	-0.037117	0.718583	0.127703
35557	-9.660628	1.378072	-0.251100	0.682526	-0.036980	0.718692	0.127562
35558	-9.649526	1.230350	-0.340304	0.682406	-0.036916	0.718821	0.127501
35559	-9.717216	1.267713	-0.422349	0.682308	-0.036781	0.718945	0.127364
35560	-9.691349	1.278829	-0.471062	0.682219	-0.036741	0.719033	0.127357
35561	-9.687655	1.272527	-0.430480	0.682187	-0.036684	0.719072	0.127325
35562	-9.716221	1.303398	-0.365582	0.682142	-0.036702	0.719112	0.127331
35563	-9.704973	1.246455	-0.288736	0.682090	-0.036675	0.719166	0.127315
35564	-9.676640	1.240454	-0.324355	0.682042	-0.036532	0.719248	0.127152
35565	-9.659641	1.348908	-0.340523	0.681978	-0.036474	0.719332	0.127033
35566	-9.684121	1.290240	-0.366544	0.681885	-0.036474	0.719435	0.126947
35567	-9.653569	1.278524	-0.374240	0.681813	-0.036420	0.719527	0.126825
35568	-9.678954	1.255405	-0.349624	0.681731	-0.036375	0.719638	0.126654
35569	-9.680411	1.268419	-0.351001	0.681661	-0.036290	0.719748	0.126428
35570	-9.717662	1.292016	-0.437498	0.681579	-0.036165	0.719885	0.126126
35571	-9.771990	1.330327	-0.534882	0.681553	-0.035975	0.719984	0.125756
35572	-9.714038	1.334237	-0.540893	0.681568	-0.035900	0.720022	0.125477
35573	-9.674139	1.231648	-0.546378	0.681637	-0.035794	0.720019	0.125151
35574	-9.701977	1.356602	-0.523729	0.681739	-0.035729	0.719969	0.124902
35575	-9.674774	1.260246	-0.479823	0.681869	-0.035873	0.719841	0.124888
35576	-9.679498	1.189543	-0.428322	0.681995	-0.036080	0.719707	0.124916
35577	-9.686531	1.169900	-0.323687	0.682116	-0.036279	0.719561	0.125032
35578	-9.685147	1.188254	-0.258526	0.682209	-0.036475	0.719442	0.125156
35579	-9.653953	1.186136	-0.229926	0.682257	-0.036562	0.719381	0.125214
35580	-9.649115	1.230266	-0.311984	0.682279	-0.036668	0.719342	0.125292
35581	-9.670278	1.131193	-0.356279	0.682281	-0.036782	0.719315	0.125399
35582	-9.688788	1.160911	-0.365359	0.682285	-0.036819	0.719303	0.125436
35583	-9.712600	1.269883	-0.316761	0.682281	-0.036827	0.719304	0.125451
35584	-9.669014	1.241708	-0.385427	0.682256	-0.036833	0.719318	0.125509
35585	-9.713407	1.194300	-0.479953	0.682266	-0.036806	0.719309	0.125513
35586	-9.731787	1.290242	-0.611387	0.682347	-0.036746	0.719237	0.125502
35587	-9.751556	1.322456	-0.632056	0.682505	-0.036737	0.719086	0.125510
35588	-9.745597	1.286486	-0.589157	0.682739	-0.036779	0.718856	0.125540
35589	-9.693844	1.204278	-0.599950	0.683068	-0.036677	0.718570	0.125421
35590	-9.726474	1.274162	-0.503193	0.683480	-0.036442	0.718237	0.125146
35591	-9.722207	1.251351	-0.452758	0.683930	-0.036247	0.717854	0.124949
35592	-9.677168	1.220900	-0.242459	0.684368	-0.036128	0.717463	0.124830
35593	-9.666104	1.262586	-0.211233	0.684791	-0.036099	0.717058	0.124846
35594	-9.642869	1.223569	-0.134913	0.685145	-0.036254	0.716676	0.125051
35595	-9.620047	1.151075	-0.125008	0.685420	-0.036456	0.716356	0.125316
35596	-9.636230	1.176303	-0.098206	0.685608	-0.036600	0.716131	0.125532
35597	-9.656281	1.220610	-0.099510	0.685774	-0.036670	0.715949	0.125647
35598	-9.658208	1.189736	-0.175519	0.685890	-0.036679	0.715826	0.125709
35599	-9.673559	1.167403	-0.220154	0.686004	-0.036600	0.715718	0.125727
35600	-9.668549	1.246908	-0.235695	0.686079	-0.036563	0.715638	0.125781
35601	-9.684656	1.285354	-0.196797	0.686124	-0.036720	0.715536	0.126068
35602	-9.664905	1.279236	-0.138719	0.686128	-0.036966	0.715458	0.126419
35603	-9.649074	1.292116	-0.107939	0.686074	-0.037306	0.715413	0.126867
35604	-9.654120	1.239465	-0.057702	0.685974	-0.037625	0.715422	0.127262
35605	-9.663144	1.205603	-0.035681	0.685818	-0.037821	0.715519	0.127495
35606	-9.666855	1.226059	-0.066883	0.685589	-0.037971	0.715699	0.127680
35607	-9.736248	1.178825	-0.090790	0.685327	-0.038041	0.715928	0.127776
35608	-9.686158	1.122592	-0.336410	0.685051	-0.037921	0.716217	0.127672
35609	-9.687100	1.407354	-0.341945	0.684765	-0.037907	0.716490	0.127680
35610	-9.711000	1.338406	-0.389642	0.684471	-0.038122	0.716727	0.127863
35611	-9.724169	1.289845	-0.463813	0.684227	-0.038249	0.716937	0.127953
35612	-9.740944	1.305443	-0.480774	0.684053	-0.038358	0.717088	0.128008
35613	-9.691737	1.264591	-0.480912	0.683943	-0.038530	0.717168	0.128091
35614	-9.713553	1.234236	-0.412343	0.683888	-0.038659	0.717206	0.128134
35615	-9.712647	1.287921	-0.300677	0.683851	-0.038825	0.717225	0.128175
35616	-9.686559	1.318443	-0.299178	0.683802	-0.038994	0.717259	0.128191
35617	-9.667320	1.296622	-0.261792	0.683728	-0.039174	0.717320	0.128190
35618	-9.697673	1.181822	-0.236703	0.683656	-0.039332	0.717391	0.128128
35619	-9.660530	1.175046	-0.362795	0.683610	-0.039285	0.717488	0.127850
35620	-9.729466	1.245057	-0.393167	0.683551	-0.039280	0.717585	0.127621
35621	-9.749864	1.253107	-0.467149	0.683535	-0.039274	0.717636	0.127421
35622	-9.783685	1.257259	-0.524399	0.683576	-0.039298	0.717623	0.127265
35623	-9.753927	1.222783	-0.576626	0.683671	-0.039306	0.717552	0.127151
35624	-9.715050	1.269021	-0.569226	0.683831	-0.039440	0.717389	0.127167
35625	-9.720018	1.210210	-0.499458	0.684051	-0.039654	0.717155	0.127241
35626	-9.747654	1.112059	-0.388531	0.684318	-0.039728	0.716900	0.127219
35627	-9.743814	1.212286	-0.364936	0.684649	-0.039606	0.716627	0.127013
35628	-9.726585	1.171539	-0.380202	0.685021	-0.039449	0.716317	0.126810
35629	-9.678777	1.165061	-0.317154	0.685414	-0.039166	0.716017	0.126468
35630	-9.688118	1.306537	-0.194946	0.685772	-0.039101	0.715707	0.126299
35631	-9.667636	1.194362	-0.058649	0.686077	-0.039119	0.715426	0.126229
35632	-9.638482	1.096091	0.002836	0.686315	-0.038925	0.715262	0.125926
35633	-9.609310	1.143388	0.085605	0.686468	-0.038562	0.715216	0.125462
35634	-9.588759	1.132220	0.155911	0.686486	-0.038199	0.715300	0.124995
35635	-9.593383	1.099221	0.250386	0.686309	-0.037953	0.715546	0.124635
35636	-9.611263	1.050779	0.338591	0.685936	-0.037763	0.715970	0.124313
35637	-9.579942	1.125654	0.258828	0.685371	-0.037524	0.716581	0.123975
35638	-9.568674	0.978691	0.155049	0.684639	-0.037265	0.717346	0.123676
35639	-9.612263	1.175278	0.017013	0.683750	-0.036871	0.718285	0.123257
35640	-9.605719	1.220479	-0.078636	0.682718	-0.036750	0.719290	0.123157
35641	-9.674375	1.153663	-0.174111	0.681586	-0.036657	0.720375	0.123112
35642	-9.669773	1.095569	-0.275665	0.680394	-0.036534	0.721517	0.123059
35643	-9.620209	1.186038	-0.343503	0.679120	-0.036480	0.722709	0.123115
35644	-9.612580	1.247627	-0.443883	0.677796	-0.036525	0.723926	0.123246
35645	-9.649377	1.205227	-0.484452	0.676434	-0.036632	0.725158	0.123451
35646	-9.641083	1.298903	-0.507272	0.675034	-0.036677	0.726435	0.123600
35647	-9.652194	1.320308	-0.467128	0.673594	-0.036827	0.727727	0.123810
35648	-9.665084	1.220340	-0.417740	0.672070	-0.037024	0.729083	0.124058
35649	-9.644310	1.265198	-0.142928	0.670323	-0.037342	0.730627	0.124327
35650	-9.469235	1.212058	0.091121	0.668414	-0.037692	0.732312	0.124580
35651	-9.419599	1.223885	0.482352	0.666137	-0.037894	0.734369	0.124609
35652	-9.293905	1.141546	0.578836	0.663444	-0.037826	0.736871	0.124228
35653	-9.295831	1.266176	0.593609	0.660152	-0.037519	0.739980	0.123371
35654	-9.169778	1.435240	0.388854	0.656185	-0.037102	0.743740	0.122045
35655	-9.339663	1.248349	0.025390	0.651630	-0.036859	0.747974	0.120647
35656	-9.382898	1.246762	-0.545399	0.646683	-0.036491	0.752577	0.118731
35657	-9.419838	1.511857	-0.967912	0.641495	-0.036470	0.757307	0.116789
35658	-9.416691	1.576857	-2.042592	0.636415	-0.036560	0.761923	0.114511
35659	-9.310540	1.916372	-2.404434	0.631502	-0.036874	0.766365	0.111938
35660	-9.493367	1.740133	-3.159449	0.627003	-0.037258	0.770429	0.109165
35661	-9.528918	1.809572	-3.167314	0.622907	-0.037746	0.774129	0.106240
35662	-9.557067	1.688628	-3.364484	0.619455	-0.038155	0.777326	0.102878
35663	-9.301238	1.842343	-3.765489	0.616681	-0.038493	0.780016	0.098983
35664	-9.331881	1.792282	-3.460888	0.614522	-0.039357	0.782114	0.095454
35665	-9.704589	1.195023	-3.223670	0.612978	-0.040501	0.783691	0.091906
35666	-9.899209	0.732953	-3.139621	0.612282	-0.040940	0.784765	0.087060
35667	-9.880053	0.928791	-3.168210	0.612096	-0.041012	0.785492	0.081597
35668	-9.510275	0.901966	-3.476761	0.612419	-0.040879	0.785824	0.075850
35669	-9.496665	0.634442	-3.524683	0.613142	-0.040680	0.785778	0.070396
35670	-9.439630	0.384852	-3.463123	0.614271	-0.040167	0.785425	0.064544
35671	-10.036963	1.154207	-2.912644	0.615705	-0.039707	0.784789	0.058629
35672	-9.958924	0.572649	-3.392775	0.617677	-0.039702	0.783610	0.053419
35673	-9.598603	-0.090478	-3.308267	0.620082	-0.039536	0.782071	0.047950
35674	-9.547419	-0.050103	-2.476835	0.622678	-0.039235	0.780345	0.042364
35675	-9.479766	0.368661	-1.618648	0.625221	-0.038988	0.778592	0.037053
35676	-9.544215	-0.586390	-1.462769	0.627479	-0.039090	0.776969	0.032569
35677	-9.516880	-1.608873	-1.834659	0.629630	-0.038478	0.775450	0.027611
35678	-9.707387	-0.968012	-1.858535	0.631659	-0.037075	0.774039	0.022260
35679	-9.707179	-0.775392	-2.070810	0.633582	-0.036063	0.772626	0.017976
35680	-9.469618	-0.537697	-2.432960	0.635517	-0.035093	0.771160	0.014101
35681	-9.691652	-0.564072	-1.959992	0.637429	-0.034347	0.769667	0.010860
35682	-9.691166	-1.042828	-1.959816	0.639392	-0.033149	0.768130	0.007414
35683	-9.763678	-1.102709	-1.675663	0.641274	-0.031484	0.766657	0.003754
35684	-9.558338	-0.588222	-1.720419	0.643152	-0.029226	0.765181	-0.000355
35685	-9.630257	-0.045968	-1.922522	0.645004	-0.027128	0.763687	-0.004116
35686	-9.616525	-0.092810	-1.979295	0.646887	-0.025496	0.762125	-0.007276
35687	-9.636793	-0.601996	-1.830653	0.648854	-0.024147	0.760465	-0.009948
35688	-9.701542	-0.543876	-1.493712	0.650787	-0.022751	0.758814	-0.012597
35689	-9.533925	-0.037148	-1.124663	0.652671	-0.021621	0.757185	-0.014965
35690	-9.594833	0.320679	-1.125749	0.654406	-0.020943	0.755663	-0.016969
35691	-9.594635	0.450865	-0.965960	0.655913	-0.021473	0.754322	-0.017735
35692	-9.648576	-0.506050	-1.428799	0.657360	-0.022426	0.753025	-0.018128
35693	-9.650531	-0.711973	-1.833173	0.658796	-0.023532	0.751728	-0.018410
35694	-9.883950	-1.232591	-1.947233	0.660484	-0.024078	0.750209	-0.019150
35695	-9.887791	-1.107659	-2.012422	0.662435	-0.023782	0.748457	-0.020634
35696	-9.869117	-1.295171	-1.501408	0.664584	-0.023252	0.746524	-0.022122
35697	-9.654459	-0.527759	-1.390760	0.666893	-0.022371	0.744426	-0.024150
35698	-9.843536	1.018564	-0.849513	0.669219	-0.022727	0.742298	-0.024942
35699	-9.848661	0.115462	-0.620406	0.671488	-0.024928	0.740212	-0.023836
35700	-9.669634	-0.371766	-0.215913	0.673687	-0.027049	0.738163	-0.023004
35701	-9.565091	-1.211228	-0.086674	0.675606	-0.029898	0.736345	-0.021415
35702	-9.570905	-1.741883	0.137465	0.677184	-0.032714	0.734817	-0.019916
35703	-9.594004	-1.660423	-0.045082	0.678420	-0.035148	0.733591	-0.018846
35704	-9.718021	-1.153657	-0.035439	0.679356	-0.037215	0.732637	-0.018244
35705	-9.575956	-0.601018	-0.408838	0.680112	-0.039449	0.731831	-0.017728
35706	-9.739495	-0.088401	-0.647979	0.680820	-0.041774	0.731054	-0.017297
35707	-9.641810	-1.398498	-0.947134	0.681460	-0.043583	0.730354	-0.017223
35708	-9.616827	-1.545497	-0.689452	0.682177	-0.044021	0.729621	-0.018721
35709	-9.409893	-0.628141	-0.555087	0.682891	-0.044677	0.728875	-0.020110
35710	-9.137883	0.652107	0.006067	0.683326	-0.046403	0.728352	-0.020376
35711	-9.474919	-0.479287	0.076257	0.683382	-0.049791	0.728125	-0.018529
35712	-9.198415	-1.275235	-0.007732	0.683279	-0.052362	0.728076	-0.017107
35713	-9.319945	-2.387806	-0.508122	0.683100	-0.053733	0.728159	-0.016517
35714	-9.288448	-1.981485	-1.075973	0.682972	-0.054060	0.728250	-0.016712
35715	-9.806122	-1.307915	-1.150406	0.682982	-0.054362	0.728223	-0.016464
35716	-9.626387	-1.015828	-1.198215	0.683207	-0.054603	0.728007	-0.015887
35717	-9.645614	-1.413614	-1.117552	0.683604	-0.054976	0.727626	-0.014946
35718	-9.694169	-1.135211	-0.717494	0.684109	-0.054824	0.727175	-0.014333
35719	-9.685529	-1.503275	-0.530533	0.684672	-0.054010	0.726707	-0.014283
35720	-9.658786	-0.892945	-0.200985	0.685202	-0.052291	0.726313	-0.015273
35721	-9.565502	-0.831188	0.067028	0.685571	-0.051138	0.726039	-0.015641
35722	-9.672219	-0.891664	-0.211605	0.685720	-0.050077	0.725963	-0.016070
35723	-9.950154	-0.688993	-0.626875	0.685811	-0.049321	0.725925	-0.016218
35724	-9.951235	-0.487144	-0.838350	0.685985	-0.048414	0.725812	-0.016645
35725	-9.931966	-1.342140	-1.117614	0.686308	-0.047779	0.725549	-0.016648
35726	-9.597519	-1.899711	-0.441311	0.686679	-0.046941	0.725251	-0.016704
35727	-9.569984	-1.208240	-0.069609	0.686999	-0.046089	0.725002	-0.016739
35728	-9.600263	-0.589241	0.024149	0.687037	-0.045467	0.725008	-0.016631
35729	-9.910500	-0.218917	-0.533318	0.687077	-0.043810	0.725044	-0.017835
35730	-9.889084	-1.026710	-0.725862	0.687108	-0.041591	0.725103	-0.019458
35731	-9.688528	-1.379309	-0.552800	0.687115	-0.039575	0.725174	-0.020703
35732	-9.591741	-0.838659	-0.372356	0.686997	-0.039177	0.725322	-0.020191
35733	-9.617067	-1.047407	-0.377229	0.686794	-0.038968	0.725548	-0.019374
35734	-9.754733	-0.781408	0.020170	0.686536	-0.037276	0.725861	-0.020117
35735	-9.827133	-0.630018	-0.169953	0.686141	-0.034724	0.726310	-0.021895
35736	-9.811744	-1.191334	-0.404522	0.685713	-0.032063	0.726785	-0.023529
35737	-9.346378	-1.373195	-0.675823	0.685212	-0.030156	0.727315	-0.024246
35738	-9.634347	-1.014193	-0.714801	0.684699	-0.028989	0.727856	-0.023921
35739	-9.943630	-0.842235	-0.783515	0.684243	-0.028014	0.728347	-0.023193
35740	-9.899390	-0.864423	-0.779618	0.683888	-0.026399	0.728747	-0.022988
35741	-9.858027	-1.168304	-0.660389	0.683581	-0.024273	0.729106	-0.023076
35742	-9.689199	-1.468377	-0.632418	0.683316	-0.021813	0.729429	-0.023177
35743	-9.593314	-0.979475	-0.465980	0.682916	-0.020261	0.729887	-0.021930
35744	-9.312145	-0.961822	-0.213521	0.682358	-0.019673	0.730496	-0.019398
35745	-9.747362	-0.859631	-0.086027	0.681586	-0.018231	0.731299	-0.017593
35746	-9.637929	-0.247990	-0.046661	0.680644	-0.016099	0.732250	-0.016601
35747	-9.405176	-0.728680	-0.202213	0.679442	-0.013724	0.733433	-0.015697
35748	-9.580062	-0.997239	-0.393404	0.678056	-0.011856	0.734781	-0.013994
35749	-9.590225	-0.759549	-0.539355	0.676472	-0.010685	0.736304	-0.011301
35750	-9.415169	-0.646377	-0.406903	0.674621	-0.009883	0.738057	-0.007802
35751	-9.493948	0.037297	0.092925	0.672403	-0.008859	0.740118	-0.004548
35752	-9.191831	0.560131	0.530352	0.669592	-0.007839	0.742686	-0.001455
35753	-9.179841	0.828095	0.509110	0.665884	-0.007054	0.746020	0.001820
35754	-9.504135	0.518006	0.598856	0.661444	-0.007109	0.749937	0.005978
35755	-9.677263	-1.118973	-1.157417	0.656912	-0.007100	0.753869	0.009878
35756	-9.552560	-0.572435	-1.963270	0.652405	-0.006293	0.757739	0.012642
35757	-9.721749	-0.267288	-2.505805	0.648126	-0.005019	0.761365	0.015186
35758	-10.059808	0.351429	-3.023881	0.644137	-0.003262	0.764709	0.017242
35759	-9.905478	1.667501	-3.181186	0.640527	-0.001872	0.767686	0.019519
35760	-10.075749	1.833414	-3.381377	0.637503	-0.001720	0.770100	0.023098
35761	-9.990856	0.965640	-3.774901	0.635435	-0.002257	0.771686	0.026804
35762	-9.752727	1.144376	-3.373852	0.634137	-0.003133	0.772621	0.030268
35763	-9.584480	0.873595	-2.912401	0.633452	-0.004706	0.773004	0.034371
35764	-9.519091	0.109087	-2.672394	0.633247	-0.005672	0.773006	0.037784
35765	-9.579561	0.598246	-2.244164	0.633319	-0.005811	0.772828	0.040142
35766	-9.522668	1.665127	-2.246899	0.633538	-0.006314	0.772511	0.042619
35767	-9.687163	1.723333	-2.223968	0.633842	-0.008939	0.771941	0.047666
35768	-9.761110	-0.181996	-2.280182	0.634418	-0.012135	0.771051	0.053363
35769	-9.750045	-1.379454	-2.323480	0.635270	-0.013337	0.770091	0.056695
35770	-9.788622	-0.449191	-1.907795	0.636184	-0.012630	0.769238	0.058162
35771	-9.714859	0.234298	-2.055502	0.637093	-0.011793	0.768369	0.059853
35772	-9.661276	0.535886	-2.355602	0.638164	-0.011148	0.767327	0.061899
35773	-9.722166	1.160694	-2.266034	0.639458	-0.010888	0.766033	0.064570
35774	-9.800942	1.561592	-2.038890	0.640999	-0.011232	0.764452	0.067880
35775	-9.658203	1.541228	-2.065884	0.642706	-0.012308	0.762634	0.071876
35776	-9.627288	1.231557	-1.828346	0.644511	-0.013652	0.760674	0.076112
35777	-9.599217	0.779930	-1.499118	0.646337	-0.015019	0.758668	0.080286
35778	-9.340816	0.950751	-1.087801	0.648077	-0.016360	0.756718	0.084297
35779	-9.413726	0.855483	-0.738093	0.649603	-0.018032	0.754860	0.088746
35780	-9.516861	0.549628	-0.851698	0.650989	-0.019223	0.753159	0.092709
35781	-9.584362	0.306010	-0.571837	0.652159	-0.019247	0.751815	0.095357
35782	-9.624651	0.730641	-0.154722	0.653118	-0.017687	0.750907	0.096248
35783	-9.298914	1.497171	-0.210119	0.653695	-0.016293	0.750322	0.097126
35784	-9.268617	1.386698	-0.620096	0.653888	-0.015335	0.750003	0.098438
35785	-9.544512	0.624207	-1.010158	0.653890	-0.013971	0.749901	0.099401
35786	-9.604570	0.592644	-1.221261	0.653813	-0.011536	0.750023	0.099302
35787	-9.467071	1.525579	-0.531841	0.653524	-0.009580	0.750254	0.099665
35788	-9.302808	1.306954	-0.147251	0.652819	-0.008245	0.750721	0.100882
35789	-9.398849	0.971983	0.330298	0.651600	-0.006667	0.751652	0.101943
35790	-9.452941	0.500827	0.577011	0.649700	-0.004331	0.753247	0.102420
35791	-9.658397	0.534751	0.912234	0.646994	-0.001354	0.755575	0.102483
35792	-9.670795	1.019240	1.658147	0.643263	0.000835	0.758594	0.103670
35793	-9.837735	1.037033	2.012607	0.638222	0.002366	0.762527	0.105923
35794	-10.798558	1.568587	1.904940	0.631911	0.003554	0.767380	0.108643
35795	-12.140053	1.727062	0.800132	0.624824	0.004037	0.772694	0.111908
35796	-13.794549	3.985153	0.550009	0.616910	0.003546	0.778392	0.116257
35797	-15.730859	4.581472	0.870882	0.608299	0.001723	0.784292	0.121882
35798	-16.924647	5.866021	2.529763	0.598664	-0.001706	0.790594	0.128686
35799	-16.696049	5.331321	4.150803	0.587541	-0.007564	0.797392	0.137493
35800	-17.010941	4.362334	0.872990	0.576415	-0.012481	0.804334	0.143656
35801	-15.769141	3.707281	-1.629454	0.565888	-0.018115	0.810641	0.149342
35802	-14.653970	2.456715	-3.084919	0.556719	-0.025804	0.815583	0.155636
35803	-13.671242	1.728418	-4.239828	0.549768	-0.034487	0.818957	0.160857
35804	-12.956809	2.187485	-7.404423	0.543497	-0.043039	0.822062	0.164230
35805	-11.986721	2.931897	-9.351648	0.534004	-0.053703	0.826701	0.168884
35806	-12.780264	4.349253	-7.014574	0.521833	-0.066626	0.831764	0.177255
35807	-14.570645	2.487537	-6.056479	0.510030	-0.080420	0.835661	0.187278
35808	-13.094251	1.397167	-6.852466	0.500141	-0.091839	0.839257	0.192544
35809	-12.526810	1.330124	-6.631727	0.492074	-0.100246	0.842872	0.193340
35810	-11.608469	2.052828	-6.815024	0.485701	-0.105245	0.846682	0.190126
35811	-11.167817	2.556735	-7.927863	0.480857	-0.107321	0.850288	0.185121
35812	-10.271065	3.286726	-7.303922	0.476921	-0.108872	0.853169	0.181096
35813	-9.762442	2.760895	-7.197846	0.474231	-0.109742	0.855143	0.178305
35814	-9.255924	1.892439	-7.086550	0.473529	-0.109502	0.856298	0.174739
35815	-8.795551	1.138524	-7.095833	0.474879	-0.108061	0.856728	0.169796
35816	-7.401356	1.564739	-6.668277	0.478072	-0.105157	0.856522	0.163582
35817	-6.352032	1.768302	-6.643054	0.482242	-0.102430	0.855615	0.157711
35818	-5.237558	2.137621	-6.406306	0.486940	-0.100619	0.853698	0.154807
35819	-4.649724	1.329270	-6.510900	0.491815	-0.099135	0.851123	0.154530
35820	-4.625331	0.556511	-6.190515	0.497247	-0.097426	0.847999	0.155408
35821	-4.332052	0.516116	-5.994026	0.503615	-0.094413	0.844599	0.155278
35822	-3.503110	0.591135	-5.664094	0.510102	-0.091216	0.841047	0.155292
35823	-3.140246	0.814345	-5.001599	0.516309	-0.087765	0.837585	0.155479
35824	-3.175163	0.744046	-4.914186	0.522148	-0.083896	0.834348	0.155522
35825	-3.175435	1.352336	-4.448346	0.527624	-0.079586	0.831386	0.155164
35826	-2.968213	1.595872	-4.135015	0.532413	-0.075549	0.828756	0.154897
35827	-2.913311	1.824328	-3.703335	0.536376	-0.072151	0.826472	0.155043
35828	-3.049864	1.516192	-3.254463	0.539671	-0.069619	0.824419	0.155698
35829	-3.233745	1.251359	-3.348668	0.542708	-0.066782	0.822692	0.155520
35830	-3.081628	1.368724	-2.825778	0.545071	-0.064591	0.821262	0.155739
35831	-3.123077	1.250223	-2.598585	0.546917	-0.062354	0.820262	0.155451
35832	-2.445855	1.874775	-2.323097	0.547911	-0.060601	0.819822	0.154962
35833	-2.602491	2.000381	-1.732688	0.547726	-0.059568	0.819958	0.155299
35834	-2.252021	2.246018	-1.001373	0.546603	-0.058833	0.820676	0.155739
35835	-1.638476	2.744176	-0.511480	0.544462	-0.058515	0.822003	0.156362
35836	-1.341994	2.183280	-0.616896	0.541126	-0.059068	0.823821	0.158155
35837	-2.154993	1.459302	-0.942308	0.537474	-0.059124	0.826073	0.158840
35838	-1.989731	2.415133	-0.836332	0.533566	-0.058759	0.828656	0.158692
35839	-1.499099	3.000004	-0.814518	0.528712	-0.059070	0.831623	0.159301
35840	-1.993017	2.535458	-0.927225	0.523095	-0.059757	0.834955	0.160158
35841	-2.598449	2.611094	-1.503887	0.517140	-0.060036	0.838613	0.160282
35842	-3.697853	2.441102	-2.663440	0.511250	-0.059680	0.842304	0.159956
35843	-4.424099	2.565362	-3.049026	0.505626	-0.059066	0.845750	0.159876
35844	-4.200234	2.627114	-3.524229	0.500191	-0.058597	0.848961	0.160126
35845	-3.921814	3.158756	-4.010852	0.494995	-0.058506	0.852001	0.160161
35846	-3.668546	3.431510	-4.644608	0.489652	-0.059257	0.854875	0.160991
35847	-4.758550	3.075023	-5.448968	0.484353	-0.060770	0.857307	0.163506
35848	-6.090153	2.866651	-5.847290	0.479625	-0.062320	0.859185	0.166966
35849	-6.608344	3.304603	-4.872001	0.475180	-0.063802	0.860657	0.171475
35850	-6.069266	2.774844	-5.178112	0.471127	-0.064259	0.861943	0.175969
35851	-5.370517	1.609757	-6.969475	0.467645	-0.063461	0.863202	0.179342
35852	-5.632881	1.693261	-8.005816	0.464655	-0.062006	0.864409	0.181792
35853	-7.176900	2.686687	-6.933610	0.461783	-0.060720	0.865402	0.184793
35854	-8.597121	2.742536	-6.444959	0.459003	-0.059818	0.866117	0.188625
35855	-9.163176	2.354617	-6.302245	0.456402	-0.058089	0.866905	0.191828
35856	-8.675914	2.380576	-7.613202	0.454551	-0.053498	0.867984	0.192679
35857	-8.046921	3.602803	-6.866170	0.453056	-0.048082	0.868808	0.193910
35858	-8.336972	3.959533	-7.080401	0.452034	-0.043796	0.868818	0.197238
35859	-9.044309	3.424830	-6.476169	0.450935	-0.041869	0.868074	0.203351
35860	-8.682142	2.122971	-6.066619	0.450121	-0.040069	0.867303	0.208737
35861	-8.110656	1.940656	-7.006833	0.450309	-0.035467	0.867275	0.209281
35862	-8.225837	3.852432	-6.753947	0.451330	-0.029779	0.867338	0.207699
35863	-9.698607	5.134567	-6.922717	0.453035	-0.024902	0.866567	0.207847
35864	-10.762082	4.963371	-5.371590	0.454997	-0.022697	0.864623	0.211872
35865	-10.206881	3.033450	-4.806930	0.457496	-0.021032	0.862256	0.216262
35866	-9.193322	1.792865	-5.841004	0.461203	-0.016575	0.860487	0.215824
35867	-8.394139	3.276077	-5.807224	0.466218	-0.009873	0.858782	0.212220
35868	-9.728033	5.582102	-5.114832	0.472292	-0.003238	0.856204	0.209388
35869	-11.356104	5.373188	-4.612113	0.479132	0.000577	0.851977	0.211110
35870	-11.194738	3.668020	-3.887144	0.486339	0.002862	0.847059	0.214377
35871	-10.399857	3.237786	-3.735053	0.494058	0.006059	0.842459	0.214783
35872	-9.438835	3.695212	-4.179825	0.502873	0.010668	0.837966	0.211704
35873	-9.692416	5.049563	-4.305208	0.512822	0.015896	0.832743	0.208089
35874	-11.209656	5.263167	-3.562786	0.523770	0.019681	0.825981	0.207445
35875	-12.063730	3.573548	-2.909228	0.535491	0.022332	0.818082	0.208547
35876	-11.776207	2.130599	-2.272269	0.547567	0.026128	0.810261	0.207281
35877	-11.292126	2.171911	-1.652474	0.559522	0.031826	0.803139	0.202215
35878	-10.752336	3.846759	-0.997676	0.571169	0.038835	0.796287	0.195409
35879	-10.409181	4.866492	-1.051648	0.582622	0.044784	0.788841	0.190465
35880	-10.508725	4.143467	-1.009817	0.593996	0.048189	0.780415	0.189204
35881	-10.838056	1.991124	-1.029217	0.605498	0.050661	0.771492	0.188694
35882	-10.922181	0.804849	-1.226281	0.616723	0.055385	0.763192	0.184725
35883	-10.819856	1.036013	-1.253626	0.627005	0.063121	0.756152	0.176396
35884	-9.873191	2.945891	-0.834880	0.635594	0.071560	0.750589	0.165877
35885	-8.069506	5.470073	-3.505439	0.640774	0.080661	0.747798	0.153948
35886	-9.023449	8.634791	-0.011040	0.643128	0.082334	0.746359	0.150183
35887	-8.421606	7.076718	-0.847595	0.644209	0.080931	0.745681	0.149684
35888	-10.229993	6.162702	1.603329	0.645980	0.072512	0.743947	0.154902
35889	-10.584767	2.070057	0.189131	0.648898	0.063380	0.741375	0.158988
35890	-10.392435	4.184175	-0.300583	0.650755	0.057005	0.739599	0.162054
35891	-10.202884	3.469550	-1.303892	0.652535	0.050211	0.737809	0.165270
35892	-10.174666	2.853319	-1.481826	0.654547	0.042623	0.736099	0.167059
35893	-10.085875	1.412210	-1.710412	0.656900	0.035380	0.734074	0.168420
35894	-9.927137	1.788199	-1.215199	0.659336	0.031196	0.732276	0.167556
35895	-10.841844	3.056960	0.169161	0.661945	0.028244	0.730486	0.165594
35896	-12.704729	4.461039	0.426298	0.664774	0.027080	0.728530	0.163055
35897	-12.673437	0.995310	0.624903	0.668184	0.027218	0.726730	0.157011
35898	-11.350886	3.607029	0.201256	0.671699	0.028910	0.725238	0.148376
35899	-9.503047	2.752701	0.440285	0.674824	0.027183	0.723131	0.144762
35900	-9.194561	0.760501	0.722529	0.677398	0.024998	0.721402	0.141723
35901	-9.120715	0.013335	0.649791	0.679523	0.024897	0.720311	0.137042
35902	-9.331922	0.796496	0.732302	0.681104	0.026123	0.719761	0.131754
35903	-9.305707	1.926968	0.750161	0.682244	0.026546	0.719411	0.127618
35904	-9.363668	1.491163	0.348132	0.683073	0.025654	0.719070	0.125267
35905	-9.673856	0.948795	-0.180974	0.683704	0.025643	0.718950	0.122484
35906	-9.748544	1.321830	-0.553115	0.684265	0.026955	0.718986	0.118803
35907	-10.000288	1.546851	-0.693706	0.684857	0.028072	0.718853	0.115905
35908	-9.678606	1.779544	-0.793178	0.685602	0.028876	0.718512	0.113390
35909	-9.793578	1.473443	-0.746792	0.686405	0.029560	0.718020	0.111455
35910	-9.716466	1.493494	-0.602912	0.687267	0.030908	0.717492	0.109156
35911	-9.477587	2.431232	-0.177097	0.688078	0.031940	0.716947	0.107309
35912	-9.458543	2.334299	0.126509	0.688815	0.031352	0.716271	0.107268
35913	-9.585822	1.452265	-0.048817	0.689458	0.030698	0.715663	0.107390
35914	-9.645610	1.757691	-0.132259	0.690012	0.030472	0.715148	0.107319
35915	-9.684859	1.990812	-0.161358	0.690543	0.029562	0.714549	0.108153
35916	-9.635080	1.968843	-0.265584	0.691013	0.027972	0.713903	0.109827
35917	-9.590348	2.075403	-0.007118	0.691421	0.025731	0.713207	0.112300
35918	-9.425357	1.935967	0.198305	0.691707	0.023120	0.712570	0.115111
35919	-9.410761	1.621785	0.293589	0.691855	0.021188	0.712151	0.117170
35920	-9.504869	1.396821	0.334493	0.691869	0.020596	0.712042	0.117853
35921	-9.614192	1.530990	0.292939	0.691797	0.021152	0.712186	0.117305
35922	-9.597032	1.745100	0.197820	0.691607	0.021844	0.712465	0.116603
35923	-9.559036	1.767709	0.112829	0.691294	0.022335	0.712826	0.116156
35924	-9.513131	1.898446	0.165596	0.690855	0.022507	0.713254	0.116111
35925	-9.532687	2.006231	0.116825	0.690322	0.022462	0.713747	0.116259
35926	-9.571506	1.931793	-0.063239	0.689724	0.022407	0.714308	0.116373
35927	-9.637502	1.883700	-0.211691	0.689114	0.022584	0.714907	0.116277
35928	-9.646362	1.924252	-0.358192	0.688535	0.022730	0.715481	0.116145
35929	-9.615537	2.040235	-0.323952	0.687985	0.022573	0.715986	0.116320
35930	-9.638768	1.778545	-0.355741	0.687460	0.022502	0.716469	0.116465
35931	-9.656996	1.727967	-0.460937	0.686996	0.022817	0.716947	0.116201
35932	-9.627758	1.831775	-0.455220	0.686556	0.023319	0.717416	0.115805
35933	-9.618440	1.867928	-0.319981	0.686156	0.023782	0.717838	0.115472
35934	-9.480464	1.953255	-0.218026	0.685739	0.024093	0.718257	0.115273
35935	-9.549753	1.793462	-0.238269	0.685272	0.024482	0.718734	0.115000
35936	-9.581074	1.913333	-0.258915	0.684758	0.025085	0.719281	0.114510
35937	-9.594391	1.944008	-0.258284	0.684238	0.025625	0.719823	0.114090
35938	-9.629686	1.896595	-0.422901	0.683706	0.026019	0.720361	0.113791
35939	-9.662437	1.861078	-0.541953	0.683218	0.026415	0.720847	0.113555
35940	-9.559625	2.010644	-0.523495	0.682754	0.026730	0.721299	0.113405
35941	-9.539327	2.066703	-0.431210	0.682310	0.026694	0.721683	0.113637
35942	-9.446097	1.780801	-0.478897	0.681897	0.026568	0.722024	0.113979
35943	-9.533310	1.826726	-0.483106	0.681456	0.026631	0.722419	0.114101
35944	-9.578994	2.062410	-0.463433	0.681059	0.026669	0.722769	0.114247
35945	-9.634897	2.020116	-0.459002	0.680679	0.026534	0.723081	0.114570
35946	-9.528360	1.792282	-0.502410	0.680313	0.026536	0.723402	0.114717
35947	-9.527768	1.910264	-0.476272	0.679951	0.026770	0.723749	0.114623
35948	-9.514698	2.045497	-0.493941	0.679589	0.026853	0.724081	0.114647
35949	-9.524062	1.927415	-0.451838	0.679223	0.026709	0.724384	0.114941
35950	-9.522530	1.815104	-0.497681	0.678861	0.026633	0.724694	0.115143
35951	-9.523825	1.978431	-0.497805	0.678465	0.026607	0.725045	0.115270
35952	-9.536133	2.050364	-0.444555	0.678064	0.026417	0.725374	0.115603
35953	-9.505569	1.995812	-0.473972	0.677653	0.026165	0.725716	0.115923
35954	-9.491848	2.014976	-0.528271	0.677217	0.025997	0.726103	0.116085
35955	-9.505766	2.086179	-0.506036	0.676766	0.025888	0.726530	0.116067
35956	-9.475343	2.069907	-0.506537	0.676292	0.025760	0.726990	0.115979
35957	-9.547939	1.952469	-0.569450	0.675807	0.025639	0.727466	0.115844
35958	-9.652628	1.882169	-0.702188	0.675351	0.025630	0.727940	0.115537
35959	-9.596455	2.026482	-0.723169	0.674933	0.025593	0.728380	0.115209
35960	-9.581720	2.149776	-0.655012	0.674523	0.025313	0.728783	0.115125
35961	-9.670290	1.990318	-0.790814	0.674171	0.024883	0.729125	0.115117
35962	-9.671664	1.988001	-0.844373	0.673872	0.024507	0.729426	0.115035
35963	-9.597305	2.006956	-0.765119	0.673645	0.024158	0.729684	0.114808
35964	-9.583933	2.014197	-0.772051	0.673468	0.023878	0.729914	0.114436
35965	-9.611641	1.858683	-0.787485	0.673340	0.023717	0.730123	0.113896
35966	-9.568978	1.890932	-0.748223	0.673263	0.023688	0.730310	0.113151
35967	-9.569292	1.890313	-0.680152	0.673217	0.023709	0.730483	0.112304
35968	-9.557738	1.910630	-0.713563	0.673174	0.023721	0.730646	0.111490
35969	-9.661385	1.867633	-0.718173	0.673160	0.023656	0.730781	0.110699
35970	-9.606633	1.958099	-0.688979	0.673143	0.023596	0.730921	0.109896
35971	-9.576514	1.857731	-0.669624	0.673137	0.023384	0.731034	0.109221
35972	-9.574871	1.754771	-0.620396	0.673107	0.023277	0.731184	0.108420
35973	-9.549588	1.816364	-0.622351	0.673063	0.023265	0.731361	0.107496
35974	-9.553005	1.861346	-0.611181	0.672957	0.023176	0.731591	0.106612
35975	-9.583476	1.817886	-0.619512	0.672850	0.023060	0.731825	0.105702
35976	-9.600364	1.790200	-0.657111	0.672721	0.022992	0.732090	0.104697
35977	-9.601949	1.773932	-0.636603	0.672569	0.022924	0.732384	0.103625
35978	-9.562710	1.792683	-0.718157	0.672438	0.022909	0.732666	0.102480
35979	-9.596504	1.793905	-0.813584	0.672313	0.022819	0.732943	0.101338
35980	-9.626141	1.691183	-0.898363	0.672222	0.022739	0.733188	0.100179
35981	-9.616291	1.732592	-0.903317	0.672180	0.022663	0.733395	0.098955
35982	-9.605182	1.756474	-0.849548	0.672164	0.022543	0.733575	0.097751
35983	-9.575664	1.692341	-0.784056	0.672171	0.022319	0.733730	0.096580
35984	-9.664048	1.598137	-0.848816	0.672212	0.022243	0.733866	0.095273
35985	-9.668364	1.594439	-0.896540	0.672286	0.022278	0.733985	0.093815
35986	-9.643837	1.618278	-0.869753	0.672415	0.022327	0.734056	0.092311
35987	-9.642488	1.523371	-0.830740	0.672547	0.022347	0.734115	0.090864
35988	-9.700334	1.427387	-0.848301	0.672726	0.022470	0.734134	0.089340
35989	-9.637355	1.529419	-0.890949	0.672952	0.022695	0.734113	0.087736
35990	-9.629789	1.583180	-0.874732	0.673190	0.022785	0.734066	0.086277
35991	-9.759175	1.426223	-0.990910	0.673498	0.022822	0.733949	0.084839
35992	-9.665224	1.499795	-0.972499	0.673892	0.022917	0.733748	0.083418
35993	-9.634117	1.408294	-0.924529	0.674349	0.022992	0.733485	0.082006
35994	-9.677148	1.313186	-0.931313	0.674893	0.023108	0.733138	0.080580
