// Start Time: Unknown
// Update Rate: 60.0Hz
// Filter Profile: human (46.1)
// Option Flags: AHS Disabled ICC Disabled 
// Firmware Version: 4.3.5
PacketCounter	Acc_X	Acc_Y	Acc_Z	Quat_q0	Quat_q1	Quat_q2	Quat_q3
40913	-2.030136	2.466404	9.382736	-0.799665	-0.052093	-0.163391	-0.575434
40914	-2.326690	2.498808	9.739011	-0.799703	-0.050841	-0.163518	-0.575458
40915	-2.216838	2.695816	9.819809	-0.799728	-0.049592	-0.163980	-0.575401
40916	-2.159309	2.797860	9.777477	-0.799787	-0.048019	-0.164289	-0.575364
40917	-2.051749	2.697146	9.661506	-0.799846	-0.046524	-0.164622	-0.575310
40918	-1.942056	2.623479	9.409840	-0.799911	-0.045076	-0.164723	-0.575307
40919	-1.970588	2.544427	9.204601	-0.799819	-0.043854	-0.164981	-0.575454
40920	-2.007699	2.386391	9.377450	-0.799672	-0.042716	-0.165102	-0.575710
40921	-1.994051	2.376100	9.558259	-0.799468	-0.041881	-0.165275	-0.576004
40922	-2.094405	2.391983	9.672782	-0.799223	-0.041150	-0.165360	-0.576372
40923	-2.177063	2.625717	9.836027	-0.798974	-0.040637	-0.165356	-0.576755
40924	-2.190480	2.643018	9.791468	-0.798754	-0.040179	-0.165023	-0.577187
40925	-2.204336	2.512607	9.762207	-0.798590	-0.040078	-0.164823	-0.577478
40926	-2.199868	2.633212	9.609362	-0.798521	-0.040208	-0.164536	-0.577647
40927	-2.154990	2.687725	9.620866	-0.798513	-0.040408	-0.164254	-0.577723
40928	-2.095018	2.770473	9.527205	-0.798625	-0.040641	-0.163704	-0.577709
40929	-2.082802	2.754191	9.296115	-0.798670	-0.040939	-0.163087	-0.577800
40930	-2.014474	2.700057	9.362983	-0.798679	-0.041186	-0.162507	-0.577934
40931	-1.993900	2.645859	9.357248	-0.798703	-0.041461	-0.161907	-0.578050
40932	-1.959503	2.575487	9.408977	-0.798724	-0.042057	-0.161618	-0.578058
40933	-2.081565	2.639480	9.364756	-0.798857	-0.042640	-0.161179	-0.577954
40934	-1.989401	2.641692	9.325585	-0.799024	-0.043081	-0.160650	-0.577837
40935	-1.968972	2.540772	9.363889	-0.799199	-0.043552	-0.160129	-0.577705
40936	-2.009041	2.717815	9.388176	-0.799342	-0.044085	-0.159731	-0.577577
40937	-2.048329	2.734323	9.361610	-0.799518	-0.044324	-0.159112	-0.577485
40938	-1.978238	2.713689	9.304363	-0.799634	-0.044521	-0.158512	-0.577475
40939	-2.026260	2.713729	9.218497	-0.799692	-0.044554	-0.157898	-0.577560
40940	-1.970604	2.466289	9.374963	-0.799801	-0.044602	-0.157366	-0.577551
40941	-1.940088	2.561869	9.228960	-0.800008	-0.044657	-0.156764	-0.577423
40942	-1.901151	2.532143	9.217766	-0.800149	-0.044742	-0.156535	-0.577284
40943	-1.985365	2.700836	9.272248	-0.800273	-0.044714	-0.156278	-0.577183
40944	-2.032226	2.636401	9.390298	-0.800363	-0.044534	-0.156024	-0.577141
40945	-1.937581	2.473204	9.328134	-0.800523	-0.044298	-0.155743	-0.577014
40946	-1.960470	2.710860	9.237597	-0.800615	-0.044169	-0.155674	-0.576914
40947	-2.005865	2.542414	9.306075	-0.800619	-0.043800	-0.155549	-0.576971
40948	-1.950717	2.392717	9.351156	-0.800692	-0.043735	-0.155519	-0.576883
40949	-1.850770	2.577767	9.321568	-0.800831	-0.043614	-0.155555	-0.576688
40950	-1.995699	2.659066	9.387400	-0.800920	-0.043464	-0.155600	-0.576564
40951	-2.025328	2.792322	9.372763	-0.800887	-0.043266	-0.155618	-0.576620
40952	-2.045649	2.739830	9.232181	-0.800778	-0.042994	-0.155607	-0.576795
40953	-1.964113	2.668375	9.312121	-0.800625	-0.042638	-0.155640	-0.577026
40954	-2.084987	2.361283	9.614836	-0.800517	-0.042466	-0.155822	-0.577138
40955	-1.889563	2.423547	9.468747	-0.800557	-0.042475	-0.155875	-0.577067
40956	-2.001432	2.720818	9.476454	-0.800471	-0.042266	-0.156111	-0.577139
40957	-2.076299	2.755886	9.562977	-0.800297	-0.042014	-0.156013	-0.577425
40958	-1.951172	2.460676	9.528174	-0.800171	-0.041532	-0.155425	-0.577793
40959	-1.956095	2.156239	9.486156	-0.800134	-0.041502	-0.155157	-0.577918
40960	-1.956103	2.444226	9.280256	-0.800146	-0.041588	-0.155013	-0.577933
40961	-2.013610	2.636399	9.486828	-0.800045	-0.041530	-0.154878	-0.578115
40962	-1.977954	2.608166	9.439350	-0.799888	-0.041265	-0.154463	-0.578462
40963	-2.017085	2.623022	9.287393	-0.799594	-0.040984	-0.154305	-0.578930
40964	-2.033248	2.380122	9.488288	-0.799288	-0.040457	-0.153919	-0.579492
40965	-1.873986	2.133861	9.484210	-0.799077	-0.040465	-0.153831	-0.579805
40966	-1.835412	2.214898	9.171852	-0.798839	-0.040511	-0.154110	-0.580057
40967	-1.958647	2.444388	9.257429	-0.798497	-0.040704	-0.154746	-0.580344
40968	-1.990911	2.656239	9.204060	-0.798173	-0.040543	-0.154992	-0.580736
40969	-1.961578	2.451719	9.128505	-0.797768	-0.040018	-0.155144	-0.581288
40970	-1.925414	2.043531	9.259406	-0.797334	-0.039497	-0.155494	-0.581825
40971	-2.011060	2.133747	9.214357	-0.796867	-0.039398	-0.156365	-0.582237
40972	-2.121245	2.284201	9.110345	-0.796225	-0.039198	-0.157477	-0.582829
40973	-2.141102	2.281122	8.904402	-0.795404	-0.038751	-0.158739	-0.583637
40974	-2.017241	2.298228	8.557621	-0.794362	-0.038002	-0.160230	-0.584698
40975	-1.931935	2.187750	8.252196	-0.792901	-0.037129	-0.162717	-0.586049
40976	-1.794244	2.057842	7.887125	-0.790818	-0.036156	-0.166626	-0.587822
40977	-2.429785	2.374365	7.718768	-0.787893	-0.035719	-0.172720	-0.590014
40978	-2.813433	2.748320	8.100843	-0.784666	-0.034385	-0.178800	-0.592577
40979	-2.474244	2.213554	8.273305	-0.781234	-0.032529	-0.185396	-0.595183
40980	-2.345582	2.128744	8.141189	-0.777605	-0.030544	-0.192796	-0.597685
40981	-2.499657	2.148211	8.154000	-0.773453	-0.028614	-0.202028	-0.600113
40982	-3.316489	2.035842	8.015678	-0.768625	-0.026629	-0.213052	-0.602590
40983	-3.640549	2.801603	7.670999	-0.763891	-0.023985	-0.223611	-0.604892
40984	-3.219083	2.834604	7.298932	-0.759278	-0.018871	-0.234057	-0.606925
40985	-3.395901	2.640401	7.421810	-0.754323	-0.012656	-0.245843	-0.608603
40986	-4.320646	2.420194	7.542218	-0.748230	-0.006498	-0.258715	-0.610882
40987	-4.462406	2.256518	7.224170	-0.741866	-0.001658	-0.272220	-0.612803
40988	-4.037812	2.503096	6.933282	-0.735975	0.002821	-0.285866	-0.613689
40989	-3.961443	2.688180	6.436306	-0.730887	0.008729	-0.300113	-0.612911
40990	-4.825609	3.650157	7.356455	-0.725546	0.014929	-0.316697	-0.610789
40991	-6.175988	4.108077	6.977335	-0.718498	0.021240	-0.333979	-0.609727
40992	-5.649233	3.777688	6.146952	-0.711237	0.027875	-0.349243	-0.609421
40993	-4.983877	3.722415	5.084000	-0.704508	0.036283	-0.363606	-0.608394
40994	-6.257907	3.701127	5.388167	-0.698051	0.045736	-0.380179	-0.605060
40995	-7.450681	4.076866	6.930618	-0.691544	0.054605	-0.398621	-0.599906
40996	-8.136295	4.289219	6.767684	-0.683851	0.064144	-0.416193	-0.595833
40997	-6.931013	3.834262	5.788222	-0.675773	0.074568	-0.431029	-0.593283
40998	-6.633572	3.225719	5.008281	-0.666838	0.084475	-0.446606	-0.590537
40999	-7.634237	2.876399	4.853085	-0.658385	0.092419	-0.464035	-0.585372
41000	-8.221546	3.657814	5.888118	-0.651045	0.099802	-0.482963	-0.576998
41001	-9.304081	4.616233	6.108671	-0.644174	0.109275	-0.499521	-0.568839
41002	-9.115409	3.433577	4.359365	-0.637219	0.119958	-0.512173	-0.563241
41003	-8.119230	4.229566	4.589858	-0.630793	0.126721	-0.527137	-0.555129
41004	-8.528757	3.928150	4.586074	-0.622504	0.133293	-0.543181	-0.547427
41005	-9.107040	3.833446	4.531777	-0.614587	0.139226	-0.558925	-0.538981
41006	-9.865483	4.165995	5.536487	-0.607168	0.148446	-0.572532	-0.530582
41007	-10.563419	3.956507	4.597390	-0.600680	0.161091	-0.581514	-0.524475
41008	-9.675783	2.134809	3.113893	-0.593907	0.172195	-0.590352	-0.518756
41009	-8.819540	0.918772	2.708453	-0.587791	0.177000	-0.605252	-0.506797
41010	-9.581918	1.388219	4.362041	-0.582095	0.179831	-0.622132	-0.491710
41011	-10.016685	2.615818	5.497361	-0.578446	0.180949	-0.638150	-0.474786
41012	-11.435844	2.845539	5.996705	-0.576579	0.183556	-0.649976	-0.459777
41013	-11.631789	2.114653	5.684114	-0.577622	0.185105	-0.658526	-0.445458
41014	-11.448310	2.047347	4.420005	-0.580746	0.185247	-0.664989	-0.431516
41015	-11.958128	1.441007	4.072484	-0.586525	0.180895	-0.671686	-0.414855
41016	-11.920069	1.881950	4.467416	-0.593776	0.175293	-0.676794	-0.398312
41017	-11.708781	2.308074	3.693842	-0.602651	0.166182	-0.680973	-0.381407
41018	-10.997406	1.580667	3.336683	-0.612565	0.154551	-0.684169	-0.364404
41019	-10.603954	2.056513	3.167750	-0.623212	0.141185	-0.686219	-0.347531
41020	-10.399150	2.484133	2.555813	-0.633972	0.127087	-0.686775	-0.332068
41021	-10.834476	2.194956	2.634971	-0.645375	0.112513	-0.685781	-0.317076
41022	-10.725533	3.328849	2.611084	-0.656935	0.098944	-0.682793	-0.304041
41023	-9.851681	3.363401	1.664498	-0.668146	0.086537	-0.678413	-0.292999
41024	-9.467912	2.366081	2.112720	-0.679221	0.075676	-0.672678	-0.283613
41025	-8.652143	2.235148	1.841357	-0.690738	0.064428	-0.665972	-0.274246
41026	-8.279610	1.981333	1.318047	-0.701552	0.051845	-0.659890	-0.263975
41027	-8.824949	2.058954	1.731904	-0.712239	0.039297	-0.653418	-0.253409
41028	-8.774247	2.460385	2.163997	-0.722809	0.027042	-0.646617	-0.242287
41029	-8.622976	2.688670	2.609260	-0.733101	0.016325	-0.639568	-0.230758
41030	-8.203104	2.699232	2.513723	-0.743316	0.008786	-0.631840	-0.219506
41031	-7.989822	2.052942	2.631462	-0.752973	0.004223	-0.624070	-0.208688
41032	-8.344489	1.540149	2.228102	-0.761637	0.001812	-0.617056	-0.197857
41033	-8.330109	2.253372	2.846977	-0.769195	-0.001229	-0.611307	-0.186119
41034	-8.231288	2.528285	3.275339	-0.775764	-0.003918	-0.606375	-0.174598
41035	-8.467466	2.917324	2.930024	-0.780973	-0.006694	-0.602706	-0.163655
41036	-8.951762	3.329651	3.228269	-0.784787	-0.010596	-0.600513	-0.152912
41037	-9.322658	3.437984	3.073245	-0.787504	-0.015693	-0.599555	-0.141859
41038	-10.009472	3.833020	2.954735	-0.789393	-0.020629	-0.599298	-0.131434
41039	-10.797707	3.419287	2.916369	-0.791015	-0.024657	-0.598930	-0.122354
41040	-11.748767	2.804771	1.869472	-0.792639	-0.028723	-0.598223	-0.114135
41041	-12.343317	2.830924	1.420397	-0.795060	-0.034110	-0.596213	-0.106046
41042	-11.531704	3.731610	1.338770	-0.798284	-0.039714	-0.592798	-0.098770
41043	-11.506745	4.603524	0.885558	-0.802060	-0.044403	-0.588236	-0.093305
41044	-11.707827	4.032113	0.678786	-0.806520	-0.047243	-0.582353	-0.090323
41045	-11.047625	3.313232	0.063566	-0.810775	-0.049863	-0.576374	-0.089171
41046	-10.967278	2.297388	0.357882	-0.814339	-0.053401	-0.571001	-0.089212
41047	-10.474138	1.842190	-0.223225	-0.817417	-0.057978	-0.566017	-0.089958
41048	-10.455559	1.773667	-0.346464	-0.819878	-0.064937	-0.561758	-0.089504
41049	-9.904191	1.987784	-0.128653	-0.822249	-0.071920	-0.557616	-0.088312
41050	-9.131939	2.150279	0.022559	-0.824469	-0.078553	-0.553670	-0.086777
41051	-8.772335	2.305510	0.348732	-0.826956	-0.084963	-0.549191	-0.085521
41052	-8.508963	2.328487	0.765972	-0.830083	-0.091345	-0.543595	-0.084396
41053	-8.994723	2.378484	1.447229	-0.833680	-0.097051	-0.537230	-0.083318
41054	-9.424025	2.380513	2.422548	-0.837702	-0.101241	-0.530295	-0.082418
41055	-10.031631	2.269720	3.342303	-0.842087	-0.104057	-0.522811	-0.082037
41056	-10.159911	1.457845	4.349497	-0.847282	-0.106674	-0.513861	-0.081739
41057	-10.042701	0.962456	5.587262	-0.853302	-0.110515	-0.503148	-0.080645
41058	-9.780321	1.358668	7.934649	-0.860969	-0.116297	-0.488944	-0.078366
41059	-9.457708	1.613986	10.135057	-0.870343	-0.123652	-0.470696	-0.075224
41060	-10.789303	1.737197	11.815143	-0.881214	-0.130977	-0.448623	-0.071027
41061	-11.323176	0.130178	12.302879	-0.894828	-0.137220	-0.419782	-0.065090
41062	-9.945715	-0.848208	12.546089	-0.909733	-0.145126	-0.384983	-0.055785
41063	-8.288578	-0.039077	11.587474	-0.924275	-0.154346	-0.346322	-0.044205
41064	-7.337046	-0.226183	10.135726	-0.936970	-0.164412	-0.306738	-0.031111
41065	-7.909789	-1.209226	9.384884	-0.946431	-0.179940	-0.267679	-0.015421
41066	-8.238074	-3.401715	7.601501	-0.952532	-0.200733	-0.228847	0.004174
41067	-8.015186	-2.566388	6.048100	-0.952895	-0.232340	-0.192809	0.028885
41068	-7.890373	-1.732990	4.456049	-0.950056	-0.264185	-0.155907	0.057386
41069	-4.655842	0.183075	2.373340	-0.944022	-0.294869	-0.119469	0.087186
41070	-2.341187	2.420772	1.162375	-0.938250	-0.314985	-0.085938	0.114394
41071	-2.468810	2.561820	-1.547798	-0.933471	-0.325779	-0.053613	0.140093
41072	-2.152135	6.023546	-6.718885	-0.928784	-0.330281	-0.021406	0.166783
41073	-1.337045	20.461834	-13.382842	-0.926873	-0.323981	-0.002402	0.189573
41074	-2.928183	30.190365	-11.486899	-0.930704	-0.298796	-0.006158	0.210884
41075	-6.666146	24.031168	-3.130937	-0.931754	-0.286603	-0.008440	0.222758
41076	-8.452968	21.584324	0.639548	-0.940660	-0.253587	-0.017657	0.224813
41077	-3.812090	9.368111	-1.532160	-0.949734	-0.224685	-0.030018	0.215919
41078	-3.973829	9.862314	-1.962980	-0.955154	-0.219723	-0.054900	0.190757
41079	-9.319701	9.793011	1.574992	-0.961219	-0.207120	-0.086576	0.160200
41080	-14.033811	4.660741	-1.051621	-0.968972	-0.170107	-0.121283	0.132086
41081	-14.757374	-1.249223	-3.399642	-0.972044	-0.133924	-0.161901	0.104795
41082	-15.868448	-3.018406	-1.916282	-0.970297	-0.096458	-0.208910	0.074678
41083	-13.454557	-7.917105	-7.051747	-0.963041	-0.055046	-0.260302	0.042024
41084	-14.911114	-8.458723	-6.812758	-0.947819	-0.024539	-0.317791	0.006762
41085	-16.701362	-5.659421	-3.328775	-0.924802	0.004603	-0.379382	-0.028090
41086	-16.596837	-3.974425	-0.494310	-0.894900	0.040043	-0.439911	-0.063474
41087	-13.434876	-2.130087	4.773974	-0.860125	0.080638	-0.491829	-0.108564
41088	-14.229270	-6.458537	2.063797	-0.826207	0.127840	-0.524324	-0.161629
41089	-13.852989	-11.477109	-2.636572	-0.792448	0.171507	-0.543943	-0.216187
41090	-17.980467	-14.488080	-2.124422	-0.758287	0.205187	-0.559785	-0.263705
41091	-19.527277	-18.648838	2.373128	-0.730755	0.231390	-0.567300	-0.301043
41092	-14.250516	-19.317769	3.859644	-0.711366	0.253503	-0.566730	-0.329412
41093	-10.303536	-17.657067	5.544323	-0.696502	0.271516	-0.566020	-0.347543
41094	-9.249649	-16.833901	7.989929	-0.684888	0.288293	-0.564631	-0.359176
41095	-11.289450	-16.547426	8.183618	-0.676674	0.302454	-0.564420	-0.363405
41096	-12.507921	-13.425605	10.258045	-0.672731	0.310130	-0.567173	-0.359954
41097	-12.872660	-11.594669	12.614621	-0.672016	0.314479	-0.570982	-0.351392
41098	-12.293645	-10.988443	12.836194	-0.674816	0.313256	-0.576833	-0.337281
41099	-12.688464	-11.602514	11.425322	-0.682007	0.303648	-0.584826	-0.317242
41100	-14.778179	-11.674321	9.644701	-0.693866	0.285958	-0.592520	-0.292741
41101	-16.510076	-11.532676	8.061423	-0.710131	0.263763	-0.596262	-0.265734
41102	-16.451538	-11.601979	6.447866	-0.729629	0.239567	-0.594723	-0.237810
41103	-16.539953	-12.121733	5.074869	-0.751211	0.213835	-0.588394	-0.209163
41104	-17.779263	-11.745201	4.060698	-0.774732	0.186387	-0.576925	-0.179468
41105	-19.395393	-11.022942	3.352349	-0.800133	0.158245	-0.559118	-0.148773
41106	-19.262436	-9.546371	3.012231	-0.826670	0.131466	-0.534194	-0.118196
41107	-17.834776	-8.630423	1.419288	-0.854091	0.104595	-0.502025	-0.086950
41108	-16.634888	-7.200246	-0.087471	-0.880321	0.075501	-0.465048	-0.055370
41109	-14.476212	-7.283248	-1.316315	-0.904482	0.042102	-0.423610	-0.026359
41110	-12.988344	-6.657700	-1.757864	-0.924780	0.003328	-0.380474	-0.003347
41111	-13.816821	-5.976925	-2.068883	-0.940502	-0.037701	-0.337456	0.012529
41112	-18.140910	-6.092716	-2.754701	-0.952386	-0.080109	-0.293189	0.024163
41113	-21.288494	-6.295686	-5.460492	-0.960748	-0.125264	-0.244440	0.039011
41114	-19.495383	-4.560724	-6.355775	-0.964637	-0.168098	-0.193556	0.061278
41115	-16.293695	-4.186785	-5.154627	-0.964121	-0.204320	-0.144640	0.088337
41116	-12.823283	-1.572819	-0.489695	-0.962406	-0.225986	-0.095930	0.116205
41117	-4.915848	-2.046208	0.393119	-0.962696	-0.222558	-0.050805	0.145273
41118	3.192399	1.202864	-16.561324	-0.959755	-0.226114	-0.025885	0.164538
41119	-9.304845	21.761769	-21.742563	-0.950429	-0.257970	-0.017929	0.172669
41120	-7.849454	40.158291	3.170481	-0.946065	-0.267582	-0.006484	0.182532
41121	-2.169704	21.082441	-5.426761	-0.956539	-0.226611	-0.012926	0.183065
41122	1.520914	12.314089	-6.409009	-0.960647	-0.214500	-0.022524	0.175042
41123	1.162819	8.324250	-1.572526	-0.959888	-0.227751	-0.044844	0.157271
41124	-4.347382	16.288807	2.698573	-0.954378	-0.255258	-0.072369	0.136995
41125	-5.458171	16.026483	5.497358	-0.951055	-0.267107	-0.102924	0.116424
41126	-5.941901	13.504596	6.524677	-0.949902	-0.265494	-0.135542	0.093950
41127	-6.810256	7.152967	2.604097	-0.950981	-0.245260	-0.172723	0.075163
41128	-10.880217	2.238744	-1.850803	-0.951818	-0.206691	-0.218998	0.057981
41129	-12.810143	-2.734705	-3.451522	-0.947334	-0.170507	-0.267479	0.044058
41130	-10.333912	-2.855731	-0.317956	-0.937894	-0.139831	-0.315830	0.032460
41131	-8.077240	-5.574105	-0.178374	-0.923654	-0.110060	-0.366429	0.021919
41132	-8.402354	-5.568725	1.679655	-0.903734	-0.087641	-0.418784	0.014309
41133	-12.637451	-3.179388	6.437190	-0.880579	-0.066702	-0.469074	0.010053
41134	-11.868807	-2.038713	10.047114	-0.856228	-0.047958	-0.514299	0.008400
41135	-10.105440	-3.025316	13.622216	-0.830401	-0.028007	-0.556435	0.005528
41136	-12.444946	-2.330835	14.786350	-0.808119	-0.012467	-0.588870	0.004441
41137	-17.450651	-0.944285	15.488212	-0.791963	-0.001254	-0.610557	0.003684
41138	-18.926651	3.422247	17.063749	-0.782738	0.011717	-0.622240	0.001257
41139	-18.677203	2.258423	14.912225	-0.781126	0.030443	-0.623592	-0.006892
41140	-15.846583	-2.932973	10.521335	-0.786729	0.045303	-0.615470	-0.014189
41141	-13.510650	-3.643162	9.334946	-0.797094	0.052716	-0.601259	-0.018716
41142	-10.971168	-2.543878	8.761442	-0.808868	0.057798	-0.584608	-0.024998
41143	-10.275041	-3.573768	7.541631	-0.819934	0.062953	-0.567998	-0.033518
41144	-9.792842	-4.015693	6.377553	-0.829818	0.066623	-0.552462	-0.041826
41145	-9.639937	-4.941113	4.937834	-0.838135	0.067770	-0.539079	-0.048269
41146	-8.350485	-4.208733	4.577923	-0.845519	0.064912	-0.527432	-0.051954
41147	-6.532901	-3.319271	4.549371	-0.851840	0.059848	-0.517520	-0.054402
41148	-5.280829	-3.437033	4.157279	-0.857677	0.054469	-0.508199	-0.056185
41149	-4.820564	-4.094355	3.584554	-0.863140	0.049813	-0.499247	-0.057096
41150	-4.533820	-4.510908	2.743740	-0.868586	0.045627	-0.490254	-0.055914
41151	-3.849855	-4.445625	2.921453	-0.873346	0.041416	-0.482499	-0.052410
41152	-2.419093	-4.348300	3.194316	-0.877242	0.037177	-0.476260	-0.047342
41153	-1.798429	-4.821267	3.426864	-0.879997	0.033808	-0.471943	-0.041608
41154	-1.149239	-4.720960	2.310112	-0.882407	0.029924	-0.468259	-0.034578
41155	-0.691662	-3.856596	0.778158	-0.884610	0.023291	-0.465023	-0.026009
41156	-0.174078	-2.448974	0.006686	-0.886971	0.014699	-0.461308	-0.016140
41157	0.344170	-1.419797	-0.683803	-0.889214	0.005376	-0.457426	-0.005537
41158	0.376293	-0.535701	-1.568211	-0.891241	-0.001554	-0.453506	0.004444
41159	0.360581	-0.170869	-2.389380	-0.892723	-0.005258	-0.450346	0.014404
41160	0.164096	0.117973	-3.669146	-0.893304	-0.007068	-0.448746	0.024186
41161	-0.584596	0.706371	-4.145433	-0.892517	-0.008386	-0.449712	0.033198
41162	-0.486126	1.836775	-4.032896	-0.890659	-0.009439	-0.452645	0.041825
41163	-0.501346	2.924369	-3.087185	-0.887275	-0.009367	-0.458450	0.049793
41164	-1.249813	2.725484	-2.027661	-0.883189	-0.007279	-0.465667	0.055483
41165	-2.441567	2.443899	-0.299825	-0.878580	-0.004767	-0.473962	0.058606
41166	-4.809470	2.050598	1.689658	-0.873822	-0.001166	-0.482618	0.059275
41167	-5.317762	1.288211	3.380488	-0.869800	0.003719	-0.489944	0.058207
41168	-3.974839	0.345735	4.709788	-0.866396	0.007781	-0.496197	0.055546
41169	-5.362310	-0.942682	5.342457	-0.863787	0.010035	-0.500976	0.052859
41170	-9.124282	-2.174342	5.200773	-0.861621	0.010539	-0.504846	0.051280
41171	-13.669987	-2.376592	6.043452	-0.860373	0.009277	-0.507041	0.050806
41172	-13.922007	-0.679022	7.534272	-0.860139	0.007480	-0.507470	0.050781
41173	-11.724352	0.418016	8.115564	-0.860657	0.006067	-0.506681	0.050066
41174	-12.481441	-0.532596	8.249364	-0.861548	0.004754	-0.505336	0.048448
41175	-15.808031	-0.913877	9.447630	-0.863084	0.001281	-0.502843	0.047251
41176	-17.861130	-1.105668	10.583535	-0.865622	-0.003017	-0.498574	0.045962
41177	-18.769099	-1.418532	11.237246	-0.869291	-0.007643	-0.492237	0.044481
41178	-18.562039	-0.813861	11.532634	-0.874238	-0.013276	-0.483350	0.043648
41179	-18.943383	0.389479	11.966239	-0.879509	-0.019692	-0.473472	0.043589
41180	-20.247546	0.967733	12.188768	-0.884705	-0.024869	-0.463401	0.044031
41181	-21.949640	0.769983	13.272696	-0.889195	-0.028596	-0.454406	0.045056
41182	-22.659742	-0.059346	14.118977	-0.892161	-0.030331	-0.448281	0.046611
41183	-22.261528	-0.580716	13.577056	-0.892983	-0.032050	-0.446183	0.049744
41184	-21.704616	0.483745	13.709687	-0.892378	-0.033600	-0.446755	0.054240
41185	-20.482550	1.520196	13.346501	-0.889992	-0.033222	-0.451073	0.057823
41186	-20.229880	1.045062	13.143234	-0.885815	-0.032123	-0.459197	0.058638
41187	-19.912211	0.582721	12.725008	-0.880867	-0.031515	-0.468800	0.057503
41188	-19.474862	0.571738	11.009986	-0.876849	-0.030395	-0.476554	0.055755
41189	-18.136145	0.924932	9.451213	-0.874192	-0.027774	-0.481712	0.054498
41190	-16.276594	0.914892	8.229687	-0.872636	-0.024416	-0.484783	0.053818
41191	-14.662680	0.811148	7.349059	-0.871713	-0.020734	-0.486699	0.053021
41192	-13.366251	0.074588	6.617216	-0.870805	-0.017039	-0.488785	0.049983
41193	-11.536620	-0.251978	5.985104	-0.869012	-0.016447	-0.492472	0.044935
41194	-11.041246	0.070691	5.475920	-0.865710	-0.018242	-0.498737	0.038418
41195	-10.528765	0.051892	4.783177	-0.862009	-0.020101	-0.505496	0.031792
41196	-9.764818	-0.165921	3.463389	-0.858073	-0.021855	-0.512411	0.025855
41197	-9.937330	0.204018	2.799844	-0.854407	-0.024688	-0.518569	0.021587
41198	-9.217726	1.407945	3.229966	-0.850844	-0.027446	-0.524375	0.018477
41199	-9.866478	1.441142	3.406431	-0.846615	-0.026832	-0.531351	0.013736
41200	-9.376250	0.534550	3.115936	-0.842952	-0.023988	-0.537390	0.008300
41201	-7.278954	-0.760446	2.467481	-0.838426	-0.021516	-0.544580	0.003365
41202	-6.001945	-1.181349	2.255835	-0.832587	-0.021924	-0.553460	-0.000346
41203	-5.210018	-0.986415	2.114340	-0.825884	-0.024914	-0.563281	-0.003099
41204	-4.720227	-0.324783	1.856212	-0.818897	-0.029644	-0.573153	-0.004883
41205	-4.214915	0.525547	1.877313	-0.811673	-0.034387	-0.583065	-0.006295
41206	-3.907147	1.182372	1.909743	-0.804692	-0.038314	-0.592413	-0.007048
41207	-3.407433	1.346429	1.987080	-0.799098	-0.039841	-0.599823	-0.008196
41208	-2.484257	0.245466	1.951015	-0.795269	-0.038944	-0.604920	-0.010174
41209	-2.598639	-1.007700	1.249060	-0.793766	-0.037587	-0.606956	-0.011315
41210	-1.912009	-0.771753	0.674015	-0.794971	-0.037327	-0.605414	-0.010094
41211	-1.077961	-0.178338	0.746568	-0.796902	-0.038082	-0.602863	-0.007214
41212	-1.073307	-0.741464	1.100721	-0.799937	-0.038239	-0.598852	-0.003973
41213	-1.163765	-1.604573	1.529202	-0.803842	-0.037829	-0.593638	-0.000591
41214	-1.906371	-1.664262	1.623138	-0.808047	-0.036967	-0.587947	0.003264
41215	-3.456851	-1.424489	2.426477	-0.812121	-0.035757	-0.582351	0.006914
41216	-4.513789	-1.802435	3.506175	-0.816883	-0.034016	-0.575719	0.009603
41217	-4.146576	-1.240633	5.591380	-0.823206	-0.034220	-0.566585	0.011947
41218	-4.739296	0.262580	8.309803	-0.830267	-0.037254	-0.555967	0.012986
41219	-7.335214	0.645868	10.193620	-0.837808	-0.040853	-0.544324	0.010936
41220	-10.223464	0.492308	10.709060	-0.845454	-0.044600	-0.532135	0.007104
41221	-11.817066	0.317851	11.524084	-0.852760	-0.050789	-0.519821	0.002641
41222	-12.374443	1.359228	12.549928	-0.860321	-0.060831	-0.506102	-0.002739
41223	-11.557941	1.530919	12.895270	-0.869581	-0.074505	-0.488043	-0.009607
41224	-10.237412	2.290149	13.389083	-0.880481	-0.091720	-0.464860	-0.015682
41225	-9.830426	2.908415	13.323228	-0.893554	-0.108215	-0.435249	-0.020239
41226	-8.298613	3.474782	11.095896	-0.908559	-0.118371	-0.399898	-0.024297
41227	-7.169716	0.746114	10.166696	-0.923122	-0.124917	-0.362632	-0.027182
41228	-6.184758	-1.786683	9.728032	-0.936462	-0.132268	-0.323769	-0.026784
41229	-4.687324	-2.703244	8.021664	-0.947697	-0.144702	-0.283718	-0.020876
41230	-4.280359	-2.124821	5.760412	-0.956185	-0.162537	-0.243336	-0.008907
41231	-5.888559	-0.905204	3.021973	-0.961595	-0.184435	-0.202969	0.011054
41232	-7.504843	1.126925	0.313644	-0.963162	-0.210358	-0.163046	0.038530
41233	-9.706180	3.819341	-3.793418	-0.961005	-0.235178	-0.126610	0.071622
41234	-11.974817	8.462846	-8.606876	-0.957101	-0.252094	-0.096425	0.105401
41235	-4.816009	28.281271	-12.787475	-0.958053	-0.240832	-0.070287	0.138543
41236	13.814388	27.074673	-30.977393	-0.966046	-0.193716	-0.082541	0.149719
41237	-0.819793	20.058678	-9.572805	-0.961471	-0.211368	-0.101241	0.143693
41238	-6.695370	16.131519	-3.108753	-0.965485	-0.180401	-0.133851	0.131823
41239	-10.010927	2.117216	-9.678733	-0.967524	-0.130620	-0.181906	0.117238
41240	-13.621569	-3.873616	-10.276481	-0.964331	-0.082453	-0.232586	0.095766
41241	-14.348649	-9.866461	-6.566689	-0.954351	-0.043756	-0.287444	0.068373
41242	-19.214723	-11.750065	-2.710395	-0.934896	-0.023037	-0.351726	0.041560
41243	-21.843067	-0.516109	3.120345	-0.908813	-0.008622	-0.416661	0.019452
41244	-13.474417	6.783126	4.227249	-0.877741	0.035722	-0.477517	-0.016488
41245	-15.223912	-4.658665	1.405818	-0.841043	0.092195	-0.527950	-0.073593
41246	-15.477263	-14.091484	-2.502545	-0.805611	0.138783	-0.560418	-0.132898
41247	-18.167233	-21.229715	-3.630754	-0.772285	0.166446	-0.586681	-0.177980
41248	-19.953314	-19.236272	3.176225	-0.743807	0.184068	-0.609373	-0.203802
41249	-20.099458	-14.576731	10.027937	-0.723809	0.202175	-0.620802	-0.223228
41250	-16.588157	-13.966466	7.834958	-0.710518	0.223367	-0.622890	-0.239332
41251	-14.242629	-15.087444	6.705639	-0.703673	0.238184	-0.622268	-0.246770
41252	-12.895247	-11.679456	6.547880	-0.703000	0.245281	-0.620734	-0.245597
41253	-12.099196	-7.044839	7.282809	-0.705653	0.246199	-0.620097	-0.238580
41254	-11.271758	-4.959205	7.670748	-0.709841	0.245356	-0.619145	-0.229316
41255	-10.328041	-3.807029	6.764793	-0.714165	0.244292	-0.618210	-0.219329
41256	-11.313078	-5.833839	4.445857	-0.717465	0.241628	-0.619010	-0.209016
41257	-12.990938	-7.728284	3.638033	-0.721056	0.233423	-0.622558	-0.194970
41258	-13.773924	-7.160628	3.265152	-0.725697	0.220944	-0.627215	-0.176491
41259	-12.964386	-5.418820	3.429567	-0.730369	0.206925	-0.631973	-0.156052
41260	-12.387664	-6.385335	2.584514	-0.734931	0.192801	-0.636173	-0.134122
41261	-11.795424	-7.928798	1.061384	-0.740109	0.176747	-0.639726	-0.108402
41262	-11.558553	-8.213413	0.452623	-0.745847	0.158171	-0.642261	-0.078702
41263	-11.557245	-8.071204	0.983016	-0.752447	0.137971	-0.642323	-0.047000
41264	-11.842019	-9.976898	0.591783	-0.759807	0.120258	-0.638750	-0.015165
41265	-10.758278	-10.440439	-0.665246	-0.767962	0.100264	-0.632293	0.019702
41266	-9.507721	-9.556465	-0.927409	-0.775626	0.077131	-0.623895	0.056653
41267	-8.297608	-9.561032	-1.197166	-0.781806	0.051412	-0.614379	0.093137
41268	-7.994768	-10.581659	-2.510791	-0.786023	0.024920	-0.604335	0.127776
41269	-8.569801	-12.781693	-4.574778	-0.788604	-0.002480	-0.593200	0.161901
41270	-8.852041	-14.192817	-6.490155	-0.789364	-0.031395	-0.580719	0.196684
41271	-9.825767	-14.665138	-7.900290	-0.787844	-0.061311	-0.567056	0.232358
41272	-10.453663	-13.804185	-9.378606	-0.784160	-0.089988	-0.552604	0.267627
41273	-10.892788	-12.162775	-10.890710	-0.778403	-0.119110	-0.536955	0.302623
41274	-11.150695	-9.791919	-10.855791	-0.770681	-0.147021	-0.520316	0.337205
41275	-10.769373	-8.327893	-10.358644	-0.760900	-0.171827	-0.503493	0.371486
41276	-8.229719	-5.866965	-10.162347	-0.749665	-0.194000	-0.486035	0.405138
41277	-5.974230	-2.627238	-8.837583	-0.736957	-0.214300	-0.469066	0.436975
41278	-4.988771	-0.858049	-7.813646	-0.722872	-0.232153	-0.454686	0.465641
41279	-5.399985	-0.293561	-7.056978	-0.706607	-0.250609	-0.442984	0.491597
41280	-6.074805	0.665104	-6.220281	-0.688308	-0.270482	-0.433077	0.515283
41281	-7.767534	1.685119	-5.187331	-0.669155	-0.289982	-0.424421	0.536664
41282	-8.540944	2.508081	-4.556151	-0.649908	-0.308503	-0.415794	0.556382
41283	-11.537160	4.222435	-4.865932	-0.631058	-0.326378	-0.406062	0.574766
41284	-14.728952	7.739690	-3.789561	-0.613188	-0.341810	-0.395058	0.592534
41285	-17.252919	10.173045	-1.692431	-0.595481	-0.352789	-0.388197	0.608478
41286	-16.248563	8.403246	0.015114	-0.577997	-0.360928	-0.385959	0.621842
41287	-15.377180	7.172912	0.536305	-0.560411	-0.371507	-0.386439	0.631338
41288	-16.167400	8.197656	2.178063	-0.545147	-0.383535	-0.386778	0.637274
41289	-17.412903	8.802309	4.102432	-0.533862	-0.393856	-0.387008	0.640386
41290	-17.743661	7.276595	4.938623	-0.526124	-0.400875	-0.388871	0.641305
41291	-17.148705	4.989501	4.438872	-0.521933	-0.405154	-0.390214	0.641225
41292	-16.207834	3.971417	4.230538	-0.520223	-0.408165	-0.390168	0.640733
41293	-15.017475	4.332803	5.001317	-0.520722	-0.409757	-0.389850	0.639504
41294	-13.122963	4.156414	5.226048	-0.524211	-0.408146	-0.390551	0.637252
41295	-10.888591	2.785165	4.518146	-0.530050	-0.404389	-0.391540	0.634203
41296	-9.022496	1.375797	3.459037	-0.536948	-0.400427	-0.391141	0.631153
41297	-8.145446	1.222229	2.508900	-0.543807	-0.397305	-0.389073	0.628526
41298	-7.762868	2.049168	1.766916	-0.550829	-0.393602	-0.386375	0.626402
41299	-7.350083	2.994411	0.615930	-0.558479	-0.388178	-0.385528	0.623528
41300	-7.866411	2.926456	-0.407672	-0.566437	-0.381600	-0.387892	0.618927
41301	-8.349425	2.631400	-1.131323	-0.573579	-0.375347	-0.392687	0.613122
41302	-9.196685	3.019778	-1.514770	-0.579758	-0.370128	-0.400156	0.605608
41303	-11.227416	3.544174	-2.315763	-0.585714	-0.365487	-0.410498	0.595692
41304	-14.019278	4.191449	-3.160908	-0.591871	-0.360128	-0.423298	0.583795
41305	-15.377035	4.999571	-3.412653	-0.597985	-0.352818	-0.439091	0.570204
41306	-15.314822	5.974701	-3.073718	-0.604664	-0.342579	-0.458426	0.553956
41307	-14.292963	5.196629	-3.043437	-0.612659	-0.328167	-0.481066	0.534351
41308	-12.904910	2.168462	-4.050959	-0.622082	-0.311724	-0.503707	0.511978
41309	-13.320378	0.129910	-4.376234	-0.633141	-0.295382	-0.523580	0.487592
41310	-12.553120	0.329862	-4.029380	-0.647119	-0.277169	-0.540284	0.460986
41311	-11.365443	-0.014193	-4.885531	-0.665037	-0.254040	-0.555132	0.430137
41312	-8.609173	-1.725261	-6.811921	-0.686988	-0.225067	-0.566797	0.395137
41313	-5.985607	-5.049676	-8.075825	-0.711059	-0.192234	-0.574614	0.356736
41314	-3.701152	-8.167755	-8.552688	-0.734169	-0.158775	-0.578899	0.317272
41315	-2.540458	-8.413286	-7.142223	-0.755091	-0.127307	-0.580650	0.276544
41316	-2.491174	-9.442956	-6.374078	-0.774076	-0.095538	-0.581094	0.232399
41317	-3.109730	-11.074388	-6.162449	-0.789940	-0.063773	-0.580369	0.187346
41318	-3.008400	-11.423204	-4.138675	-0.801402	-0.034386	-0.579329	0.144743
41319	-2.711604	-11.529067	-1.509493	-0.809122	-0.005823	-0.578162	0.104962
41320	-1.473287	-11.471735	1.646064	-0.812645	0.022287	-0.578292	0.068483
41321	-2.441267	-12.855477	3.348822	-0.812472	0.046931	-0.579981	0.036184
41322	-6.565088	-13.565519	4.733416	-0.809844	0.066461	-0.582775	0.010387
41323	-10.473170	-13.534297	5.470738	-0.806112	0.082783	-0.585900	-0.007126
41324	-12.110538	-12.355330	6.383392	-0.802659	0.095122	-0.588582	-0.016131
41325	-13.259724	-9.965968	7.610949	-0.799785	0.104843	-0.590756	-0.018961
41326	-14.082919	-7.671641	7.889797	-0.797963	0.112267	-0.591903	-0.017363
41327	-14.511497	-6.637757	7.795521	-0.797232	0.116642	-0.592155	-0.012997
41328	-14.836361	-5.756607	7.580786	-0.797239	0.117630	-0.592053	-0.006800
41329	-14.872148	-4.730420	6.959380	-0.797495	0.116097	-0.592049	0.000728
41330	-14.796707	-4.461445	6.385435	-0.798050	0.112979	-0.591836	0.009055
41331	-14.162573	-4.137411	5.790871	-0.798818	0.108797	-0.591377	0.018043
41332	-13.019884	-3.660735	5.230179	-0.799502	0.104020	-0.590951	0.027443
41333	-11.844275	-2.935802	4.718124	-0.799820	0.098965	-0.590897	0.036526
41334	-11.173468	-2.291815	3.999766	-0.799331	0.094405	-0.591797	0.043979
41335	-11.231262	-2.613890	3.232371	-0.798115	0.090583	-0.593570	0.049805
41336	-10.835763	-3.351224	2.181989	-0.796253	0.086706	-0.596142	0.055473
41337	-10.133252	-3.060479	1.512888	-0.793765	0.081480	-0.599623	0.061242
41338	-9.619554	-1.935249	1.366277	-0.790627	0.075354	-0.604040	0.066076
41339	-8.975147	-1.396974	1.352164	-0.786614	0.069265	-0.609728	0.068363
41340	-8.691388	-1.751566	0.752787	-0.781973	0.064295	-0.616228	0.068167
41341	-7.993406	-2.967729	-0.043271	-0.777261	0.058674	-0.622819	0.067228
41342	-7.254036	-3.992495	-0.659482	-0.772991	0.050852	-0.628854	0.066645
41343	-7.075662	-3.703038	-0.774118	-0.769318	0.040308	-0.634036	0.067257
41344	-7.159355	-2.971977	-1.029244	-0.766627	0.027933	-0.637830	0.068385
41345	-7.838301	-1.995219	-1.185493	-0.764885	0.014526	-0.640283	0.069116
41346	-8.944043	-0.899589	-0.739441	-0.764485	0.001971	-0.640908	0.069246
41347	-8.744715	-1.299853	-0.862776	-0.765049	-0.008149	-0.640202	0.069106
41348	-7.993646	-1.494264	-1.126866	-0.766881	-0.017097	-0.637911	0.068344
41349	-7.539591	-1.688941	-1.232115	-0.769721	-0.026364	-0.634331	0.066765
41350	-8.702901	-0.782008	-1.579273	-0.774215	-0.037728	-0.628450	0.064948
41351	-10.533551	0.582842	-1.345482	-0.781095	-0.049092	-0.619218	0.063636
41352	-11.061599	1.431317	-1.070549	-0.788479	-0.057007	-0.609219	0.062478
41353	-10.687367	1.382307	-1.076074	-0.796813	-0.060557	-0.598127	0.060547
41354	-9.881173	1.051771	-1.052300	-0.806086	-0.061120	-0.585798	0.057716
41355	-9.239462	2.163216	-1.227586	-0.816277	-0.060573	-0.571886	0.054494
41356	-8.733061	3.978768	-1.077310	-0.826081	-0.059227	-0.558238	0.049535
41357	-9.870271	4.212639	-1.116182	-0.834166	-0.054626	-0.547253	0.041189
41358	-10.070433	2.804508	-1.021472	-0.841133	-0.046781	-0.537926	0.030685
41359	-8.573867	2.126190	-0.138146	-0.846846	-0.038944	-0.530068	0.019057
41360	-7.933222	3.520766	2.357198	-0.851445	-0.032761	-0.523376	0.006717
41361	-7.037479	5.082991	3.672752	-0.854990	-0.024681	-0.517974	-0.009307
41362	-7.126879	5.913801	3.855637	-0.856568	-0.013191	-0.514971	-0.030365
41363	-6.839688	5.108543	3.176389	-0.856484	-0.000309	-0.513312	-0.054271
41364	-7.120988	4.472719	2.888175	-0.854715	0.011919	-0.512888	-0.079156
41365	-8.999867	3.172228	3.914418	-0.852847	0.025088	-0.510886	-0.104971
41366	-8.250787	2.013533	4.624291	-0.850914	0.040501	-0.507182	-0.130658
41367	-7.861912	0.324142	4.206187	-0.846860	0.057525	-0.505214	-0.155812
41368	-7.716159	-0.861838	4.128288	-0.841146	0.072601	-0.504963	-0.179485
41369	-7.791950	-0.818755	5.136800	-0.834364	0.085963	-0.505701	-0.201776
41370	-7.189162	0.171529	6.166361	-0.826975	0.099435	-0.505952	-0.224137
41371	-6.460481	0.924688	7.253532	-0.819276	0.114018	-0.504251	-0.248029
41372	-6.039201	0.231799	7.226919	-0.810722	0.129219	-0.501231	-0.273494
41373	-6.638837	-0.091482	6.598419	-0.801651	0.143703	-0.497303	-0.298990
41374	-6.998503	-0.267114	5.670652	-0.792516	0.158016	-0.492587	-0.322966
41375	-7.428800	-0.257467	4.808454	-0.783175	0.172609	-0.487305	-0.345510
41376	-9.087622	-1.420117	4.353199	-0.773618	0.186051	-0.482320	-0.366425
41377	-9.095703	-1.047165	5.115727	-0.764399	0.196611	-0.478018	-0.385406
41378	-8.164004	-0.621101	5.358924	-0.756126	0.205460	-0.473482	-0.402338
41379	-6.867774	-0.519552	5.356006	-0.748776	0.213402	-0.469096	-0.416824
41380	-6.458692	-0.603763	5.137054	-0.742010	0.221277	-0.464839	-0.429398
41381	-6.689134	-1.507199	4.632749	-0.735142	0.230109	-0.460362	-0.441228
41382	-6.898692	-1.795497	4.994148	-0.728682	0.237419	-0.457535	-0.450906
41383	-7.243019	-1.355977	5.828949	-0.723644	0.242949	-0.455109	-0.458466
41384	-7.003310	-0.417498	5.760494	-0.720095	0.247614	-0.451416	-0.465160
41385	-7.026227	-0.355599	4.822563	-0.717501	0.252029	-0.446621	-0.471385
41386	-5.729128	0.398909	3.801331	-0.714997	0.256518	-0.442251	-0.476856
41387	-5.568165	0.754147	3.504407	-0.710930	0.262999	-0.439498	-0.481926
41388	-6.552553	0.153567	3.908003	-0.706131	0.270782	-0.436934	-0.486975
41389	-6.975272	-0.885640	3.490110	-0.701302	0.278798	-0.433735	-0.492262
41390	-7.397557	-1.668378	2.889685	-0.695727	0.286891	-0.431709	-0.497278
41391	-8.051475	-1.935006	3.386980	-0.689458	0.293823	-0.431383	-0.502220
41392	-8.130248	-1.738722	3.953963	-0.682942	0.299188	-0.432389	-0.507067
41393	-8.321909	-1.069241	4.260690	-0.676874	0.302818	-0.434082	-0.511581
41394	-8.595557	-0.644285	4.226659	-0.671421	0.305757	-0.435723	-0.515608
41395	-9.285954	-0.673880	4.376136	-0.667264	0.307411	-0.437199	-0.518763
41396	-10.169722	-1.213191	4.222861	-0.663971	0.308394	-0.438612	-0.521205
41397	-10.940958	-1.267378	3.902737	-0.661916	0.308289	-0.440143	-0.522589
41398	-10.630990	-0.601835	4.165668	-0.661392	0.307405	-0.441865	-0.522320
41399	-10.465250	-0.125838	4.557320	-0.662236	0.306682	-0.443175	-0.520563
41400	-10.708838	0.193489	4.476876	-0.664124	0.306827	-0.443480	-0.517805
41401	-11.407381	0.359386	4.437738	-0.666989	0.307235	-0.442722	-0.514519
41402	-11.433386	0.400316	4.735845	-0.669832	0.307922	-0.441104	-0.511798
41403	-11.912325	0.485401	4.756163	-0.671538	0.308282	-0.440243	-0.510084
41404	-12.158241	0.945098	4.967831	-0.672579	0.307410	-0.440494	-0.509020
41405	-13.120409	1.167951	5.267296	-0.673236	0.306727	-0.440678	-0.508404
41406	-14.146049	1.289204	5.358092	-0.673794	0.307203	-0.439676	-0.508245
41407	-13.935827	0.357082	5.383994	-0.673616	0.308884	-0.438350	-0.508607
41408	-13.730560	-0.579833	5.644442	-0.672818	0.310283	-0.438099	-0.509028
41409	-14.137061	-0.017068	6.257022	-0.671866	0.311381	-0.438788	-0.509021
41410	-15.425432	0.841052	6.745597	-0.670945	0.312563	-0.439728	-0.508701
41411	-15.974735	0.464435	7.031478	-0.670644	0.313390	-0.440370	-0.508033
41412	-15.783242	0.583149	7.415300	-0.671006	0.313719	-0.440682	-0.507081
41413	-15.507787	0.238543	7.540086	-0.671768	0.313847	-0.440244	-0.506373
41414	-14.165618	-0.392401	7.614164	-0.672790	0.313516	-0.439668	-0.505721
41415	-13.746335	-0.617520	7.469949	-0.673536	0.313330	-0.439605	-0.504897
41416	-13.687331	-0.548164	7.156239	-0.674899	0.312752	-0.439475	-0.503546
41417	-13.294901	-0.187716	6.857083	-0.677133	0.312071	-0.438397	-0.501908
41418	-13.289011	0.281148	6.517081	-0.680126	0.312089	-0.436197	-0.499761
41419	-13.653247	0.132772	5.897835	-0.683407	0.313564	-0.432366	-0.497687
41420	-13.313115	-0.625732	5.588874	-0.687033	0.315437	-0.427815	-0.495439
41421	-12.423587	-0.892081	5.424786	-0.690408	0.317243	-0.424036	-0.492836
41422	-11.803083	-0.802534	5.520744	-0.693038	0.318630	-0.421877	-0.490096
41423	-11.731161	-0.296783	5.993819	-0.695000	0.319194	-0.421462	-0.487298
41424	-11.385188	0.513572	6.020000	-0.696398	0.319036	-0.421872	-0.485046
41425	-10.181201	0.756695	5.455351	-0.697473	0.317834	-0.422644	-0.483617
41426	-8.992236	-0.030701	5.100361	-0.698307	0.315975	-0.423134	-0.483202
41427	-7.752472	-0.862947	4.913701	-0.699353	0.313332	-0.422914	-0.483603
41428	-6.998641	-1.536228	4.237139	-0.700238	0.310368	-0.422999	-0.484159
41429	-6.823040	-1.542793	3.274000	-0.700833	0.307160	-0.423556	-0.484857
41430	-5.838404	-1.214501	2.685986	-0.701830	0.303089	-0.424377	-0.485258
41431	-4.833099	-1.396437	2.379814	-0.703073	0.298671	-0.425245	-0.485439
41432	-4.051883	-1.221098	1.996776	-0.704571	0.294544	-0.425367	-0.485681
41433	-3.204061	-1.019536	1.432187	-0.706552	0.290327	-0.425131	-0.485551
41434	-2.723823	-0.598621	0.821251	-0.709090	0.285922	-0.424573	-0.484952
41435	-2.625389	-0.430690	0.353564	-0.712167	0.281855	-0.423608	-0.483665
41436	-3.205269	-0.410480	-0.068624	-0.715679	0.278166	-0.422389	-0.481678
41437	-3.553735	-0.397158	-0.425535	-0.719600	0.275151	-0.420379	-0.479322
41438	-3.754968	-0.312947	-0.396722	-0.723668	0.272973	-0.418249	-0.476297
41439	-3.995444	-0.220765	-0.142622	-0.727284	0.271776	-0.416933	-0.472613
41440	-4.317809	-0.538438	0.386304	-0.730200	0.271119	-0.417082	-0.468342
41441	-4.963700	-0.935766	1.020951	-0.732611	0.270350	-0.418965	-0.463315
41442	-5.690687	-0.762949	1.345881	-0.734954	0.268995	-0.421918	-0.457678
41443	-6.149885	0.153747	1.873025	-0.737295	0.266989	-0.425828	-0.451424
41444	-7.165795	1.747907	3.198013	-0.740112	0.264767	-0.429357	-0.444730
41445	-7.621220	2.082694	4.307417	-0.742428	0.264111	-0.432207	-0.438455
41446	-8.442022	2.009995	4.302818	-0.743092	0.265168	-0.436345	-0.432555
41447	-9.534120	1.933611	4.216477	-0.742244	0.267916	-0.441342	-0.427214
41448	-9.063592	1.143176	4.541336	-0.740261	0.271330	-0.446919	-0.422678
41449	-9.262378	0.484597	4.686523	-0.737609	0.274656	-0.453340	-0.418306
41450	-9.191026	1.597896	4.832295	-0.735568	0.276748	-0.459747	-0.413501
41451	-8.242257	3.734844	4.933586	-0.733481	0.278276	-0.466169	-0.408966
41452	-8.398353	4.140247	4.767640	-0.729742	0.281898	-0.471946	-0.406543
41453	-8.977974	2.567049	3.916554	-0.725188	0.286574	-0.477226	-0.405257
41454	-8.740019	1.530638	3.353646	-0.720412	0.291166	-0.482509	-0.404244
41455	-8.052910	0.751488	2.926933	-0.714722	0.297015	-0.488868	-0.402445
41456	-8.096851	0.420969	2.692101	-0.708259	0.303968	-0.496186	-0.399714
41457	-8.144392	0.767295	3.169070	-0.701680	0.311327	-0.503720	-0.396216
41458	-8.383895	1.140495	3.444209	-0.694460	0.320509	-0.510281	-0.393207
41459	-8.180781	0.187537	3.304219	-0.686937	0.332233	-0.514336	-0.391404
41460	-7.676914	-0.782545	3.109832	-0.679919	0.343878	-0.518067	-0.388671
41461	-7.902945	-1.010232	3.628482	-0.675153	0.352828	-0.521986	-0.383683
41462	-7.784236	-0.980549	4.026134	-0.672203	0.360880	-0.524599	-0.377763
41463	-6.996745	-1.698568	2.894867	-0.670304	0.369046	-0.526301	-0.370816
41464	-7.100394	-1.843968	2.016614	-0.669559	0.377000	-0.527447	-0.362439
41465	-7.112574	-2.002048	2.639731	-0.670258	0.385601	-0.527041	-0.352553
41466	-7.425997	-1.860373	3.227818	-0.672795	0.394567	-0.524325	-0.341682
41467	-8.355740	-2.362391	3.776883	-0.676526	0.404512	-0.519188	-0.330344
41468	-9.129912	-3.466256	3.066090	-0.682206	0.414202	-0.511738	-0.318052
41469	-8.831167	-4.201404	2.432856	-0.689419	0.423442	-0.502323	-0.305075
41470	-8.151525	-4.145947	2.734834	-0.696767	0.433125	-0.491307	-0.292466
41471	-8.443160	-4.660733	2.866399	-0.703055	0.444516	-0.478510	-0.281333
41472	-10.332392	-5.490807	2.949032	-0.708417	0.458248	-0.463132	-0.271406
41473	-11.732231	-5.031436	2.473446	-0.715296	0.471859	-0.444743	-0.260583
41474	-11.385551	-3.499798	1.889080	-0.723589	0.484931	-0.423221	-0.249288
41475	-10.787629	-3.588343	1.769104	-0.731672	0.497859	-0.399801	-0.238644
41476	-9.593929	-4.690289	0.788595	-0.738700	0.510207	-0.375723	-0.229877
41477	-8.604208	-5.452609	0.188706	-0.743993	0.521330	-0.353743	-0.222612
41478	-8.460144	-5.268329	-0.216978	-0.747543	0.531762	-0.333699	-0.216919
41479	-8.066398	-5.039986	-0.274901	-0.748076	0.544246	-0.315161	-0.211783
41480	-6.513358	-5.614361	-0.844723	-0.745168	0.559447	-0.298300	-0.206787
41481	-3.958369	-5.677269	-1.331893	-0.739874	0.574846	-0.285160	-0.202046
41482	-3.107521	-5.917474	-1.556204	-0.732251	0.590531	-0.276048	-0.197178
41483	-3.615571	-6.543925	-1.937028	-0.723716	0.605918	-0.269721	-0.190653
41484	-3.547971	-6.080398	-2.138741	-0.715932	0.619631	-0.264843	-0.182639
41485	-3.252611	-4.849802	-1.773193	-0.706368	0.634642	-0.260593	-0.174256
41486	-3.618229	-4.796924	-0.907409	-0.694506	0.651478	-0.256084	-0.166308
41487	-3.415695	-4.760005	-0.322529	-0.682192	0.668173	-0.250391	-0.159572
41488	-2.999085	-4.646871	-0.642849	-0.670305	0.683723	-0.243354	-0.154896
41489	-2.955781	-5.205981	-1.300398	-0.658954	0.697957	-0.235187	-0.152718
41490	-4.103732	-6.412200	-1.176670	-0.648285	0.710747	-0.226655	-0.152293
41491	-5.841947	-7.861393	-1.238864	-0.638172	0.722922	-0.217061	-0.151670
41492	-6.584181	-8.468625	-1.373137	-0.629255	0.734280	-0.206537	-0.149045
41493	-6.074638	-8.845382	-1.065337	-0.620553	0.744811	-0.197056	-0.146082
41494	-6.236536	-9.279530	-1.776986	-0.612121	0.754025	-0.189214	-0.144746
41495	-6.177254	-9.130902	-2.941415	-0.606199	0.760198	-0.182136	-0.146454
41496	-4.691203	-7.881413	-2.959710	-0.601915	0.764084	-0.175387	-0.152029
41497	-3.556658	-8.075652	-2.464629	-0.596278	0.767930	-0.168721	-0.162081
41498	-3.852016	-9.650769	-2.408742	-0.588446	0.772580	-0.160921	-0.175942
41499	-3.811315	-10.618978	-2.319858	-0.581303	0.776266	-0.151446	-0.191210
41500	-1.919723	-10.983188	-0.974626	-0.574591	0.779460	-0.140892	-0.206003
41501	-0.030471	-13.847705	-0.604295	-0.566462	0.783067	-0.130463	-0.221147
41502	-1.977197	-16.223294	-1.713832	-0.559748	0.785549	-0.121796	-0.234010
41503	-6.392218	-16.926794	-2.571810	-0.555250	0.787395	-0.114303	-0.242160
41504	-9.744909	-17.573904	-4.291096	-0.553836	0.788445	-0.105777	-0.245827
41505	-9.925076	-15.899490	-5.429923	-0.556236	0.787430	-0.096060	-0.247644
41506	-8.249934	-13.184079	-4.553230	-0.559597	0.785548	-0.086660	-0.249510
41507	-6.395858	-11.869680	-3.170590	-0.560661	0.784639	-0.079653	-0.252300
41508	-5.850891	-12.507997	-1.341644	-0.558985	0.785458	-0.076909	-0.254316
41509	-6.563594	-14.052878	-0.296232	-0.557512	0.786564	-0.078592	-0.253615
41510	-7.126478	-15.087628	-0.807591	-0.558199	0.786570	-0.083855	-0.250381
41511	-6.704417	-14.873328	-1.367766	-0.561237	0.784860	-0.090374	-0.246658
41512	-5.339638	-15.465209	-1.472971	-0.567152	0.780774	-0.097789	-0.243245
41513	-4.622638	-15.458862	-1.041050	-0.574943	0.775103	-0.105689	-0.239762
41514	-5.398129	-15.809052	-0.667430	-0.583965	0.768406	-0.114220	-0.235566
41515	-6.687780	-16.889555	-0.357988	-0.593476	0.761328	-0.122617	-0.230503
41516	-7.033250	-16.537576	-1.092484	-0.604190	0.753291	-0.130869	-0.224456
41517	-6.298759	-15.511007	-1.016514	-0.617131	0.742969	-0.140260	-0.217884
41518	-5.883149	-14.644405	-0.857820	-0.631074	0.730878	-0.150226	-0.212121
41519	-5.837658	-13.321864	-0.689308	-0.645454	0.717176	-0.161066	-0.207619
41520	-6.535602	-12.377963	-0.591484	-0.659385	0.702397	-0.172813	-0.204901
41521	-7.043165	-12.450743	-0.483397	-0.672915	0.686764	-0.184070	-0.204103
41522	-6.539594	-12.699483	-0.696671	-0.685241	0.671802	-0.193807	-0.203880
41523	-5.026450	-12.236190	-2.163499	-0.696369	0.658215	-0.203029	-0.201502
41524	-3.736318	-10.416403	-1.558630	-0.708425	0.642564	-0.214349	-0.198241
41525	-3.680287	-9.015202	-0.567864	-0.719259	0.626577	-0.226079	-0.197371
41526	-3.817722	-8.182971	-0.046181	-0.729171	0.610639	-0.237621	-0.197395
41527	-3.209713	-7.445113	0.262364	-0.739296	0.593792	-0.249077	-0.197011
41528	-2.505098	-6.923506	0.104540	-0.748707	0.577465	-0.259537	-0.196499
41529	-1.457665	-6.045258	-0.315264	-0.758827	0.559299	-0.270023	-0.196095
41530	-1.020213	-5.715432	-0.414976	-0.768635	0.539465	-0.281494	-0.197327
41531	-1.211270	-6.211103	-1.215918	-0.779095	0.517171	-0.292697	-0.199682
41532	-2.215675	-6.018893	-1.866121	-0.792076	0.490927	-0.302551	-0.200174
41533	-1.663157	-3.565786	-1.925160	-0.807688	0.461909	-0.307674	-0.199040
41534	-1.047851	-0.708124	-1.306857	-0.822077	0.435688	-0.309018	-0.197160
41535	-1.707507	-1.025902	-0.826952	-0.833531	0.414874	-0.308073	-0.195439
41536	-2.401327	-3.828079	-0.598983	-0.843008	0.398083	-0.305934	-0.193059
41537	-3.187091	-5.213828	-0.305076	-0.852049	0.381761	-0.304286	-0.188895
41538	-3.567893	-5.116041	0.171928	-0.861058	0.364298	-0.303813	-0.183203
41539	-3.294584	-4.979967	0.317240	-0.869243	0.346640	-0.305172	-0.176429
41540	-3.988501	-4.111981	0.867047	-0.876015	0.329003	-0.309219	-0.169525
41541	-4.578918	-3.370971	1.827130	-0.881277	0.312418	-0.314831	-0.163178
41542	-4.877230	-2.749915	3.088509	-0.884986	0.296825	-0.322780	-0.156548
41543	-4.362927	-3.149652	3.621352	-0.887217	0.283414	-0.331778	-0.149818
41544	-4.313802	-3.670729	3.767675	-0.888093	0.271779	-0.341883	-0.143328
41545	-4.794540	-3.390004	3.814744	-0.887890	0.261052	-0.353307	-0.136668
41546	-5.195834	-2.648728	4.046412	-0.886854	0.250676	-0.365967	-0.129307
41547	-5.388276	-2.287031	4.283681	-0.885069	0.240925	-0.379057	-0.122162
41548	-5.683532	-2.268762	4.545704	-0.882394	0.231872	-0.392578	-0.116184
41549	-6.272824	-2.525381	4.407492	-0.878838	0.222871	-0.406724	-0.112012
41550	-7.554003	-2.698203	4.105539	-0.874409	0.214488	-0.421147	-0.109720
41551	-8.492176	-3.032602	3.669509	-0.868994	0.207653	-0.435704	-0.109047
41552	-8.943731	-3.156684	3.047359	-0.862861	0.201293	-0.450482	-0.109624
41553	-8.916835	-2.273419	3.360703	-0.855749	0.195381	-0.465730	-0.112320
41554	-8.506188	-2.085178	3.358815	-0.847721	0.191362	-0.480537	-0.117615
41555	-8.360657	-1.990478	2.857438	-0.838799	0.188180	-0.495547	-0.124248
41556	-8.892949	-2.127229	2.493408	-0.829338	0.185467	-0.510420	-0.131421
41557	-9.645896	-1.942081	2.565922	-0.819681	0.183050	-0.524967	-0.137931
41558	-10.559075	-1.220502	2.903920	-0.810245	0.181663	-0.538513	-0.143196
41559	-11.476448	-1.591285	3.370722	-0.802398	0.183937	-0.548089	-0.148065
41560	-11.199098	-2.156486	3.440020	-0.794831	0.195541	-0.553415	-0.154072
41561	-9.979492	-3.704574	1.160554	-0.785735	0.211487	-0.559194	-0.158733
41562	-10.261265	-3.391124	2.545435	-0.778822	0.214120	-0.567700	-0.159078
41563	-10.630088	-2.718373	4.668177	-0.772745	0.210369	-0.577535	-0.158317
41564	-12.836605	-3.064027	4.625954	-0.765569	0.206785	-0.588426	-0.157792
41565	-14.992540	-4.261533	3.182793	-0.759402	0.203112	-0.598223	-0.155507
41566	-15.204489	-3.878708	1.875593	-0.756446	0.196793	-0.605910	-0.148105
41567	-12.841202	-2.701516	1.823850	-0.756799	0.190424	-0.610054	-0.137215
41568	-9.282624	-2.958151	1.486792	-0.758741	0.185596	-0.612102	-0.123277
41569	-7.543175	-0.490001	1.262556	-0.760597	0.176642	-0.615823	-0.105130
41570	-6.241168	1.422350	-0.810487	-0.760934	0.166352	-0.621283	-0.085523
41571	-7.603818	3.779582	-2.251056	-0.757871	0.153379	-0.630746	-0.065313
41572	-8.663076	8.051954	0.188171	-0.753718	0.138201	-0.640666	-0.048541
41573	-9.769562	10.246091	1.089326	-0.746504	0.126143	-0.652045	-0.040694
41574	-10.987005	7.468153	0.967153	-0.738945	0.116429	-0.662351	-0.041180
41575	-10.551339	4.951426	2.017916	-0.732954	0.101528	-0.671285	-0.042991
41576	-10.142825	5.407143	0.884400	-0.726987	0.081918	-0.680310	-0.044235
41577	-10.802047	3.767893	0.794058	-0.720417	0.069732	-0.687943	-0.053591
41578	-12.473514	0.173162	2.085122	-0.716077	0.061028	-0.692315	-0.064878
41579	-12.655671	-1.518242	3.299329	-0.715040	0.054092	-0.693028	-0.074186
41580	-12.141565	-2.346426	3.722756	-0.716465	0.051976	-0.690493	-0.084832
41581	-11.230862	-3.861588	2.950896	-0.719551	0.053415	-0.685616	-0.096560
41582	-9.798662	-5.148983	1.791878	-0.722768	0.051607	-0.681396	-0.103160
41583	-9.439282	-5.076748	2.205971	-0.726001	0.041593	-0.679087	-0.100169
41584	-9.348430	-3.688486	1.759394	-0.729533	0.025966	-0.677341	-0.091189
41585	-8.877909	-2.312456	1.184246	-0.732512	0.005409	-0.676245	-0.078032
41586	-9.394998	-0.764840	0.604684	-0.734985	-0.017687	-0.674951	-0.062643
41587	-9.463387	0.663287	0.064760	-0.737605	-0.039850	-0.672386	-0.047423
41588	-9.294418	1.198887	-0.781259	-0.739861	-0.060545	-0.669215	-0.033033
41589	-9.292207	1.760498	-1.554769	-0.742033	-0.080521	-0.665283	-0.017395
41590	-8.838384	2.236728	-1.656260	-0.744614	-0.098732	-0.660153	-0.001023
41591	-8.899770	2.533646	-1.704821	-0.747109	-0.114769	-0.654549	0.014920
41592	-9.195620	2.525510	-1.785978	-0.749934	-0.127172	-0.648487	0.029837
41593	-9.102093	2.366743	-1.504567	-0.752964	-0.137005	-0.642082	0.044790
41594	-8.949424	2.411959	-1.542014	-0.755556	-0.144840	-0.636108	0.059350
41595	-9.091509	1.980154	-1.924139	-0.757140	-0.152186	-0.630904	0.074425
41596	-9.405522	1.986494	-1.572052	-0.757993	-0.159326	-0.626068	0.090010
41597	-9.617408	2.263270	-0.985320	-0.758237	-0.165665	-0.621718	0.105347
41598	-9.609122	2.239128	-0.779718	-0.758296	-0.170224	-0.617825	0.119594
41599	-9.488519	1.735017	-0.979116	-0.757715	-0.174535	-0.614493	0.133432
41600	-9.602650	1.313763	-0.930415	-0.756511	-0.179039	-0.611546	0.147132
41601	-9.564947	1.020676	-0.578043	-0.754426	-0.184372	-0.609018	0.161075
41602	-9.680467	0.933775	-0.307114	-0.751527	-0.190615	-0.606761	0.175257
41603	-9.660815	0.923275	-0.001467	-0.748355	-0.196750	-0.604465	0.189413
41604	-9.670840	0.845031	0.349334	-0.744590	-0.203490	-0.602129	0.204005
41605	-9.934824	1.062719	0.664468	-0.740588	-0.210254	-0.599697	0.218371
41606	-9.887666	0.723114	0.726503	-0.736306	-0.216303	-0.597926	0.231409
41607	-9.805695	0.424357	0.576918	-0.731738	-0.222694	-0.596085	0.244235
41608	-9.831779	0.309178	0.433037	-0.727043	-0.229767	-0.593893	0.256724
41609	-10.378140	-0.004129	0.358539	-0.721514	-0.237969	-0.592033	0.268859
41610	-11.503970	-0.065521	0.708898	-0.715652	-0.246414	-0.590275	0.280531
41611	-12.014295	0.214994	1.423917	-0.710203	-0.253256	-0.589155	0.290464
41612	-11.882130	0.102443	1.555473	-0.705237	-0.257856	-0.589498	0.297730
41613	-11.286378	-0.368999	1.576722	-0.700301	-0.261380	-0.591321	0.302652
41614	-10.413118	-0.582227	1.790387	-0.694918	-0.266394	-0.593376	0.306640
41615	-9.989356	-0.162493	1.439804	-0.689326	-0.273158	-0.595231	0.309699
41616	-10.142333	-0.060191	1.108389	-0.683549	-0.281411	-0.596977	0.311750
41617	-10.561729	-0.057053	1.687318	-0.678124	-0.290361	-0.598388	0.312682
41618	-10.657464	-0.116810	1.836859	-0.673451	-0.299179	-0.599158	0.312994
41619	-10.394706	-0.408448	1.271762	-0.668690	-0.309004	-0.599391	0.313211
41620	-10.559136	-0.968292	1.163809	-0.663845	-0.319449	-0.599011	0.313765
41621	-10.580654	-0.979047	1.469521	-0.659368	-0.329946	-0.597414	0.315382
41622	-10.447048	-0.554026	1.387469	-0.655583	-0.339412	-0.594921	0.317929
41623	-10.072829	-0.140472	1.334447	-0.652749	-0.347143	-0.591875	0.321084
41624	-9.347655	0.311128	1.012674	-0.650909	-0.353665	-0.588147	0.324534
41625	-9.136078	0.276119	0.505612	-0.649042	-0.360831	-0.583884	0.328062
41626	-9.372110	0.220995	0.473730	-0.647499	-0.368210	-0.578872	0.331773
41627	-9.509550	-0.214102	0.228278	-0.646000	-0.375414	-0.573422	0.336059
41628	-9.764559	0.042479	0.278844	-0.644597	-0.382525	-0.567547	0.340676
41629	-10.150276	-0.007001	0.045116	-0.643566	-0.388874	-0.561508	0.345411
41630	-9.861360	0.094479	0.337508	-0.643324	-0.393259	-0.555822	0.350063
41631	-9.311646	-0.067320	0.341859	-0.643321	-0.396615	-0.550472	0.354705
41632	-9.038651	0.166047	0.313647	-0.643151	-0.400774	-0.544370	0.359720
41633	-9.016852	0.220791	0.319643	-0.643032	-0.405018	-0.538128	0.364538
41634	-9.087637	0.026352	0.352267	-0.643381	-0.408143	-0.532084	0.369279
41635	-9.144180	-0.206547	0.231965	-0.644186	-0.410021	-0.526582	0.373656
41636	-9.294248	-0.014531	0.237575	-0.645225	-0.411610	-0.520796	0.378197
41637	-8.820236	0.348406	0.771139	-0.646457	-0.412940	-0.515375	0.382049
41638	-8.864076	0.176491	1.395524	-0.648014	-0.413643	-0.510349	0.385383
41639	-9.143917	0.185318	2.134910	-0.650524	-0.412897	-0.506246	0.387362
41640	-9.253181	-0.645090	1.526400	-0.653241	-0.412394	-0.501939	0.388928
41641	-9.305354	-0.825150	0.967023	-0.655393	-0.412425	-0.497961	0.390384
41642	-9.421277	-0.846972	0.628860	-0.656324	-0.413787	-0.494277	0.392058
41643	-9.594464	-0.084885	0.862724	-0.655975	-0.417740	-0.489882	0.393962
41644	-9.545246	0.725643	0.868909	-0.655455	-0.423250	-0.484587	0.395491
41645	-9.518062	1.085227	0.864289	-0.655514	-0.428123	-0.479402	0.396467
41646	-9.608175	1.191382	1.394157	-0.656608	-0.431553	-0.474715	0.396578
41647	-9.690754	0.803470	1.283216	-0.658353	-0.435016	-0.469566	0.396030
41648	-10.099241	0.434048	0.917164	-0.660506	-0.438035	-0.464218	0.395423
41649	-9.988553	0.296045	0.937682	-0.662590	-0.440273	-0.459428	0.395045
41650	-9.546614	0.343547	0.843794	-0.664112	-0.442731	-0.454913	0.394967
41651	-9.214298	0.497443	0.619576	-0.665012	-0.446261	-0.449898	0.395225
41652	-9.005707	0.533810	0.333507	-0.665595	-0.450902	-0.444230	0.395386
41653	-8.945731	1.286337	0.227372	-0.665388	-0.457052	-0.437671	0.395986
41654	-9.186085	2.556752	0.714921	-0.664837	-0.463168	-0.431317	0.396778
41655	-9.377762	2.863519	0.884086	-0.664965	-0.467662	-0.426188	0.396834
41656	-10.079910	2.778197	0.785184	-0.664936	-0.471091	-0.422353	0.396926
41657	-11.436323	2.829172	1.289180	-0.664454	-0.473273	-0.421050	0.396522
41658	-10.499305	2.257181	0.866166	-0.663631	-0.473398	-0.422270	0.396455
41659	-8.115350	2.501390	1.655478	-0.660646	-0.473925	-0.425703	0.397138
41660	-7.423777	3.370872	2.722138	-0.656296	-0.475560	-0.429792	0.397992
41661	-7.835764	3.970753	3.833016	-0.651851	-0.478023	-0.433678	0.398130
41662	-8.942279	3.536273	4.150714	-0.648701	-0.479495	-0.437601	0.397210
41663	-9.438889	2.833870	3.274679	-0.646564	-0.479921	-0.440611	0.396855
41664	-9.989265	2.339320	3.009021	-0.643620	-0.480905	-0.443254	0.397504
41665	-10.562703	2.125486	2.945548	-0.639281	-0.483179	-0.445062	0.399723
41666	-10.419136	2.835790	3.037350	-0.634363	-0.486211	-0.445533	0.403340
41667	-10.501745	3.476931	3.890114	-0.629995	-0.489267	-0.445124	0.406926
41668	-10.684721	3.532927	3.964608	-0.627212	-0.491637	-0.443703	0.409909
41669	-10.117503	3.487492	2.696942	-0.625908	-0.492715	-0.441936	0.412509
41670	-10.285577	3.213474	2.699726	-0.623645	-0.495080	-0.439229	0.415981
41671	-10.104721	3.305900	3.192427	-0.621115	-0.497930	-0.434820	0.420967
41672	-9.400073	3.625412	3.604224	-0.619665	-0.499860	-0.429792	0.425950
41673	-9.037081	3.326955	2.941777	-0.619408	-0.501236	-0.424904	0.429597
41674	-9.151324	2.669742	2.557204	-0.618931	-0.503592	-0.419631	0.432699
41675	-9.181519	1.859146	3.099878	-0.616952	-0.507472	-0.412812	0.437525
41676	-8.573262	2.074874	2.537016	-0.614078	-0.511126	-0.405528	0.444078
41677	-7.825524	2.943760	2.467375	-0.611379	-0.514014	-0.399595	0.449810
41678	-8.079579	3.280651	3.031347	-0.609022	-0.516877	-0.394718	0.454014
41679	-8.896890	3.067313	3.587755	-0.607526	-0.519115	-0.389671	0.457808
41680	-9.337018	2.638674	3.458295	-0.606465	-0.521028	-0.383904	0.461896
41681	-9.462228	2.170215	3.246558	-0.605264	-0.522957	-0.377250	0.466749
41682	-9.190440	1.503780	2.933856	-0.602866	-0.525805	-0.369349	0.472930
41683	-8.889414	1.454923	2.548013	-0.598956	-0.529556	-0.360625	0.480386
41684	-8.347468	1.502235	1.932128	-0.594416	-0.532901	-0.352283	0.488451
41685	-8.152119	1.775548	1.802047	-0.589785	-0.535342	-0.345289	0.496325
41686	-8.100089	2.515098	1.874711	-0.585311	-0.537247	-0.339539	0.503477
41687	-8.011891	2.506759	1.919308	-0.580987	-0.538818	-0.335223	0.509662
41688	-8.369278	1.960143	2.009741	-0.576461	-0.540030	-0.331861	0.515683
41689	-8.442365	1.741652	1.900233	-0.571676	-0.540869	-0.329022	0.521911
41690	-8.394520	1.756426	2.021734	-0.566417	-0.541522	-0.327301	0.528015
41691	-8.400955	1.728086	2.256748	-0.560523	-0.542200	-0.326416	0.534121
41692	-8.567897	1.421237	2.414310	-0.554836	-0.542040	-0.326746	0.539987
41693	-8.898057	1.104404	2.408190	-0.549597	-0.540980	-0.327969	0.545637
41694	-9.048206	0.999061	2.123929	-0.543658	-0.540157	-0.329676	0.551344
41695	-9.191831	1.130620	2.203868	-0.536602	-0.539988	-0.331368	0.557374
41696	-9.273993	1.189296	2.361079	-0.528663	-0.540247	-0.332927	0.563744
41697	-9.471575	0.965624	2.211031	-0.519901	-0.540858	-0.334725	0.570206
41698	-9.596291	1.046621	2.159196	-0.510145	-0.541897	-0.336463	0.576968
41699	-9.580917	1.334947	2.084184	-0.499791	-0.543219	-0.337969	0.583865
41700	-9.392739	1.266343	1.965708	-0.489234	-0.544801	-0.339578	0.590364
41701	-9.433042	1.168914	2.030613	-0.478676	-0.546560	-0.341488	0.596262
41702	-9.345488	1.347573	2.064064	-0.468568	-0.548288	-0.343534	0.601505
41703	-9.331615	1.591275	2.178973	-0.459381	-0.549628	-0.346022	0.605926
41704	-9.188958	1.739937	2.249178	-0.451698	-0.550524	-0.349749	0.608742
41705	-9.331818	1.441604	1.780995	-0.444167	-0.552509	-0.353374	0.610391
41706	-9.710672	1.369380	1.770063	-0.436604	-0.555467	-0.355776	0.611765
41707	-9.848970	1.459140	1.991694	-0.429720	-0.558344	-0.357449	0.613044
41708	-10.181314	1.639136	2.200589	-0.423608	-0.561362	-0.359047	0.613608
41709	-10.776837	1.340579	2.299163	-0.418911	-0.563741	-0.361141	0.613422
41710	-11.283389	0.828870	2.585181	-0.415926	-0.564975	-0.363817	0.612737
41711	-11.567857	0.546238	2.305572	-0.414245	-0.565480	-0.366839	0.611607
41712	-11.895192	0.305800	1.669110	-0.412723	-0.566327	-0.369289	0.610376
41713	-12.591358	0.276072	1.154152	-0.410117	-0.568463	-0.370217	0.609585
41714	-13.099447	0.512433	1.130169	-0.406619	-0.570980	-0.369959	0.609733
41715	-12.780494	0.896588	1.204032	-0.402682	-0.573586	-0.368776	0.610615
41716	-11.799418	1.383724	1.166869	-0.398649	-0.576349	-0.366334	0.612128
41717	-10.460320	1.594059	0.956201	-0.395186	-0.578709	-0.362934	0.614168
41718	-9.480030	1.707151	0.740902	-0.392564	-0.580786	-0.358836	0.616293
41719	-8.987987	1.746569	0.577220	-0.390178	-0.583087	-0.353875	0.618501
41720	-8.799864	1.596867	0.559034	-0.388791	-0.584649	-0.348790	0.620784
41721	-8.729447	1.398343	0.529068	-0.388465	-0.585365	-0.344069	0.622945
41722	-8.931105	1.127630	0.534962	-0.389186	-0.585175	-0.339683	0.625076
41723	-9.138182	0.930665	0.027478	-0.390051	-0.584831	-0.335174	0.627289
41724	-9.425013	0.848766	-0.093825	-0.390854	-0.584217	-0.330701	0.629731
41725	-9.485105	0.897432	0.009551	-0.391679	-0.583080	-0.326523	0.632445
41726	-9.459081	0.774618	0.170873	-0.392494	-0.581848	-0.322371	0.635200
41727	-9.607206	0.671479	0.262428	-0.393168	-0.580755	-0.317621	0.638169
41728	-9.688871	0.689101	0.338215	-0.394425	-0.579144	-0.313025	0.641121
41729	-9.770738	0.736024	0.597121	-0.396555	-0.576539	-0.308717	0.644237
41730	-9.735375	0.682801	0.165187	-0.399121	-0.573645	-0.304933	0.647032
41731	-10.227052	0.687849	0.014673	-0.400908	-0.571604	-0.300445	0.649827
41732	-10.453934	0.860139	0.068719	-0.402349	-0.569751	-0.295716	0.652726
41733	-10.498769	0.956526	0.260737	-0.403848	-0.567743	-0.291402	0.655484
41734	-9.976584	1.263049	0.752059	-0.405438	-0.565671	-0.287944	0.657818
41735	-9.539572	1.206749	0.822670	-0.407196	-0.563722	-0.285114	0.659636
41736	-9.291659	0.988833	0.700268	-0.408866	-0.561949	-0.282330	0.661311
41737	-9.225684	0.750893	0.761543	-0.410471	-0.560289	-0.279551	0.662903
41738	-9.202293	0.886211	0.940248	-0.411618	-0.559052	-0.276292	0.664601
41739	-9.132762	0.902364	0.915184	-0.412661	-0.557839	-0.273432	0.666154
41740	-9.247899	0.766898	1.053488	-0.413722	-0.556488	-0.271278	0.667505
41741	-9.472712	0.575810	1.426414	-0.414981	-0.554744	-0.270025	0.668682
41742	-9.461574	0.347252	1.323306	-0.416122	-0.553035	-0.269273	0.669692
41743	-9.557609	0.435463	1.254102	-0.416899	-0.551572	-0.269012	0.670519
