// Start Time: Unknown
// Update Rate: 60.0Hz
// Filter Profile: human (46.1)
// Option Flags: AHS Disabled ICC Disabled 
// Firmware Version: 4.3.5
PacketCounter	Acc_X	Acc_Y	Acc_Z	Quat_q0	Quat_q1	Quat_q2	Quat_q3
43442	-0.739381	9.109551	3.299028	-0.504149	-0.391906	0.423976	0.642252
43443	-0.735965	9.138827	3.286803	-0.504170	-0.391942	0.423907	0.642259
43444	-0.741367	9.205491	3.290475	-0.504161	-0.392040	0.423839	0.642251
43445	-0.749028	9.276393	3.335389	-0.504185	-0.392099	0.423741	0.642261
43446	-0.745139	9.301221	3.282166	-0.504229	-0.392134	0.423635	0.642275
43447	-0.792172	9.199339	3.387628	-0.504421	-0.392186	0.423297	0.642316
43448	-0.838250	9.130290	3.290567	-0.504327	-0.392123	0.423405	0.642357
43449	-0.684357	9.272075	3.324346	-0.504217	-0.392097	0.423501	0.642396
43450	-0.781102	9.270544	3.363319	-0.504373	-0.392117	0.423233	0.642437
43451	-0.805572	9.175884	3.281740	-0.504425	-0.392022	0.423153	0.642507
43452	-0.722157	9.187930	3.317278	-0.504406	-0.391951	0.423236	0.642511
43453	-0.791701	9.140577	3.341354	-0.504562	-0.391968	0.423021	0.642519
43454	-0.829036	9.168083	3.263681	-0.504453	-0.392007	0.423228	0.642445
43455	-0.719865	9.319143	3.333713	-0.504360	-0.391998	0.423413	0.642402
43456	-0.710226	9.267738	3.349476	-0.504468	-0.391996	0.423321	0.642378
43457	-0.767301	9.211046	3.322436	-0.504558	-0.391978	0.423322	0.642319
43458	-0.770222	9.196007	3.302619	-0.504577	-0.391883	0.423498	0.642246
43459	-0.702732	9.266533	3.327735	-0.504562	-0.391825	0.423745	0.642129
43460	-0.805403	9.233567	3.304296	-0.504779	-0.391880	0.423655	0.641985
43461	-0.767476	9.182110	3.280942	-0.504878	-0.391761	0.423725	0.641933
43462	-0.648599	9.210892	3.292803	-0.504804	-0.391628	0.424061	0.641851
43463	-0.729356	9.310218	3.214793	-0.504852	-0.391511	0.424142	0.641830
43464	-0.774465	9.273483	3.303260	-0.505104	-0.391304	0.423959	0.641880
43465	-0.717851	9.117302	3.316375	-0.505296	-0.391088	0.423944	0.641870
43466	-0.685310	9.151008	3.306045	-0.505404	-0.390948	0.424048	0.641802
43467	-0.627312	9.225440	3.344197	-0.505508	-0.390765	0.424093	0.641802
43468	-0.703405	9.324196	3.322952	-0.505681	-0.390773	0.423892	0.641794
43469	-0.710874	9.308741	3.330042	-0.505959	-0.390679	0.423488	0.641898
43470	-0.645324	9.271944	3.313882	-0.506257	-0.390578	0.423087	0.641990
43471	-0.674120	9.183099	3.322071	-0.506700	-0.390316	0.422472	0.642204
43472	-0.685030	9.013540	3.235650	-0.507093	-0.390135	0.422007	0.642309
43473	-0.823600	9.197871	3.331363	-0.507203	-0.390073	0.422000	0.642265
43474	-0.757489	9.376334	3.296855	-0.507128	-0.389908	0.422198	0.642294
43475	-0.635891	9.379896	3.265276	-0.507341	-0.389684	0.421831	0.642503
43476	-0.799968	9.183268	3.174970	-0.507855	-0.389615	0.420845	0.642786
43477	-0.817449	9.261844	3.379283	-0.508168	-0.389428	0.420292	0.643014
43478	-0.649926	9.348501	3.516013	-0.508543	-0.389204	0.419858	0.643135
43479	-0.703386	9.106546	3.518691	-0.509260	-0.389033	0.418871	0.643315
43480	-0.886008	9.027668	3.365597	-0.509704	-0.388934	0.418128	0.643507
43481	-0.764700	9.206330	3.334501	-0.509681	-0.388709	0.418022	0.643730
43482	-0.713725	9.178901	3.393235	-0.510175	-0.388491	0.417077	0.644083
43483	-0.662458	9.059975	3.351604	-0.510736	-0.388326	0.416111	0.644362
43484	-0.644495	9.116582	3.540197	-0.511119	-0.388443	0.415260	0.644538
43485	-1.020561	9.169043	3.571527	-0.511601	-0.388738	0.413939	0.644827
43486	-1.130984	8.847970	3.543169	-0.511798	-0.388865	0.412981	0.645208
43487	-0.795439	8.924610	3.452800	-0.510888	-0.388954	0.413788	0.645359
43488	-0.664511	9.334184	3.405595	-0.510230	-0.389182	0.414267	0.645434
43489	-0.901405	9.477029	3.496732	-0.510385	-0.389329	0.413354	0.645808
43490	-1.245743	9.171612	3.505523	-0.510682	-0.389342	0.412327	0.646222
43491	-0.879969	9.125707	3.517066	-0.510143	-0.388854	0.412885	0.646585
43492	-0.679963	9.045806	3.452705	-0.509918	-0.388568	0.412890	0.646932
43493	-1.097111	9.192377	3.604055	-0.510279	-0.388582	0.412056	0.647171
43494	-1.100387	9.240337	3.359337	-0.509845	-0.388185	0.412213	0.647650
43495	-0.979387	9.056928	3.478376	-0.509376	-0.387862	0.412172	0.648238
43496	-0.958129	8.784142	3.472691	-0.509018	-0.387719	0.412189	0.648595
43497	-0.755978	9.118910	3.567506	-0.508230	-0.387467	0.413300	0.648656
43498	-0.689402	9.306297	3.567352	-0.507993	-0.387302	0.413855	0.648586
43499	-1.127776	9.223947	3.622506	-0.508144	-0.387156	0.413821	0.648577
43500	-1.165712	9.016040	3.551185	-0.507794	-0.386786	0.414629	0.648556
43501	-0.775671	9.122431	3.539131	-0.507012	-0.386325	0.416189	0.648444
43502	-0.791255	9.191029	3.529582	-0.506550	-0.385915	0.417154	0.648428
43503	-0.945835	9.349355	3.470806	-0.506119	-0.385466	0.417995	0.648490
43504	-0.892349	9.268121	3.464474	-0.505580	-0.384592	0.418981	0.648793
43505	-0.450799	9.195677	3.302919	-0.504566	-0.383250	0.420911	0.649127
43506	-0.015579	9.256433	3.340655	-0.503728	-0.381964	0.422749	0.649342
43507	-0.124675	9.101979	3.516854	-0.504105	-0.380888	0.422767	0.649669
43508	-0.655210	8.996958	3.794178	-0.504728	-0.380153	0.422643	0.649697
43509	-0.865326	8.948757	3.637878	-0.504399	-0.379135	0.424169	0.649553
43510	-0.454789	9.097797	3.521489	-0.503208	-0.378066	0.427056	0.649208
43511	-0.340649	9.451191	3.392146	-0.502531	-0.377563	0.428891	0.648815
43512	-0.544164	9.475851	3.380751	-0.503109	-0.377056	0.428603	0.648853
43513	-0.701260	9.231430	3.498330	-0.503863	-0.376487	0.427988	0.649003
43514	-0.743095	9.104171	3.532711	-0.504337	-0.376173	0.427710	0.649001
43515	-0.781204	9.444128	3.707708	-0.504600	-0.375940	0.427627	0.648986
43516	-0.532527	9.211757	3.531691	-0.505036	-0.375746	0.427150	0.649074
43517	-0.568560	8.974034	3.433840	-0.505335	-0.375741	0.426877	0.649023
43518	-0.463549	8.959446	3.478673	-0.505375	-0.375987	0.426960	0.648795
43519	-0.572469	9.085390	3.369087	-0.505558	-0.376387	0.426782	0.648538
43520	-0.756719	9.185421	3.555516	-0.505848	-0.376479	0.426439	0.648483
43521	-0.592977	9.077469	3.404413	-0.505727	-0.376395	0.426447	0.648621
43522	-0.428682	9.201857	3.327336	-0.505648	-0.376445	0.426189	0.648823
43523	-0.480985	9.309306	3.452228	-0.506014	-0.376357	0.425309	0.649167
43524	-0.661835	9.305376	3.496317	-0.506351	-0.376323	0.424345	0.649555
43525	-0.844491	9.154999	3.553115	-0.506668	-0.376179	0.423304	0.650070
43526	-0.567939	9.222674	3.255023	-0.506249	-0.375720	0.423387	0.650607
43527	-0.375252	9.580966	3.239807	-0.505868	-0.375115	0.423344	0.651280
43528	-0.665303	9.424549	3.438328	-0.506664	-0.374288	0.421505	0.652330
43529	-0.738335	8.958756	3.560068	-0.507174	-0.373295	0.420237	0.653319
43530	-0.477105	9.203924	3.355924	-0.506823	-0.371897	0.420543	0.654192
43531	-0.359947	9.498582	3.354073	-0.507196	-0.370433	0.419691	0.655279
43532	-0.703042	9.229522	3.567172	-0.508360	-0.369059	0.417405	0.656611
43533	-0.745531	8.864925	3.447675	-0.508860	-0.367657	0.416192	0.657780
43534	-0.471238	9.326862	3.480103	-0.508701	-0.366067	0.416262	0.658745
43535	-0.323800	9.408097	3.428615	-0.509353	-0.364352	0.415060	0.659948
43536	-0.518964	9.108603	3.449569	-0.510507	-0.362575	0.413010	0.661320
43537	-0.451240	8.710240	3.805326	-0.511319	-0.361172	0.411535	0.662379
43538	-0.544988	8.536617	4.165143	-0.511998	-0.360527	0.410386	0.662919
43539	-0.471636	8.458975	4.070931	-0.511960	-0.360080	0.410302	0.663243
43540	-0.270853	8.705407	3.969798	-0.511246	-0.360018	0.411237	0.663249
43541	-0.513090	9.003373	4.064982	-0.511198	-0.360309	0.411137	0.663189
43542	-0.673877	8.799320	4.102818	-0.511523	-0.360687	0.410380	0.663203
43543	-0.546201	8.620927	4.035708	-0.511139	-0.361072	0.410637	0.663130
43544	-0.360612	8.863176	4.046661	-0.510330	-0.361604	0.411537	0.662905
43545	-0.265378	8.937427	4.050505	-0.509894	-0.361997	0.411824	0.662849
43546	-0.011358	8.690212	3.998455	-0.509271	-0.362501	0.412193	0.662822
43547	-0.295486	8.360187	4.318078	-0.508715	-0.363779	0.411670	0.662874
43548	-1.228427	8.551494	4.529681	-0.508919	-0.365327	0.409435	0.663250
43549	-1.461503	8.856819	4.125479	-0.507421	-0.366442	0.410055	0.663400
43550	-0.704008	9.508389	3.780385	-0.505096	-0.366567	0.412425	0.663636
43551	-0.164826	9.651095	3.592144	-0.503969	-0.366295	0.412863	0.664371
43552	-0.660915	9.548619	3.902975	-0.504489	-0.365671	0.410693	0.665663
43553	-1.194837	8.962524	4.563883	-0.506327	-0.364148	0.406744	0.667524
43554	-1.453703	8.227239	4.674696	-0.508152	-0.362773	0.403441	0.668889
43555	-1.089868	8.553015	4.116677	-0.507675	-0.361673	0.404378	0.669281
43556	-0.367640	9.471180	4.025313	-0.507379	-0.359379	0.405173	0.670260
43557	-0.011248	9.329198	3.660208	-0.508811	-0.356944	0.403075	0.671739
43558	-0.686014	9.582380	4.653243	-0.512571	-0.355886	0.397838	0.672563
43559	-1.560488	8.956159	4.587994	-0.516919	-0.354618	0.392390	0.673105
43560	-1.372668	8.749493	4.453935	-0.518435	-0.352001	0.391824	0.673643
43561	-0.564710	8.748170	4.519197	-0.519039	-0.347507	0.392107	0.675344
43562	-0.187494	8.346646	4.606556	-0.520566	-0.343097	0.389918	0.677687
43563	-0.901951	8.042501	5.030373	-0.522917	-0.340599	0.386301	0.679207
43564	-1.352087	8.380725	4.822872	-0.523662	-0.338901	0.385474	0.679951
43565	-0.657065	9.216281	4.221182	-0.522001	-0.336887	0.388771	0.680352
43566	-0.140646	10.165721	4.511829	-0.521021	-0.333523	0.390353	0.681853
43567	-0.433102	9.439962	4.385944	-0.522192	-0.329576	0.387674	0.684401
43568	-0.885373	8.916821	4.524628	-0.523416	-0.326923	0.385139	0.686166
43569	-0.899878	8.978227	4.165423	-0.523133	-0.325189	0.385215	0.687163
43570	-0.034887	9.031098	4.070502	-0.522630	-0.323101	0.385921	0.688135
43571	0.384677	9.457611	4.373189	-0.523809	-0.321818	0.384284	0.688754
43572	0.343742	9.350423	4.427797	-0.526112	-0.321171	0.380606	0.689344
43573	-0.085540	8.590277	3.367750	-0.528792	-0.321495	0.375356	0.690020
43574	-0.339931	8.698968	3.478367	-0.531827	-0.321506	0.370734	0.690181
43575	-0.305455	8.616017	3.783189	-0.535409	-0.319734	0.364971	0.691305
43576	0.485306	9.251423	5.046801	-0.538450	-0.320270	0.359732	0.691442
43577	-0.614124	9.547649	3.919331	-0.541726	-0.323775	0.351418	0.691526
43578	-0.998295	8.759507	3.776470	-0.547189	-0.323631	0.337928	0.694011
43579	0.592668	6.839758	4.106988	-0.552399	-0.321423	0.324869	0.697139
43580	-1.301738	7.306742	4.577753	-0.555984	-0.319814	0.315849	0.699171
43581	-0.984701	7.569427	5.463870	-0.558766	-0.315680	0.309397	0.701712
43582	-0.586189	7.730086	5.173499	-0.560822	-0.312626	0.303785	0.703888
43583	-0.681264	8.455532	4.142238	-0.561971	-0.309200	0.298841	0.706596
43584	-2.406137	7.341171	4.912406	-0.564336	-0.301846	0.290461	0.711369
43585	-2.569851	4.204189	6.176751	-0.566082	-0.292129	0.282783	0.717109
43586	-1.684323	4.443502	6.376568	-0.564499	-0.285027	0.282821	0.721189
43587	-0.109246	6.885871	6.931074	-0.562699	-0.280131	0.284070	0.724017
43588	0.500231	9.390217	5.187225	-0.562098	-0.279095	0.284550	0.724695
43589	0.359277	10.542989	4.069279	-0.563085	-0.278615	0.283606	0.724484
43590	-0.597502	9.026829	3.959507	-0.566211	-0.274891	0.277262	0.725925
43591	-1.665972	6.634088	5.021591	-0.571266	-0.265664	0.265059	0.729946
43592	-1.275668	4.396958	6.290949	-0.576565	-0.254587	0.249887	0.735061
43593	-0.977659	3.377389	6.190854	-0.579854	-0.248367	0.238284	0.738447
43594	-0.473110	4.506009	6.036395	-0.581030	-0.243801	0.233038	0.740715
43595	-0.573381	5.352794	6.902902	-0.583299	-0.238386	0.225014	0.743171
43596	-0.901224	5.153142	6.972002	-0.585511	-0.231835	0.217326	0.745787
43597	-0.643542	5.100967	8.055093	-0.587308	-0.226014	0.210211	0.748197
43598	-0.833430	4.932655	8.299900	-0.588788	-0.221211	0.202952	0.750470
43599	-0.984107	4.570203	8.811788	-0.590107	-0.216213	0.195845	0.752775
43600	-0.850517	4.160398	9.931479	-0.591400	-0.210871	0.188364	0.755181
43601	-0.907348	3.571569	10.332782	-0.592370	-0.206394	0.181374	0.757366
43602	-1.304468	3.685239	11.165278	-0.593222	-0.202985	0.175493	0.759004
43603	-1.552922	3.809627	11.744547	-0.593859	-0.200299	0.170959	0.760253
43604	-1.895142	4.503418	12.787487	-0.594108	-0.198347	0.167153	0.761416
43605	-1.822573	3.838431	12.967523	-0.594325	-0.196869	0.163139	0.762500
43606	-1.642220	3.589209	12.915644	-0.594040	-0.197080	0.161621	0.762991
43607	-1.358755	3.801173	12.729738	-0.593648	-0.198891	0.161953	0.762755
43608	-1.283968	3.998039	12.670923	-0.593525	-0.201456	0.162772	0.762003
43609	-1.564836	4.230701	12.617007	-0.593417	-0.204815	0.164492	0.760822
43610	-1.758899	4.233992	12.198489	-0.593071	-0.208677	0.167028	0.759488
43611	-1.972520	4.050504	11.923573	-0.592247	-0.213481	0.170947	0.757923
43612	-1.896301	3.671465	11.245887	-0.591056	-0.218824	0.176391	0.756079
43613	-1.705993	3.880930	10.589374	-0.589309	-0.225008	0.184024	0.753805
43614	-1.483162	4.096947	9.937888	-0.587262	-0.231908	0.192526	0.751183
43615	-1.350620	4.256218	9.179903	-0.584887	-0.239481	0.201570	0.748282
43616	-1.124201	4.467641	8.656910	-0.582316	-0.247633	0.211051	0.745013
43617	-1.041184	4.726075	8.159073	-0.579770	-0.256295	0.220345	0.741369
43618	-1.035393	5.042894	7.627742	-0.577358	-0.265226	0.229318	0.737378
43619	-1.051847	5.258116	7.148387	-0.575287	-0.273783	0.237430	0.733291
43620	-1.250653	5.109305	6.482293	-0.573267	-0.282335	0.245513	0.728955
43621	-1.286109	5.228005	6.032613	-0.570925	-0.291128	0.254594	0.724204
43622	-1.211165	5.490410	5.627827	-0.568568	-0.299672	0.263896	0.719226
43623	-1.106255	5.699729	5.007439	-0.566287	-0.307972	0.273459	0.713927
43624	-1.085853	6.012691	4.606545	-0.564180	-0.315986	0.282924	0.708384
43625	-0.900325	6.360115	4.393672	-0.562159	-0.324372	0.292116	0.702444
43626	-0.704816	6.984069	3.951625	-0.560010	-0.333226	0.301200	0.696152
43627	-0.728309	7.576200	3.772733	-0.558417	-0.341617	0.308753	0.690029
43628	-0.950729	7.557147	3.787862	-0.557725	-0.348604	0.314418	0.684514
43629	-1.071435	7.339515	3.681298	-0.557209	-0.355054	0.319838	0.679086
43630	-1.055401	7.324602	3.813421	-0.556731	-0.361256	0.325182	0.673648
43631	-0.987204	7.204501	4.071083	-0.556357	-0.367290	0.330307	0.668178
43632	-0.888852	7.131205	4.019115	-0.555890	-0.373262	0.335500	0.662647
43633	-0.774270	7.018266	3.865242	-0.555318	-0.379063	0.340878	0.657066
43634	-0.760720	7.042766	3.866437	-0.554624	-0.385061	0.346382	0.651261
43635	-0.850122	7.094373	3.678623	-0.553590	-0.391094	0.352445	0.645265
43636	-0.803132	7.193729	3.525234	-0.552139	-0.397240	0.358972	0.639126
43637	-0.435051	7.240103	3.168432	-0.550075	-0.404024	0.366263	0.632482
43638	-0.264044	8.059651	2.779858	-0.547401	-0.412100	0.374422	0.624767
43639	-0.336417	9.121894	2.778013	-0.545041	-0.419856	0.382122	0.616955
43640	-0.417698	9.249796	2.406164	-0.543406	-0.426020	0.388593	0.610092
43641	-0.589781	9.031732	1.963609	-0.541679	-0.431659	0.394965	0.603536
43642	-0.666016	9.118697	1.734328	-0.539533	-0.437316	0.401531	0.597019
43643	-0.686309	9.742718	1.713884	-0.536875	-0.443503	0.408211	0.590284
43644	-0.629270	10.818865	1.841643	-0.534066	-0.449590	0.414267	0.583974
43645	-0.855572	11.869210	1.581453	-0.531459	-0.455122	0.419398	0.578377
43646	-1.001629	11.989071	1.212249	-0.529748	-0.458911	0.423199	0.574169
43647	-0.933775	11.588702	0.931552	-0.528294	-0.461857	0.426798	0.570471
43648	-0.949920	11.963800	0.903163	-0.526103	-0.465035	0.431351	0.566475
43649	-1.053858	12.604775	0.694907	-0.523580	-0.467544	0.436141	0.563069
43650	-0.948020	13.078436	0.889678	-0.521703	-0.468645	0.439630	0.561180
43651	-0.760398	12.862273	0.839130	-0.520890	-0.467976	0.441459	0.561058
43652	-0.634941	12.280737	0.728681	-0.520531	-0.466295	0.442525	0.561951
43653	-0.339374	12.023254	0.862955	-0.520148	-0.464285	0.443416	0.563265
43654	-0.096979	12.151855	0.937610	-0.519830	-0.462167	0.443776	0.565015
43655	-0.326823	12.156958	1.000862	-0.519813	-0.459652	0.443086	0.567617
43656	-0.602624	11.722296	1.120118	-0.520203	-0.456423	0.441198	0.571323
43657	-0.697247	10.958763	1.259185	-0.520940	-0.452702	0.438579	0.575614
43658	-0.774843	10.274532	1.192766	-0.521499	-0.449083	0.436097	0.579813
43659	-0.659635	10.243496	1.370852	-0.521605	-0.445851	0.433960	0.583801
43660	-0.652293	10.535608	1.431961	-0.521845	-0.442360	0.431228	0.588249
43661	-0.802276	10.377889	1.609634	-0.522763	-0.438195	0.427086	0.593550
43662	-0.995428	10.029762	1.797473	-0.523961	-0.433593	0.422086	0.599420
43663	-1.325265	9.783918	1.886225	-0.525102	-0.429151	0.416783	0.605301
43664	-1.627766	9.699257	1.939259	-0.526157	-0.424836	0.411504	0.611013
43665	-1.677430	9.870196	2.054527	-0.527124	-0.420629	0.406585	0.616361
43666	-1.597372	10.155864	2.053792	-0.528412	-0.416056	0.401676	0.621558
43667	-1.547387	10.151916	2.087772	-0.530531	-0.410561	0.396112	0.626954
43668	-1.790031	10.015820	2.199201	-0.533460	-0.404138	0.390001	0.632449
43669	-2.056180	9.714220	2.373933	-0.537141	-0.396742	0.383555	0.637934
43670	-2.170915	9.344856	2.532727	-0.541546	-0.388428	0.376934	0.643251
43671	-1.971521	8.973781	2.512364	-0.546331	-0.379495	0.370698	0.648143
43672	-1.611615	8.895009	2.882819	-0.551797	-0.369742	0.364304	0.652759
43673	-1.316968	8.406847	3.003988	-0.558096	-0.358740	0.357266	0.657416
43674	-1.093442	7.702605	3.226260	-0.565073	-0.346762	0.349693	0.661939
43675	-0.817143	6.776267	3.505907	-0.572638	-0.333829	0.341541	0.666329
43676	-0.485443	6.028843	3.535293	-0.580055	-0.320469	0.333806	0.670380
43677	-0.013574	5.838240	3.442262	-0.586650	-0.307497	0.327409	0.673862
43678	0.463586	6.194618	3.571123	-0.592367	-0.295489	0.321845	0.676907
43679	0.908231	6.396992	3.921702	-0.598087	-0.282959	0.315224	0.680339
43680	1.388540	6.032343	4.129341	-0.603833	-0.270092	0.307253	0.684128
43681	1.837020	5.559243	4.316138	-0.608942	-0.258195	0.299577	0.687589
43682	2.021130	5.290171	4.737693	-0.613365	-0.249001	0.292633	0.690034
43683	1.996248	5.278907	5.532324	-0.617135	-0.241481	0.285791	0.692210
43684	2.089834	5.263262	6.459807	-0.620477	-0.233770	0.277865	0.695090
43685	2.217596	4.619202	6.646256	-0.623866	-0.225725	0.266947	0.698984
43686	1.784188	3.848710	6.397898	-0.626282	-0.219679	0.256165	0.702774
43687	1.689762	3.670166	7.498612	-0.628138	-0.215809	0.245354	0.706166
43688	1.573012	3.602574	7.376890	-0.629533	-0.212600	0.234649	0.709528
43689	1.753638	3.905581	8.113518	-0.630532	-0.211194	0.223059	0.712792
43690	1.526521	4.145324	8.464887	-0.631024	-0.210899	0.210063	0.716382
43691	1.150827	4.002014	8.429598	-0.631134	-0.211961	0.195509	0.720083
43692	0.397245	3.304331	8.690116	-0.631017	-0.213042	0.179321	0.724068
43693	-0.176429	2.602106	9.418527	-0.630245	-0.215065	0.163300	0.727922
43694	-0.557285	2.261716	9.978222	-0.628786	-0.217803	0.148125	0.731607
43695	-0.723662	2.151581	10.945202	-0.626778	-0.221880	0.133439	0.734923
43696	-1.141559	1.942614	11.186383	-0.624315	-0.227429	0.118981	0.737801
43697	-1.794087	1.886148	11.367990	-0.621227	-0.234648	0.105746	0.740159
43698	-2.581229	1.845154	11.675026	-0.617553	-0.242437	0.093797	0.742331
43699	-3.218363	1.540493	12.017257	-0.613471	-0.251017	0.082967	0.744151
43700	-3.706043	1.417787	11.844234	-0.608664	-0.261033	0.074369	0.745560
43701	-4.188251	1.838489	11.522048	-0.603281	-0.272319	0.067767	0.746527
43702	-4.758870	1.958094	11.409056	-0.597870	-0.284072	0.062065	0.746996
43703	-5.369782	1.816126	10.781737	-0.592147	-0.296724	0.058313	0.746938
43704	-5.682669	2.017514	10.401412	-0.585796	-0.310785	0.057598	0.746283
43705	-5.797020	2.385904	9.718948	-0.578897	-0.326206	0.059582	0.744928
43706	-6.002697	3.110505	9.243957	-0.571548	-0.342613	0.063868	0.742880
43707	-6.451879	3.843553	8.576848	-0.564119	-0.359395	0.069355	0.740132
43708	-7.064543	4.738091	8.398943	-0.556840	-0.375891	0.075908	0.736799
43709	-7.580969	5.173166	8.163644	-0.550253	-0.391546	0.082805	0.732842
43710	-7.684388	5.332173	7.757807	-0.544418	-0.406305	0.090297	0.728266
43711	-7.587962	5.335455	7.231055	-0.539357	-0.420052	0.098508	0.723151
43712	-7.664845	5.257594	6.487903	-0.534644	-0.433165	0.108363	0.717482
43713	-7.731117	5.434369	5.901421	-0.530254	-0.445373	0.120131	0.711366
43714	-7.592354	5.570679	5.211123	-0.526134	-0.456219	0.133728	0.705099
43715	-7.213806	6.161188	4.634706	-0.521629	-0.466527	0.149828	0.698432
43716	-6.497488	6.929297	3.941273	-0.517384	-0.475049	0.167401	0.691823
43717	-6.052768	6.714101	3.644297	-0.514172	-0.482036	0.184979	0.684873
43718	-5.565743	6.530947	2.969596	-0.510968	-0.487770	0.204131	0.677734
43719	-5.097790	7.074646	2.883763	-0.507884	-0.492761	0.224340	0.670009
43720	-4.593529	7.294125	2.442090	-0.505435	-0.496254	0.244610	0.662143
43721	-4.109053	7.695639	2.181590	-0.503156	-0.498842	0.265407	0.653873
43722	-3.623370	8.073300	1.654210	-0.501408	-0.499996	0.286234	0.645495
43723	-3.027225	8.255232	0.998003	-0.500187	-0.499948	0.306797	0.636978
43724	-2.519056	8.542165	0.637822	-0.499333	-0.499259	0.327125	0.628009
43725	-2.198432	8.867767	0.397951	-0.499380	-0.497596	0.346346	0.618920
43726	-2.008165	9.129583	0.150149	-0.499878	-0.494792	0.364500	0.610281
43727	-1.605086	9.532983	0.082665	-0.500764	-0.490941	0.381563	0.602181
43728	-1.346163	9.803346	-0.071248	-0.502295	-0.486168	0.397160	0.594646
43729	-1.163831	9.903850	-0.244685	-0.504446	-0.480616	0.411469	0.587568
43730	-0.865023	10.143891	-0.237839	-0.506802	-0.474123	0.425140	0.581047
43731	-0.583625	10.329764	-0.185314	-0.509686	-0.466758	0.437733	0.575106
43732	-0.156643	10.282089	-0.046504	-0.513199	-0.458544	0.449296	0.569647
43733	-0.062808	10.443986	0.024662	-0.516894	-0.450533	0.460051	0.564087
43734	-0.067644	10.718606	-0.093416	-0.520310	-0.442256	0.470417	0.558924
43735	0.155145	10.910653	-0.123239	-0.523742	-0.433534	0.480192	0.554219
43736	0.530348	11.315827	-0.018399	-0.527178	-0.424434	0.489716	0.549652
43737	0.936210	11.868830	0.317319	-0.530899	-0.414460	0.498882	0.545423
43738	1.255646	11.667756	0.462282	-0.535599	-0.402920	0.506757	0.542205
43739	1.455727	10.767123	0.194264	-0.540773	-0.390270	0.513832	0.539657
43740	1.857199	10.002630	0.132887	-0.546138	-0.376766	0.520371	0.537583
43741	2.398150	9.619844	-0.081778	-0.551562	-0.362704	0.526408	0.535835
43742	2.903886	9.576226	-0.059759	-0.557398	-0.348570	0.531549	0.534099
43743	3.467182	9.644434	0.135231	-0.563825	-0.333772	0.535309	0.533050
43744	3.973630	9.548638	0.484304	-0.571162	-0.318451	0.537029	0.532882
43745	4.130915	9.307852	0.814369	-0.579064	-0.302713	0.536771	0.533785
43746	4.165129	8.887443	1.022837	-0.587195	-0.286831	0.534811	0.535637
43747	3.945721	8.676523	0.999429	-0.595053	-0.271206	0.531952	0.537947
43748	4.445966	8.471912	1.531577	-0.602796	-0.254673	0.528041	0.541250
43749	5.155108	8.415374	1.679138	-0.610304	-0.239082	0.523492	0.544358
43750	5.239758	8.514383	1.811409	-0.617638	-0.224473	0.517839	0.547703
43751	5.172711	8.546035	1.901268	-0.624461	-0.210307	0.511194	0.551815
43752	5.241386	8.144228	2.434835	-0.631142	-0.196452	0.503035	0.556796
43753	5.312758	7.475598	2.766161	-0.637587	-0.183384	0.493902	0.562063
43754	5.405964	7.135494	3.340543	-0.643760	-0.171989	0.484259	0.566997
43755	5.335803	7.253109	3.801183	-0.649420	-0.162299	0.474725	0.571445
43756	5.399090	7.169122	3.978192	-0.654825	-0.153441	0.464405	0.576184
43757	5.232512	6.678355	4.200005	-0.660294	-0.144537	0.452499	0.581692
43758	5.007946	5.809209	4.832772	-0.665969	-0.135060	0.438559	0.588141
43759	4.661919	4.867232	5.196243	-0.671516	-0.126351	0.423916	0.594472
43760	4.569901	4.414402	5.217647	-0.676535	-0.119349	0.410090	0.599901
43761	4.247812	4.692534	5.548482	-0.681104	-0.114506	0.397026	0.604447
43762	4.083392	5.223728	5.419632	-0.684693	-0.111267	0.385502	0.608444
43763	4.115951	5.562999	6.044174	-0.688312	-0.107134	0.371953	0.613514
43764	3.931037	4.659562	5.833274	-0.692495	-0.102801	0.355642	0.619194
43765	3.666952	4.633917	5.397003	-0.695819	-0.100473	0.341243	0.623934
43766	3.629918	4.915861	5.727979	-0.698990	-0.098316	0.326199	0.628761
43767	3.438069	4.586862	6.413267	-0.702255	-0.096505	0.309727	0.633714
43768	3.301938	4.474018	7.289715	-0.705111	-0.095545	0.293163	0.638549
43769	3.145654	4.330444	7.907431	-0.707621	-0.094829	0.275279	0.643818
43770	2.665196	3.148731	8.256849	-0.709953	-0.093267	0.254616	0.649953
43771	2.243930	1.862938	8.635472	-0.711593	-0.093215	0.234465	0.655723
43772	2.282705	1.664575	9.287611	-0.712229	-0.095284	0.216576	0.660867
43773	2.575433	2.134319	9.437708	-0.712054	-0.098981	0.199862	0.665760
43774	2.664124	2.551714	9.575255	-0.711288	-0.103663	0.183267	0.670625
43775	2.021496	2.053875	10.032931	-0.710092	-0.108883	0.165304	0.675713
43776	0.952710	0.634672	10.272536	-0.708252	-0.114890	0.146951	0.680870
43777	0.145689	0.023469	10.560401	-0.705230	-0.122398	0.131037	0.685929
43778	-0.105732	0.443697	10.240635	-0.700934	-0.132185	0.118349	0.690805
43779	-0.478464	1.112367	10.276455	-0.695912	-0.143040	0.106406	0.695647
43780	-1.109930	1.173591	10.259288	-0.690219	-0.154227	0.094479	0.700633
43781	-1.833995	0.691881	10.112864	-0.684044	-0.165187	0.081879	0.705757
43782	-2.679804	-0.233088	10.200445	-0.677139	-0.176372	0.069664	0.711002
43783	-3.147775	-0.205008	9.829954	-0.668995	-0.188808	0.061038	0.716290
43784	-3.286686	0.657889	9.674624	-0.659965	-0.202278	0.054482	0.721499
43785	-3.497954	1.010681	9.758128	-0.650396	-0.216283	0.048386	0.726544
43786	-3.918480	1.177171	10.288554	-0.640350	-0.230853	0.042924	0.731311
43787	-4.446531	1.247829	10.443767	-0.630049	-0.245628	0.038233	0.735693
43788	-4.826335	0.957724	10.255935	-0.619683	-0.260212	0.034121	0.739674
43789	-5.225621	0.428771	9.302395	-0.608896	-0.275511	0.032343	0.743165
43790	-5.772669	0.572112	8.863009	-0.597487	-0.291741	0.033288	0.746182
43791	-6.238663	0.972371	8.270436	-0.585634	-0.308647	0.036679	0.748615
43792	-6.869531	2.351388	8.133489	-0.573366	-0.326214	0.043091	0.750319
43793	-7.402926	3.455453	7.971093	-0.561367	-0.343006	0.050620	0.751433
43794	-7.577149	4.116170	8.061851	-0.549720	-0.358710	0.059329	0.752073
43795	-6.890915	4.421777	7.387616	-0.538464	-0.373517	0.069155	0.752170
43796	-6.543086	4.792722	6.787699	-0.527799	-0.387904	0.079462	0.751428
43797	-6.843244	5.354024	6.224015	-0.517628	-0.402109	0.090482	0.749789
43798	-7.178428	6.017717	6.075268	-0.508206	-0.415502	0.102128	0.747432
43799	-7.076525	6.303662	5.522512	-0.499642	-0.427917	0.114613	0.744385
43800	-6.798469	6.426758	5.276390	-0.492061	-0.439300	0.127746	0.740657
43801	-6.688723	6.473545	5.056301	-0.485309	-0.449892	0.141597	0.736222
43802	-6.735616	6.572718	4.814848	-0.479330	-0.459494	0.156003	0.731281
43803	-6.725636	6.780707	4.207882	-0.473633	-0.468387	0.171418	0.725879
43804	-6.506321	7.424750	3.810420	-0.468074	-0.476493	0.187817	0.720129
43805	-6.035449	8.141816	3.502303	-0.463225	-0.483582	0.204285	0.714030
43806	-5.691582	8.678816	2.950551	-0.459463	-0.489493	0.220354	0.707625
43807	-5.426094	9.196629	2.624536	-0.456786	-0.494316	0.236054	0.700912
43808	-5.187746	9.734263	2.283865	-0.455147	-0.497927	0.251291	0.694091
43809	-4.746955	10.199781	2.205289	-0.454805	-0.499992	0.265470	0.687522
43810	-4.385681	10.004453	1.856607	-0.456021	-0.500770	0.278138	0.681112
43811	-4.340448	9.654284	1.763393	-0.458166	-0.500569	0.290372	0.674684
43812	-4.132735	9.377307	1.622532	-0.460890	-0.499461	0.302721	0.668191
43813	-3.674783	9.409189	1.590068	-0.464069	-0.497322	0.315191	0.661790
43814	-3.075702	9.430076	1.534308	-0.467746	-0.494253	0.327173	0.655657
43815	-2.647592	9.523745	1.518906	-0.471692	-0.490554	0.338468	0.649848
43816	-2.386807	9.518095	1.455840	-0.476094	-0.486071	0.348657	0.644599
43817	-2.123965	9.348818	1.567185	-0.480922	-0.480760	0.357586	0.640091
43818	-1.736821	9.168253	1.552482	-0.485775	-0.475017	0.365826	0.636044
43819	-1.527281	9.212438	1.649345	-0.490732	-0.468890	0.373290	0.632439
43820	-1.377217	9.294507	1.681287	-0.495761	-0.462365	0.379923	0.629363
43821	-1.274795	9.312494	1.479048	-0.500425	-0.455735	0.386144	0.626716
43822	-1.119594	9.420872	1.649487	-0.503323	-0.450507	0.393786	0.623411
43823	-0.976519	10.032788	1.656779	-0.505848	-0.444863	0.401246	0.620658
43824	-0.967048	10.140197	1.409111	-0.509152	-0.438645	0.407027	0.618614
43825	-0.765026	10.676409	1.712537	-0.511715	-0.432114	0.413155	0.617031
43826	-0.312085	11.066872	1.861422	-0.514700	-0.424849	0.417922	0.616383
43827	-0.464740	10.978045	2.032833	-0.518345	-0.417355	0.420785	0.616501
43828	-0.532492	10.545428	1.850060	-0.522005	-0.409012	0.422324	0.617950
43829	0.067081	9.591864	2.080425	-0.525538	-0.400232	0.423109	0.620164
43830	0.459798	9.071756	2.095986	-0.528454	-0.392642	0.424472	0.621605
43831	0.873329	9.383393	1.816965	-0.530507	-0.386881	0.426894	0.621809
43832	0.924446	9.937105	1.768330	-0.532257	-0.382673	0.429335	0.621237
43833	0.716296	9.344482	2.690522	-0.534653	-0.378293	0.430023	0.621386
43834	0.588826	8.111997	3.672556	-0.538061	-0.373220	0.428585	0.622504
43835	0.567171	7.358289	3.027755	-0.541989	-0.368885	0.425938	0.623497
43836	-0.034791	7.862613	2.674246	-0.545023	-0.366495	0.424172	0.623466
43837	-0.300223	8.442392	2.829868	-0.546811	-0.365169	0.423660	0.623026
43838	-0.459356	9.211130	3.257484	-0.547914	-0.365140	0.423693	0.622050
43839	-0.463863	9.068932	3.131490	-0.550693	-0.364063	0.420346	0.622499
43840	-0.783994	7.708318	2.990990	-0.554726	-0.363275	0.414307	0.623426
43841	-1.527685	7.265905	2.906570	-0.557375	-0.363257	0.409585	0.624193
43842	-1.929811	7.934377	3.023166	-0.558627	-0.363681	0.406578	0.624793
43843	-2.284200	8.859385	3.504308	-0.558666	-0.364199	0.405242	0.625325
43844	-2.829970	9.477397	3.755424	-0.558534	-0.364010	0.403869	0.626439
43845	-2.934279	9.175949	3.502720	-0.558470	-0.362388	0.402118	0.628560
43846	-2.687736	9.121638	4.060146	-0.556878	-0.360708	0.402314	0.630809
43847	-2.903427	9.219305	5.177422	-0.555413	-0.357928	0.401357	0.634284
43848	-3.370516	8.310748	5.084585	-0.554705	-0.352812	0.398071	0.639817
43849	-3.475630	7.750885	4.890286	-0.552073	-0.347476	0.396822	0.645761
43850	-3.078810	8.469740	5.234177	-0.546502	-0.342170	0.398846	0.652056
43851	-2.791417	8.352978	6.085956	-0.541066	-0.333981	0.398662	0.660888
43852	-2.980651	6.799421	5.720719	-0.534740	-0.324961	0.397959	0.670881
43853	-3.588478	6.245740	5.201408	-0.525416	-0.316468	0.400918	0.680478
43854	-3.390847	6.920538	4.745310	-0.513211	-0.308188	0.407612	0.689555
43855	-2.585550	9.072708	4.651253	-0.497978	-0.300881	0.418430	0.697428
43856	-1.112124	10.751920	4.815539	-0.482800	-0.291956	0.427755	0.706181
43857	0.038203	10.006819	4.817198	-0.470234	-0.281400	0.432104	0.716226
43858	0.274293	8.967863	5.052025	-0.457500	-0.270322	0.436673	0.725904
43859	0.385751	8.622982	4.828136	-0.443399	-0.258840	0.443003	0.734947
43860	0.462649	8.668968	4.903918	-0.428320	-0.247349	0.449530	0.743830
43861	0.180822	9.025235	4.290659	-0.411196	-0.235004	0.456694	0.753074
43862	0.233323	10.014829	4.147930	-0.391941	-0.221396	0.464787	0.762456
43863	1.040861	9.948528	3.795067	-0.372290	-0.207280	0.471874	0.771861
43864	1.486269	9.812878	3.962654	-0.353036	-0.194583	0.478515	0.780081
43865	1.735006	10.119135	3.713159	-0.334084	-0.182254	0.486376	0.786517
43866	2.389193	9.706245	2.742357	-0.315573	-0.169568	0.494852	0.791696
43867	2.750371	8.369705	2.194410	-0.297982	-0.157517	0.502382	0.796246
43868	2.739080	7.214005	2.300400	-0.281822	-0.146846	0.508703	0.800146
43869	2.446199	7.488222	2.541744	-0.266286	-0.136662	0.516538	0.802249
43870	1.738116	8.264413	2.495787	-0.250851	-0.126728	0.526437	0.802420
43871	1.568890	8.708803	2.156370	-0.235372	-0.116272	0.536183	0.802240
43872	1.278904	9.352710	2.521797	-0.220187	-0.106689	0.545527	0.801583
43873	1.193708	9.944719	3.060785	-0.205354	-0.096666	0.552188	0.802230
43874	1.213461	9.547989	3.216811	-0.190592	-0.086790	0.556916	0.803733
43875	1.117050	8.828423	3.226032	-0.175967	-0.077276	0.561002	0.805196
43876	1.346910	8.480259	2.670947	-0.160838	-0.067693	0.565348	0.806182
43877	1.263555	8.628268	2.658658	-0.145552	-0.058511	0.570470	0.806198
43878	1.401427	9.368347	2.676475	-0.130142	-0.048974	0.575835	0.805654
43879	1.976950	9.963850	2.351657	-0.114225	-0.038028	0.581773	0.804392
43880	2.198399	9.765840	2.245079	-0.099311	-0.027712	0.585837	0.803843
43881	1.882911	8.851078	2.319584	-0.085582	-0.018816	0.587739	0.804291
43882	1.341091	8.736954	2.452102	-0.071086	-0.009505	0.590825	0.803606
43883	1.377765	9.343961	2.827775	-0.055302	0.001195	0.594948	0.801858
43884	1.291389	9.123520	2.646887	-0.039485	0.011322	0.597579	0.800757
43885	1.508292	8.950759	2.293805	-0.023307	0.021650	0.600156	0.799250
43886	1.422325	9.250226	2.588823	-0.007461	0.032106	0.603030	0.797037
43887	1.006676	9.639254	2.388530	0.008119	0.042687	0.605377	0.794752
43888	0.682989	10.103184	2.463456	0.024125	0.053950	0.607247	0.792312
43889	0.567562	9.652456	2.248965	0.040046	0.064544	0.608300	0.790064
43890	0.335602	9.104886	2.045179	0.055936	0.074718	0.608426	0.788103
43891	0.247260	9.254940	2.251883	0.072039	0.085683	0.608224	0.785833
43892	0.401007	9.474761	1.968692	0.088295	0.097736	0.608545	0.782512
43893	0.182980	10.459000	2.139712	0.104765	0.110328	0.608699	0.778676
43894	-0.184365	9.629636	1.764559	0.120534	0.121400	0.607131	0.775968
43895	-0.053332	8.482938	0.506657	0.135706	0.131870	0.606442	0.772284
43896	0.034734	8.581131	0.400485	0.150750	0.143194	0.607111	0.766933
43897	-0.121358	8.496954	0.522367	0.164815	0.153378	0.606902	0.762221
43898	-0.788612	10.101104	0.924596	0.178178	0.163059	0.606739	0.757319
43899	-1.274571	12.193668	1.494729	0.192608	0.174498	0.606354	0.751523
43900	-1.862597	12.444875	1.762392	0.207412	0.185735	0.603762	0.746963
43901	-1.725618	10.859697	1.159919	0.221925	0.196373	0.599335	0.743629
43902	-1.140626	10.098933	0.934166	0.236765	0.208502	0.595588	0.738745
43903	-1.013349	10.101968	0.851062	0.251156	0.220353	0.593311	0.732357
43904	-1.823315	10.332255	0.789370	0.265075	0.229342	0.589973	0.727371
43905	-2.518519	10.314887	0.508074	0.278465	0.237086	0.586463	0.722709
43906	-2.524699	10.419536	0.272560	0.292377	0.246866	0.583162	0.716585
43907	-2.080781	10.689227	0.431332	0.306688	0.258430	0.579587	0.709391
43908	-1.856927	10.130161	0.858635	0.320808	0.268280	0.574075	0.703950
43909	-2.014700	9.485028	0.939369	0.334658	0.277224	0.567871	0.699051
43910	-2.198628	9.319760	1.201341	0.348608	0.286339	0.561224	0.693909
43911	-2.277255	9.372754	1.150200	0.362141	0.295323	0.554968	0.688221
43912	-2.352096	9.506833	1.254427	0.375608	0.304386	0.548219	0.682439
43913	-2.185888	9.289074	1.663938	0.388879	0.312926	0.540542	0.677248
43914	-2.261047	9.208496	1.830858	0.401557	0.320688	0.532947	0.672219
43915	-2.443468	9.313101	1.779651	0.413751	0.328693	0.525740	0.666610
43916	-2.050082	9.153395	1.707190	0.425699	0.337815	0.518610	0.660079
43917	-1.469774	8.888947	1.501640	0.436986	0.347807	0.511943	0.652677
43918	-1.140973	9.095025	1.557358	0.447794	0.357156	0.505598	0.645206
43919	-0.952090	9.661402	1.477426	0.458260	0.366041	0.499503	0.637580
43920	-0.808094	9.658749	1.267653	0.468673	0.374284	0.493376	0.629950
43921	-0.782102	9.753507	2.043841	0.479208	0.380927	0.486886	0.623054
43922	-0.438834	10.415466	2.443894	0.489813	0.388293	0.480660	0.615042
43923	-0.013344	11.051178	2.663765	0.500831	0.396573	0.474482	0.605611
43924	0.315928	12.162771	3.471730	0.511726	0.403655	0.468930	0.596074
43925	0.378916	11.361073	2.259404	0.522460	0.409646	0.463555	0.586807
43926	1.414465	9.667808	0.931656	0.532385	0.418437	0.457691	0.576190
43927	2.523925	9.801272	1.236353	0.541659	0.428840	0.451291	0.564835
43928	2.735951	10.930983	2.166484	0.551340	0.437331	0.444043	0.554609
43929	1.480274	10.523498	2.736662	0.562397	0.440788	0.436025	0.547080
43930	0.430611	8.654394	2.544966	0.574672	0.442284	0.427801	0.539558
43931	0.620522	7.963011	2.035514	0.586508	0.447556	0.419763	0.528679
43932	1.168416	8.499764	2.526991	0.597288	0.455848	0.412237	0.515278
43933	1.046812	8.514102	2.108833	0.607998	0.461167	0.404582	0.503961
43934	0.663410	8.131965	2.023811	0.618316	0.465513	0.397184	0.493182
43935	0.594992	8.430002	1.788904	0.627415	0.472139	0.390034	0.480946
43936	0.797556	9.431959	1.757159	0.635647	0.480937	0.382456	0.467312
43937	1.211250	9.557663	1.589870	0.643306	0.488296	0.375339	0.454802
43938	0.735204	9.318009	1.600757	0.650429	0.493818	0.369117	0.443666
43939	0.337328	9.367553	1.266357	0.656609	0.501223	0.362798	0.431298
43940	0.327847	9.851848	1.155339	0.662176	0.509693	0.355962	0.418362
43941	0.382352	10.078644	1.331471	0.668109	0.516985	0.348590	0.406007
43942	0.386831	9.967665	1.693702	0.674119	0.523778	0.340847	0.393756
43943	0.010160	9.854445	1.851548	0.680088	0.529989	0.333125	0.381602
43944	-0.347516	9.818909	1.284298	0.685996	0.536768	0.324759	0.368539
43945	-0.202675	10.247228	0.979432	0.691706	0.544715	0.315466	0.353992
43946	0.331831	10.475442	1.096307	0.697555	0.552108	0.305401	0.339593
43947	0.062293	9.871138	1.194028	0.704228	0.557655	0.294805	0.325843
43948	-0.231461	9.809620	1.507782	0.710696	0.563663	0.283684	0.310995
43949	-0.391517	10.009358	1.631215	0.717256	0.569742	0.271679	0.295176
43950	-0.332663	9.884429	1.335403	0.723909	0.575789	0.258604	0.278472
43951	-0.300603	9.647962	0.999331	0.729462	0.583168	0.244609	0.260704
43952	0.007252	9.789751	1.162582	0.734510	0.590269	0.230114	0.243158
43953	-0.005349	9.990090	0.977248	0.739290	0.596772	0.215486	0.225565
43954	-0.125253	9.376266	0.989798	0.744221	0.601534	0.201558	0.208963
43955	-0.495353	8.428077	1.040200	0.749045	0.605042	0.188648	0.193046
43956	-0.752057	9.455569	1.433755	0.752320	0.610088	0.175605	0.175982
43957	-1.198966	9.584187	1.154177	0.754893	0.614958	0.162851	0.159505
43958	-1.775419	10.125813	0.866068	0.756426	0.620315	0.150075	0.143199
43959	-1.882111	10.819889	0.638442	0.757777	0.625418	0.136270	0.126720
43960	-1.775208	11.021494	0.553972	0.759539	0.629158	0.122620	0.110563
43961	-1.824118	10.593890	0.630044	0.762036	0.631268	0.109041	0.094403
43962	-1.871306	9.510563	0.418027	0.764232	0.633157	0.094992	0.077707
43963	-1.992436	9.322637	0.267782	0.765356	0.635717	0.080547	0.060054
43964	-2.053569	10.144034	0.209350	0.766268	0.637733	0.065994	0.042129
43965	-2.120951	10.476448	0.389554	0.767390	0.638561	0.052386	0.024663
43966	-2.523957	10.703272	0.494556	0.767999	0.639206	0.039260	0.007226
43967	-2.678162	10.536317	0.564946	0.768230	0.639578	0.025533	-0.010567
43968	-2.444309	9.750445	0.535991	0.768088	0.639605	0.011155	-0.028689
43969	-2.114667	9.359312	0.635281	0.767551	0.639246	-0.003445	-0.047100
43970	-2.109427	9.270225	0.960866	0.767482	0.637511	-0.017468	-0.065163
43971	-2.405364	9.344552	1.270253	0.767928	0.634390	-0.030776	-0.082993
43972	-2.640074	9.372221	1.114033	0.767477	0.631460	-0.044255	-0.101387
43973	-2.630824	9.875003	1.145009	0.765815	0.628882	-0.058865	-0.120703
43974	-2.323743	9.729991	1.426980	0.764100	0.625392	-0.073638	-0.140048
43975	-2.389899	9.752616	1.428655	0.761589	0.622164	-0.087704	-0.158749
43976	-2.447558	10.328794	1.060242	0.758171	0.619024	-0.102394	-0.177486
43977	-1.941958	10.532988	0.649310	0.754499	0.615131	-0.117587	-0.196262
43978	-1.491835	9.995541	0.574958	0.751450	0.609836	-0.131972	-0.214491
43979	-1.760317	9.605588	0.786493	0.748408	0.604274	-0.144791	-0.231893
43980	-2.032294	9.691703	0.841486	0.745021	0.598346	-0.157189	-0.249433
43981	-2.054308	9.814032	0.779257	0.740993	0.592121	-0.169945	-0.267284
43982	-1.884688	10.073680	0.781709	0.735929	0.585957	-0.183436	-0.285331
43983	-1.306416	9.869862	0.789902	0.730306	0.579254	-0.197460	-0.303525
43984	-1.213574	10.418070	1.280381	0.724878	0.571702	-0.210694	-0.321428
43985	-1.103148	10.861949	1.697084	0.720176	0.562476	-0.222859	-0.339561
43986	-0.607513	9.188936	1.736097	0.716131	0.551949	-0.233699	-0.357623
43987	0.040087	7.501902	1.572491	0.711746	0.541326	-0.243616	-0.375547
43988	0.460345	6.909218	1.420839	0.706065	0.531953	-0.253900	-0.392471
43989	0.783378	8.047328	1.562282	0.698342	0.524855	-0.265776	-0.407687
43990	0.895629	11.243404	2.115048	0.689754	0.518785	-0.278155	-0.421582
43991	1.718568	12.956717	2.310154	0.681715	0.511926	-0.290475	-0.434533
43992	1.988250	12.502082	3.053001	0.676828	0.502345	-0.299032	-0.447364
43993	1.532577	10.049973	3.523585	0.672083	0.492297	-0.306318	-0.460562
43994	0.887197	8.657501	3.397139	0.665693	0.484471	-0.313612	-0.473063
43995	0.391785	8.441103	3.064407	0.658285	0.477391	-0.321227	-0.485358
43996	1.209568	8.481454	2.824350	0.650353	0.470245	-0.329168	-0.497554
43997	1.376736	8.558745	3.261841	0.643674	0.463211	-0.335028	-0.508799
43998	0.637470	7.938339	3.196273	0.637396	0.456982	-0.339684	-0.519143
43999	0.353709	7.435742	2.979497	0.629704	0.451434	-0.345970	-0.529136
44000	0.928147	7.584902	2.431123	0.619892	0.447111	-0.354902	-0.538397
44001	1.147891	8.565318	2.337898	0.609907	0.444257	-0.363242	-0.546539
44002	1.355817	9.080777	1.979782	0.600539	0.441733	-0.370987	-0.553710
44003	1.232799	9.974825	2.218948	0.591734	0.439549	-0.378397	-0.559878
44004	1.074537	10.362221	2.430468	0.583653	0.437021	-0.384768	-0.565964
44005	1.010169	9.859461	2.601729	0.576475	0.434363	-0.389615	-0.572018
44006	0.815966	9.279992	2.426582	0.568988	0.432239	-0.394835	-0.577518
44007	0.892411	9.412099	2.268241	0.560737	0.430526	-0.401408	-0.582317
44008	1.288217	9.771730	2.139468	0.552852	0.428584	-0.407745	-0.586868
44009	1.296193	9.923544	2.060196	0.546149	0.426750	-0.412411	-0.591204
44010	0.855631	9.843556	2.450148	0.540529	0.424689	-0.415778	-0.595479
44011	0.545067	9.820301	2.675737	0.535044	0.422359	-0.419312	-0.599598
44012	0.467748	9.900523	2.458774	0.529404	0.420144	-0.423152	-0.603451
44013	0.589558	9.802299	2.129356	0.523760	0.418176	-0.427145	-0.606920
44014	0.539947	9.741177	2.227199	0.518737	0.416022	-0.430653	-0.610226
44015	0.358215	9.528461	2.270129	0.514425	0.413801	-0.433757	-0.613181
44016	0.237553	9.967314	2.703186	0.510708	0.411615	-0.436804	-0.615591
44017	-0.273802	9.494810	2.636866	0.508697	0.409204	-0.438241	-0.617839
44018	-0.518448	9.160091	2.531480	0.507160	0.406884	-0.439586	-0.619676
44019	-0.386038	10.087705	2.560431	0.504679	0.404748	-0.442195	-0.621243
44020	-0.373916	10.846608	2.614403	0.503264	0.402740	-0.443297	-0.622908
44021	-1.074496	10.509504	2.540988	0.503590	0.400825	-0.442131	-0.624705
44022	-1.771924	9.494611	2.501181	0.504184	0.399115	-0.440713	-0.626321
44023	-2.031243	8.300089	2.399283	0.504457	0.397993	-0.439834	-0.627432
44024	-1.667662	8.457404	2.328134	0.503156	0.396958	-0.441316	-0.628091
44025	-1.172825	9.518270	2.459718	0.501604	0.396284	-0.443333	-0.628337
44026	-1.044058	9.829286	2.533552	0.501476	0.395651	-0.443297	-0.628864
44027	-1.343560	9.889138	2.728179	0.501808	0.394979	-0.442584	-0.629524
44028	-1.629822	9.958689	2.519300	0.501707	0.394191	-0.442192	-0.630373
44029	-1.248629	10.291564	2.559662	0.501308	0.392957	-0.441831	-0.631712
44030	-1.161021	10.026619	2.844210	0.501937	0.391730	-0.439274	-0.633755
44031	-1.578270	9.593845	3.372773	0.503388	0.390628	-0.435231	-0.636070
44032	-1.620553	8.913955	3.608571	0.504787	0.389567	-0.431618	-0.638070
44033	-1.313273	8.520126	3.600752	0.505560	0.389153	-0.429641	-0.639044
44034	-1.071141	8.415459	3.356678	0.506355	0.389439	-0.428148	-0.639243
44035	-1.186815	8.495599	3.285372	0.507473	0.390388	-0.426417	-0.638934
44036	-1.401432	8.545542	3.004965	0.508624	0.391661	-0.425004	-0.638181
44037	-1.166677	8.984074	2.581013	0.509227	0.394087	-0.424203	-0.636738
44038	-1.246421	9.798842	3.021703	0.511166	0.396212	-0.421530	-0.635640
44039	-1.422339	9.599934	3.029316	0.513540	0.397067	-0.418475	-0.635211
44040	-1.482173	8.757142	2.797179	0.515040	0.397129	-0.416711	-0.635117
44041	-1.358904	8.483953	2.798733	0.515694	0.396474	-0.416401	-0.635200
44042	-1.486658	9.062792	3.526840	0.515801	0.395061	-0.416659	-0.635824
44043	-1.635585	8.467085	4.011330	0.516596	0.391707	-0.415604	-0.637940
44044	-0.968935	8.685570	4.144300	0.516862	0.387319	-0.416070	-0.640097
44045	-0.509626	10.164315	4.220342	0.516144	0.382848	-0.419997	-0.640801
44046	0.662558	11.187293	4.661878	0.518099	0.380257	-0.420653	-0.640335
44047	0.990238	9.157585	3.615300	0.522155	0.378833	-0.417357	-0.640041
44048	0.318022	8.091671	3.811496	0.528503	0.380191	-0.410265	-0.638610
44049	-0.984898	6.931693	4.703691	0.537909	0.382096	-0.400648	-0.635718
44050	-1.995878	7.848971	5.767214	0.545378	0.383955	-0.396091	-0.631073
44051	-1.647665	8.890153	4.247805	0.544517	0.388128	-0.402540	-0.625156
44052	0.021005	9.622324	3.368407	0.543936	0.390851	-0.406650	-0.621293
44053	0.896044	9.088413	3.330304	0.547730	0.392510	-0.403632	-0.618878
44054	0.224044	8.653413	3.683106	0.554073	0.397376	-0.397710	-0.613941
44055	-0.724729	9.036605	3.815292	0.558918	0.403197	-0.394288	-0.607931
44056	0.227904	9.040857	2.464834	0.561103	0.409955	-0.393750	-0.601716
44057	0.742069	10.228598	2.528089	0.564215	0.416175	-0.392432	-0.595363
44058	-0.190870	10.591598	2.631979	0.570168	0.422907	-0.386994	-0.588468
44059	-1.248607	9.969895	3.132310	0.575942	0.429237	-0.380991	-0.582144
44060	-2.190281	9.055899	2.831878	0.578589	0.436308	-0.378113	-0.576108
44061	-1.192647	9.010637	2.324745	0.577863	0.441757	-0.379780	-0.571570
44062	-0.215973	8.668833	2.042015	0.576984	0.444762	-0.381999	-0.568641
44063	-0.613945	9.178429	1.613203	0.578312	0.449760	-0.381444	-0.563712
44064	-0.892635	9.731056	2.367190	0.579802	0.453813	-0.380166	-0.559784
44065	-1.008600	10.092751	2.092432	0.579294	0.456107	-0.381813	-0.557318
44066	-0.458701	10.202506	2.137762	0.579361	0.455956	-0.383022	-0.556542
44067	-0.511007	9.956803	2.089593	0.579972	0.456283	-0.382780	-0.555803
44068	-0.881655	9.830680	2.513475	0.580745	0.455992	-0.382019	-0.555759
44069	-0.865007	9.335999	2.735772	0.581120	0.455081	-0.381715	-0.556322
44070	-0.744301	9.082518	2.975856	0.581439	0.453445	-0.381324	-0.557592
44071	-0.615001	8.774679	3.120363	0.581733	0.451996	-0.380760	-0.558846
44072	-0.628454	9.262536	3.200036	0.581906	0.450715	-0.380757	-0.559701
44073	-0.599291	9.398447	3.157961	0.582169	0.449168	-0.380869	-0.560595
44074	-0.656400	9.502361	3.381948	0.582715	0.447653	-0.380663	-0.561378
44075	-0.662075	9.505237	3.369780	0.583150	0.446518	-0.380594	-0.561877
44076	-0.685899	9.589156	3.343909	0.583570	0.445933	-0.380629	-0.561882
44077	-0.656918	9.247294	3.159247	0.583769	0.445355	-0.380823	-0.562002
44078	-0.624630	8.829446	3.081779	0.584016	0.444665	-0.380894	-0.562244
44079	-0.598525	9.005469	3.079841	0.583810	0.444432	-0.381718	-0.562084
44080	-0.494985	9.620307	3.013725	0.583238	0.444445	-0.383035	-0.561770
44081	-0.436092	9.969931	2.699748	0.582870	0.444406	-0.384073	-0.561474
44082	-0.506854	9.792618	2.761376	0.583239	0.444037	-0.383986	-0.561444
44083	-0.677759	9.438449	2.676512	0.583694	0.443482	-0.383647	-0.561640
44084	-0.624456	9.249787	2.807956	0.583800	0.442859	-0.383971	-0.561800
44085	-0.591028	9.314946	2.888340	0.583764	0.442260	-0.384385	-0.562026
44086	-0.564291	9.459962	2.794255	0.583602	0.441845	-0.384753	-0.562269
44087	-0.625618	9.603237	2.688758	0.583603	0.441429	-0.384772	-0.562582
44088	-0.541852	9.631638	2.805951	0.583577	0.440725	-0.384744	-0.563180
44089	-0.702599	9.747922	2.919057	0.584024	0.439962	-0.384037	-0.563795
44090	-0.915162	9.646932	2.841182	0.584292	0.439173	-0.383396	-0.564569
44091	-0.759287	9.580054	2.923439	0.584031	0.438122	-0.383609	-0.565510
44092	-0.649583	9.390876	2.972240	0.584249	0.437006	-0.383321	-0.566342
44093	-0.688971	9.150780	3.039449	0.584350	0.435965	-0.383129	-0.567170
44094	-0.797315	9.101570	3.159742	0.584142	0.435083	-0.383323	-0.567930
44095	-0.856561	9.005892	3.304708	0.583710	0.434337	-0.383506	-0.568822
44096	-0.817570	9.014237	3.332007	0.582876	0.433506	-0.384135	-0.569885
44097	-0.726447	9.133409	3.311459	0.581622	0.432929	-0.385111	-0.570945
44098	-0.793250	9.075849	3.251020	0.580533	0.432429	-0.386170	-0.571716
44099	-0.863027	8.806221	3.120770	0.579053	0.431974	-0.387706	-0.572520
44100	-1.051466	8.595338	2.926493	0.577062	0.431371	-0.389895	-0.573499
44101	-1.313601	8.465956	3.101491	0.574772	0.430098	-0.392762	-0.574796
44102	-1.263162	8.176412	3.460028	0.571998	0.427782	-0.396290	-0.576867
44103	-1.106311	8.215041	3.493276	0.568454	0.425883	-0.400532	-0.578842
44104	-0.931697	8.350934	3.297902	0.563754	0.424816	-0.405329	-0.580880
44105	-0.701598	8.747110	3.880506	0.559210	0.423579	-0.408680	-0.583819
44106	-0.206839	8.912835	3.799701	0.556658	0.422813	-0.407864	-0.587374
44107	-0.754646	8.267000	2.642119	0.556280	0.421300	-0.403477	-0.591832
44108	-0.720415	7.953019	2.307132	0.556618	0.417941	-0.398956	-0.596938
44109	-1.351810	8.159753	1.785653	0.555146	0.416243	-0.396481	-0.601130
44110	-2.493807	8.786372	2.451489	0.553807	0.411879	-0.393336	-0.607405
44111	-1.446232	8.553187	5.583893	0.554255	0.406176	-0.386302	-0.615299
44112	-1.212444	7.857235	5.312430	0.551849	0.408610	-0.382248	-0.618374
44113	-2.581961	10.503719	4.512616	0.545584	0.413733	-0.384354	-0.619221
44114	-2.693091	12.441683	4.865748	0.542349	0.415497	-0.382689	-0.621907
44115	-2.255716	9.550735	3.494868	0.541892	0.415113	-0.377493	-0.625726
44116	-1.831498	10.121142	3.538367	0.538894	0.414607	-0.377916	-0.628389
44117	-1.402036	10.993656	4.339803	0.537446	0.412333	-0.377084	-0.631618
44118	-2.701007	9.557425	4.523134	0.537718	0.409194	-0.373591	-0.635491
44119	-3.130032	8.223797	3.871408	0.536283	0.406069	-0.372694	-0.639224
44120	-3.008688	8.611391	2.675444	0.532645	0.403676	-0.374947	-0.642457
44121	-2.953188	9.745541	1.880238	0.526934	0.401299	-0.379677	-0.645868
44122	-0.856295	10.909796	2.459292	0.520446	0.398222	-0.384285	-0.650293
44123	0.776731	11.740505	1.614682	0.515375	0.396483	-0.385880	-0.654437
44124	-1.769690	13.049044	3.600206	0.513539	0.393231	-0.383187	-0.659405
44125	-4.206409	9.198943	4.104363	0.513705	0.386135	-0.376758	-0.667128
44126	-2.288114	6.931971	4.351927	0.510041	0.379669	-0.375884	-0.674108
44127	-0.761552	6.729511	5.049031	0.505480	0.374337	-0.376035	-0.680411
44128	-0.939339	7.368423	5.540954	0.500011	0.370698	-0.377776	-0.685462
44129	-1.280351	8.366619	5.549503	0.494290	0.367609	-0.380362	-0.689831
44130	-1.171005	8.611288	5.028740	0.489029	0.364081	-0.382835	-0.694070
44131	-1.152636	8.654700	4.349931	0.484176	0.360147	-0.385397	-0.698095
44132	-1.203908	8.847562	4.066295	0.479763	0.355655	-0.387749	-0.702131
44133	-1.170888	8.361174	4.287679	0.475932	0.350397	-0.389272	-0.706525
44134	-0.904559	7.917711	4.592352	0.472296	0.344808	-0.390819	-0.710848
44135	-0.769411	7.972204	4.847545	0.468565	0.339583	-0.392653	-0.714810
44136	-0.636976	8.186263	4.936420	0.464716	0.334401	-0.394262	-0.718869
44137	-0.323361	8.233238	4.907578	0.460778	0.329379	-0.395611	-0.722969
44138	-0.103841	8.178653	4.617101	0.456314	0.325076	-0.397475	-0.726716
44139	0.093759	8.102326	4.645120	0.451401	0.320779	-0.399414	-0.730621
44140	0.498668	7.862858	4.517092	0.445935	0.317222	-0.401930	-0.734142
44141	0.521592	8.118368	4.612858	0.439799	0.314467	-0.405253	-0.737196
44142	0.503440	8.529533	4.435773	0.433200	0.312214	-0.409161	-0.739897
44143	0.578325	9.116638	4.440636	0.426485	0.310236	-0.413123	-0.742424
44144	0.563782	9.362132	4.534910	0.420213	0.308385	-0.416160	-0.745071
44145	0.428135	9.226781	4.307714	0.414176	0.306649	-0.418825	-0.747670
44146	0.178441	9.312205	4.054994	0.408061	0.305108	-0.421925	-0.749916
44147	-0.047945	9.261075	4.024072	0.402212	0.303234	-0.424606	-0.752319
44148	-0.049273	9.003623	4.037287	0.396470	0.301220	-0.427330	-0.754630
44149	0.019021	8.899599	4.055183	0.390930	0.299151	-0.430281	-0.756664
44150	-0.028866	8.830620	3.941883	0.385759	0.297016	-0.433301	-0.758434
44151	-0.242171	9.194198	3.883028	0.380800	0.295251	-0.436665	-0.759698
44152	-0.374995	9.585648	4.015219	0.376067	0.293248	-0.439680	-0.761092
44153	-0.504048	8.933317	4.005424	0.372061	0.290867	-0.441530	-0.762901
44154	-1.017429	8.526326	3.921506	0.367957	0.289087	-0.443902	-0.764191
44155	-1.178784	8.819469	4.009300	0.363403	0.287618	-0.446592	-0.765356
44156	-1.500815	8.670081	4.061951	0.358978	0.286217	-0.448522	-0.766839
44157	-1.769777	8.461195	4.222708	0.354051	0.285229	-0.451280	-0.767879
44158	-1.669982	8.498216	4.173662	0.348821	0.283826	-0.454404	-0.768950
44159	-1.508041	8.413115	4.042281	0.343601	0.282340	-0.457690	-0.769898
44160	-1.421765	8.785626	4.087878	0.338372	0.280672	-0.461021	-0.770836
44161	-1.303527	9.084973	3.984955	0.333391	0.278621	-0.463749	-0.772112
44162	-1.397018	9.309462	4.124139	0.328715	0.276339	-0.465884	-0.773650
44163	-1.615243	9.431914	4.111121	0.324249	0.273891	-0.467662	-0.775332
44164	-1.593553	9.410261	4.094115	0.319956	0.271071	-0.469195	-0.777177
44165	-1.596480	9.234283	3.940586	0.315994	0.268171	-0.470717	-0.778882
44166	-1.571982	9.063769	3.923296	0.312222	0.265138	-0.472449	-0.780392
44167	-1.587202	9.094494	4.084736	0.308625	0.262025	-0.474247	-0.781782
44168	-1.475797	8.974672	4.248894	0.305200	0.258500	-0.475585	-0.783486
44169	-1.654681	8.662467	4.352994	0.301818	0.254762	-0.476573	-0.785417
44170	-1.787294	8.406211	4.309718	0.298103	0.250902	-0.477637	-0.787430
44171	-1.686028	8.430212	4.384350	0.293923	0.246969	-0.479018	-0.789403
44172	-1.466187	8.576345	4.437073	0.289434	0.242964	-0.480472	-0.791418
44173	-1.352251	8.533882	4.459613	0.284806	0.238737	-0.481785	-0.793583
44174	-1.331631	8.325752	4.422288	0.280085	0.234506	-0.483241	-0.795637
44175	-1.357350	8.317639	4.297971	0.275263	0.230317	-0.484908	-0.797527
44176	-1.211826	8.358520	4.255304	0.270326	0.226222	-0.486723	-0.799280
44177	-1.102998	8.437163	4.219764	0.265321	0.222293	-0.488716	-0.800842
44178	-0.974424	8.482085	4.142338	0.260263	0.218572	-0.490942	-0.802163
44179	-0.843657	8.503887	4.153441	0.255274	0.215207	-0.493383	-0.803178
44180	-0.683309	8.694487	4.082355	0.250454	0.212204	-0.496072	-0.803837
44181	-0.666364	8.853463	4.023741	0.245946	0.209488	-0.498802	-0.804253
44182	-0.640917	9.090578	4.055168	0.241810	0.206982	-0.501392	-0.804545
44183	-0.588541	9.223390	3.945411	0.237978	0.204708	-0.503773	-0.804782
44184	-0.563027	9.349006	3.878833	0.234447	0.202708	-0.505917	-0.804979
44185	-0.510800	9.309197	3.747116	0.231262	0.200931	-0.507910	-0.805091
44186	-0.466845	9.193576	3.751756	0.228467	0.199448	-0.509883	-0.805011
44187	-0.438424	9.076171	3.678697	0.226129	0.198179	-0.511664	-0.804855
44188	-0.462265	8.998970	3.648657	0.224192	0.197282	-0.513514	-0.804439
44189	-0.408131	9.075403	3.563703	0.222582	0.196687	-0.515371	-0.803843
44190	-0.450692	9.262676	3.496014	0.221367	0.196497	-0.517174	-0.803067
44191	-0.508258	9.287865	3.450357	0.220541	0.196514	-0.518583	-0.802381
44192	-0.589123	9.234805	3.470866	0.220056	0.196815	-0.519678	-0.801732
44193	-0.736251	9.217351	3.521992	0.219801	0.197318	-0.520578	-0.801094
44194	-0.697134	9.255694	3.498253	0.219661	0.197978	-0.521488	-0.800378
44195	-0.762210	9.329711	3.555970	0.219773	0.198935	-0.522235	-0.799622
44196	-0.878426	9.287928	3.574408	0.220039	0.199987	-0.522854	-0.798881
44197	-1.059291	9.303863	3.707887	0.220369	0.201046	-0.523277	-0.798248
44198	-1.122962	9.123034	3.791384	0.220604	0.202033	-0.523549	-0.797755
44199	-1.181024	9.162237	3.789883	0.220652	0.202955	-0.523993	-0.797216
44200	-1.163797	9.192673	3.695447	0.220571	0.203678	-0.524414	-0.796777
44201	-1.031880	9.271972	3.625957	0.220490	0.204285	-0.524688	-0.796464
44202	-0.894373	9.355882	3.531158	0.220639	0.204857	-0.524580	-0.796347
44203	-0.815336	9.416488	3.362372	0.221081	0.205374	-0.524178	-0.796355
44204	-0.812807	9.324667	3.441839	0.221931	0.205848	-0.523316	-0.796564
44205	-0.880420	9.163429	3.439746	0.223069	0.206332	-0.522322	-0.796773
44206	-0.968849	9.197736	3.614418	0.224393	0.206929	-0.521300	-0.796916
44207	-0.876852	9.214738	3.612532	0.225839	0.207464	-0.520146	-0.797122
44208	-0.904734	9.152659	3.717834	0.227510	0.208152	-0.518883	-0.797290
44209	-1.067662	9.014240	3.757291	0.229254	0.208744	-0.517413	-0.797592
44210	-1.164279	8.846184	3.677641	0.230934	0.209464	-0.516064	-0.797792
44211	-1.117429	9.057507	3.726123	0.232394	0.210248	-0.515210	-0.797714
44212	-0.972048	9.156918	3.821794	0.233956	0.210879	-0.513924	-0.797920
44213	-0.986000	8.927361	3.861549	0.235538	0.211414	-0.512719	-0.798088
44214	-0.996748	8.885709	3.791773	0.237097	0.212009	-0.511798	-0.798061
44215	-1.023114	8.908701	3.791690	0.238582	0.212657	-0.510958	-0.797983
44216	-0.988474	8.956247	3.705258	0.240062	0.213382	-0.510131	-0.797875
44217	-0.950322	8.987175	3.747166	0.241595	0.214123	-0.509200	-0.797809
44218	-0.906786	8.996564	3.766071	0.243202	0.214867	-0.508222	-0.797744
44219	-0.909381	9.008424	3.790289	0.244904	0.215709	-0.507212	-0.797639
44220	-0.952680	9.002589	3.793770	0.246650	0.216589	-0.506220	-0.797492
44221	-0.936869	8.965570	3.801768	0.248435	0.217500	-0.505203	-0.797336
44222	-0.932751	8.970327	3.857859	0.250237	0.218492	-0.504314	-0.797064
44223	-0.934284	8.968272	3.804381	0.252036	0.219531	-0.503473	-0.796743
44224	-0.960319	8.961727	3.791558	0.253896	0.220605	-0.502626	-0.796390
44225	-0.953726	8.965189	3.829024	0.255731	0.221751	-0.501883	-0.795953
44226	-0.950226	8.986331	3.876567	0.257606	0.222898	-0.501095	-0.795525
44227	-0.987581	8.990072	3.902750	0.259446	0.224095	-0.500307	-0.795086
44228	-0.994029	8.978259	3.862952	0.261251	0.225274	-0.499481	-0.794681
44229	-1.027218	8.886469	3.865627	0.263044	0.226440	-0.498620	-0.794299
44230	-1.064234	8.786566	3.820581	0.264727	0.227654	-0.497966	-0.793803
44231	-1.034614	8.944351	3.871508	0.266252	0.228937	-0.497508	-0.793211
44232	-1.032495	9.010713	3.903782	0.267781	0.230196	-0.496940	-0.792688
44233	-1.061180	8.987754	3.933431	0.269285	0.231406	-0.496352	-0.792194
44234	-1.063656	8.969367	3.923387	0.270778	0.232609	-0.495712	-0.791733
44235	-1.095749	8.936762	3.908946	0.272193	0.233758	-0.495056	-0.791320
44236	-1.148386	8.898570	3.858697	0.273529	0.234897	-0.494421	-0.790919
44237	-1.152861	8.845532	3.903393	0.274774	0.235957	-0.493795	-0.790564
44238	-1.170320	8.867885	3.942332	0.275910	0.237052	-0.493305	-0.790146
44239	-1.135989	8.912451	3.959363	0.276954	0.238120	-0.492821	-0.789761
44240	-1.158648	8.897864	3.957043	0.277945	0.239168	-0.492364	-0.789381
44241	-1.168466	8.868709	3.961583	0.278846	0.240147	-0.491941	-0.789030
44242	-1.187139	8.897302	3.950428	0.279663	0.241054	-0.491556	-0.788704
44243	-1.166966	8.881975	3.960741	0.280400	0.241877	-0.491202	-0.788411
44244	-1.212527	8.804924	3.933118	0.281072	0.242629	-0.490871	-0.788147
44245	-1.267055	8.786051	3.888624	0.281556	0.243366	-0.490689	-0.787860
44246	-1.200894	8.921005	3.907463	0.281858	0.244076	-0.490750	-0.787495
44247	-1.165688	9.074822	3.926477	0.282149	0.244767	-0.490774	-0.787161
44248	-1.176082	9.078884	3.935972	0.282485	0.245326	-0.490570	-0.786993
44249	-1.266900	8.905279	3.851720	0.282824	0.245858	-0.490365	-0.786834
44250	-1.246417	8.983175	3.870533	0.282964	0.246339	-0.490428	-0.786593
44251	-1.109425	9.050136	3.960180	0.283068	0.246590	-0.490408	-0.786490
44252	-1.101824	8.943981	3.874630	0.283188	0.246797	-0.490463	-0.786347
44253	-1.122657	8.920431	3.885376	0.283311	0.246947	-0.490663	-0.786131
44254	-1.088104	8.933751	3.872092	0.283415	0.247130	-0.490952	-0.785856
44255	-1.101019	8.937721	3.859397	0.283434	0.247327	-0.491348	-0.785539
44256	-1.070139	8.960826	3.808274	0.283457	0.247491	-0.491746	-0.785230
44257	-1.063192	8.975724	3.783452	0.283467	0.247649	-0.492067	-0.784976
44258	-1.112386	8.994827	3.835786	0.283564	0.247809	-0.492266	-0.784765
44259	-1.079773	8.993455	3.825794	0.283646	0.247985	-0.492496	-0.784535
44260	-1.065790	8.995925	3.823824	0.283715	0.248229	-0.492780	-0.784255
44261	-1.050452	8.957618	3.768439	0.283853	0.248451	-0.493017	-0.783986
44262	-1.124370	8.966004	3.750471	0.283918	0.248794	-0.493412	-0.783605
44263	-1.081239	9.099262	3.803063	0.283981	0.249164	-0.493791	-0.783226
