// Start Time: Unknown
// Update Rate: 60.0Hz
// Filter Profile: human (46.1)
// Option Flags: AHS Disabled ICC Disabled 
// Firmware Version: 4.3.5
PacketCounter	Acc_X	Acc_Y	Acc_Z	Quat_q0	Quat_q1	Quat_q2	Quat_q3
40913	-6.390251	0.858134	8.820168	0.954459	0.037422	0.292708	0.043921
40914	-6.351147	1.116499	8.179722	0.954631	0.034677	0.292426	0.044312
40915	-5.981824	0.679483	8.098210	0.954746	0.032518	0.292200	0.044967
40916	-5.582817	0.647724	8.157869	0.954790	0.030969	0.292123	0.045621
40917	-5.619137	0.787441	8.054346	0.954788	0.029818	0.292171	0.046126
40918	-5.593910	0.799886	8.031698	0.954835	0.028861	0.292059	0.046469
40919	-5.603440	0.859877	8.019956	0.954933	0.027913	0.291802	0.046650
40920	-5.552761	0.813332	8.030677	0.955088	0.026895	0.291372	0.046749
40921	-5.477852	0.736349	8.092996	0.955277	0.025891	0.290837	0.046787
40922	-5.456279	0.660302	8.115862	0.955462	0.024869	0.290320	0.046774
40923	-5.470497	0.622303	8.129270	0.955648	0.023929	0.289795	0.046731
40924	-5.473819	0.635139	8.062855	0.955799	0.023113	0.289367	0.046700
40925	-5.438563	0.579709	8.111752	0.955926	0.022445	0.289006	0.046659
40926	-5.451902	0.608836	8.049290	0.956037	0.021897	0.288693	0.046591
40927	-5.396036	0.691111	8.093936	0.956141	0.021373	0.288399	0.046515
40928	-5.440148	0.678982	8.071234	0.956257	0.020801	0.288077	0.046392
40929	-5.427122	0.612748	8.078017	0.956392	0.020218	0.287689	0.046265
40930	-5.418426	0.578053	8.093105	0.956524	0.019673	0.287309	0.046129
40931	-5.400524	0.562001	8.123378	0.956655	0.019164	0.286931	0.045991
40932	-5.391446	0.485503	8.146274	0.956772	0.018693	0.286592	0.045863
40933	-5.403460	0.503444	8.113068	0.956868	0.018267	0.286313	0.045767
40934	-5.380242	0.522363	8.127739	0.956950	0.017894	0.286075	0.045694
40935	-5.368187	0.532193	8.145521	0.957026	0.017509	0.285860	0.045584
40936	-5.405375	0.469345	8.123814	0.957092	0.017147	0.285670	0.045523
40937	-5.400529	0.482960	8.127981	0.957147	0.016877	0.285515	0.045459
40938	-5.391587	0.509191	8.115623	0.957205	0.016587	0.285345	0.045408
40939	-5.372594	0.510438	8.126810	0.957262	0.016343	0.285178	0.045342
40940	-5.385625	0.483696	8.148190	0.957313	0.016113	0.285033	0.045260
40941	-5.391341	0.446694	8.163257	0.957348	0.015929	0.284933	0.045217
40942	-5.367963	0.453874	8.138169	0.957372	0.015823	0.284862	0.045181
40943	-5.378522	0.442141	8.141770	0.957378	0.015748	0.284850	0.045165
40944	-5.373495	0.481308	8.146451	0.957379	0.015694	0.284850	0.045169
40945	-5.378930	0.474238	8.114387	0.957385	0.015674	0.284834	0.045154
40946	-5.392655	0.480726	8.155445	0.957392	0.015641	0.284810	0.045168
40947	-5.362311	0.479739	8.123735	0.957401	0.015635	0.284779	0.045172
40948	-5.363834	0.487659	8.142574	0.957408	0.015622	0.284753	0.045180
40949	-5.383222	0.494507	8.103619	0.957413	0.015616	0.284735	0.045198
40950	-5.357810	0.484555	8.155320	0.957421	0.015635	0.284707	0.045200
40951	-5.395518	0.492783	8.125796	0.957430	0.015607	0.284679	0.045196
40952	-5.382889	0.487492	8.151614	0.957435	0.015632	0.284659	0.045195
40953	-5.384578	0.458851	8.130021	0.957433	0.015651	0.284658	0.045238
40954	-5.395735	0.449876	8.133061	0.957430	0.015707	0.284664	0.045257
40955	-5.373648	0.498717	8.147173	0.957430	0.015775	0.284651	0.045305
40956	-5.377956	0.487885	8.163432	0.957437	0.015841	0.284620	0.045334
40957	-5.387218	0.471108	8.147874	0.957438	0.015920	0.284607	0.045368
40958	-5.369194	0.471369	8.138155	0.957433	0.016034	0.284614	0.045393
40959	-5.373347	0.496014	8.127205	0.957428	0.016126	0.284616	0.045453
40960	-5.352569	0.517032	8.119907	0.957423	0.016249	0.284613	0.045515
40961	-5.312860	0.572985	8.143886	0.957445	0.016249	0.284537	0.045544
40962	-5.339842	0.555440	8.138295	0.957466	0.016181	0.284471	0.045531
40963	-5.376634	0.484060	8.144216	0.957491	0.016074	0.284396	0.045515
40964	-5.363945	0.483032	8.122461	0.957515	0.016001	0.284318	0.045526
40965	-5.389434	0.493652	8.138339	0.957541	0.015934	0.284231	0.045541
40966	-5.360122	0.465654	8.153060	0.957567	0.015890	0.284147	0.045542
40967	-5.360343	0.507608	8.145551	0.957586	0.015838	0.284083	0.045553
40968	-5.338011	0.482186	8.146917	0.957598	0.015792	0.284045	0.045554
40969	-5.317375	0.465559	8.166951	0.957608	0.015783	0.284014	0.045544
40970	-5.367302	0.472539	8.159636	0.957609	0.015761	0.284010	0.045562
40971	-5.377105	0.454550	8.143788	0.957602	0.015801	0.284028	0.045583
40972	-5.379404	0.463704	8.162048	0.957592	0.015857	0.284052	0.045608
40973	-5.373186	0.497220	8.147569	0.957587	0.015938	0.284057	0.045660
40974	-5.290982	0.547943	8.165344	0.957585	0.015966	0.284058	0.045689
40975	-5.329337	0.484525	8.122328	0.957593	0.015961	0.284032	0.045684
40976	-5.351425	0.507971	8.121233	0.957605	0.015924	0.283991	0.045692
40977	-5.357860	0.474603	8.135562	0.957632	0.015887	0.283903	0.045687
40978	-5.353973	0.493653	8.138860	0.957669	0.015830	0.283786	0.045669
40979	-5.347297	0.461077	8.131591	0.957711	0.015794	0.283646	0.045673
40980	-5.347267	0.546028	8.116890	0.957758	0.015723	0.283493	0.045657
40981	-5.339304	0.506740	8.158202	0.957810	0.015630	0.283325	0.045628
40982	-5.349301	0.466622	8.141654	0.957851	0.015598	0.283196	0.045594
40983	-5.363550	0.409682	8.189050	0.957867	0.015609	0.283142	0.045593
40984	-5.338389	0.441291	8.165611	0.957859	0.015683	0.283156	0.045641
40985	-5.361237	0.467131	8.163933	0.957849	0.015795	0.283178	0.045680
40986	-5.329459	0.526530	8.173957	0.957822	0.015900	0.283254	0.045727
40987	-5.354103	0.446185	8.185187	0.957796	0.016036	0.283326	0.045776
40988	-5.347668	0.472990	8.150959	0.957758	0.016200	0.283435	0.045848
40989	-5.331606	0.512297	8.180114	0.957719	0.016376	0.283545	0.045920
40990	-5.346846	0.477312	8.159863	0.957641	0.016536	0.283788	0.045983
40991	-5.390586	0.426126	8.132927	0.957566	0.016737	0.284010	0.046105
40992	-5.404709	0.493847	8.146677	0.957492	0.017024	0.284220	0.046250
40993	-5.338415	0.517578	8.095871	0.957411	0.017355	0.284446	0.046396
40994	-5.333529	0.507306	8.135453	0.957346	0.017643	0.284626	0.046535
40995	-5.326523	0.565471	8.121663	0.957300	0.017889	0.284749	0.046646
40996	-5.345509	0.562872	8.110498	0.957266	0.018084	0.284832	0.046749
40997	-5.381238	0.589833	8.130172	0.957238	0.018256	0.284900	0.046839
40998	-5.389695	0.603560	8.135397	0.957243	0.018366	0.284863	0.046915
40999	-5.387816	0.559588	8.076535	0.957249	0.018463	0.284828	0.046972
41000	-5.409283	0.628563	8.067788	0.957297	0.018545	0.284654	0.047021
41001	-5.311299	0.520391	8.183841	0.957334	0.018741	0.284507	0.047084
41002	-5.317479	0.463882	8.177875	0.957365	0.019035	0.284363	0.047197
41003	-5.365756	0.598626	8.127951	0.957391	0.019374	0.284231	0.047316
41004	-5.402026	0.585368	8.078380	0.957434	0.019774	0.284041	0.047429
41005	-5.374424	0.484357	8.098473	0.957502	0.020360	0.283741	0.047613
41006	-5.354972	0.478739	8.156147	0.957540	0.021128	0.283518	0.047828
41007	-5.344325	0.600808	8.155224	0.957525	0.022197	0.283464	0.047970
41008	-5.437140	0.565551	8.139952	0.957485	0.023709	0.283506	0.047788
41009	-5.458576	0.669301	8.148179	0.957545	0.025466	0.283266	0.047105
41010	-5.140305	0.612275	8.257724	0.957489	0.027321	0.283359	0.046644
41011	-5.289008	0.711988	8.185744	0.957266	0.028901	0.283960	0.046618
41012	-5.202370	0.706958	8.257648	0.957058	0.030110	0.284508	0.046780
41013	-5.267697	0.898798	8.174436	0.956869	0.030817	0.285036	0.046971
41014	-5.305741	0.871914	8.160934	0.956746	0.031086	0.285397	0.047109
41015	-5.334249	0.743296	8.161442	0.956612	0.031294	0.285795	0.047289
41016	-5.412641	0.779034	8.146879	0.956483	0.031361	0.286185	0.047478
41017	-5.413731	0.909969	8.080013	0.956423	0.031190	0.286398	0.047527
41018	-5.389408	0.841447	8.121929	0.956453	0.030534	0.286387	0.047405
41019	-5.324897	0.677255	8.118089	0.956553	0.029293	0.286216	0.047216
41020	-5.329084	0.814155	8.054346	0.956733	0.027649	0.285804	0.047038
41021	-5.321970	0.655779	8.155535	0.956981	0.025876	0.285166	0.046880
41022	-5.328534	0.593404	8.164032	0.957156	0.024291	0.284722	0.046852
41023	-5.311991	0.838034	8.145987	0.957323	0.022761	0.284286	0.046874
41024	-5.336446	1.040070	8.077517	0.957545	0.021026	0.283686	0.046772
41025	-5.186346	0.992981	8.115709	0.957851	0.019174	0.282845	0.046405
41026	-5.202605	0.876509	8.196068	0.958285	0.017279	0.281634	0.045540
41027	-5.247477	0.574267	8.356862	0.958646	0.015572	0.280682	0.044418
41028	-5.295013	0.460151	8.350525	0.958978	0.013913	0.279849	0.043029
41029	-5.301914	0.368222	8.289168	0.959182	0.012331	0.279436	0.041633
41030	-5.178204	0.268695	8.420083	0.959322	0.010802	0.279217	0.040274
41031	-5.267791	0.643610	8.391159	0.959323	0.009137	0.279494	0.038724
41032	-5.344356	0.567457	8.283431	0.959300	0.007046	0.279872	0.036958
41033	-5.454233	1.022821	8.323744	0.959227	0.004688	0.280466	0.034659
41034	-5.293208	1.044520	8.556657	0.959066	0.002098	0.281460	0.031101
41035	-5.273974	2.199231	8.569810	0.958646	-0.000256	0.283549	0.024456
41036	-5.536113	1.244457	8.701748	0.957861	-0.001159	0.287014	0.011147
41037	-5.748573	0.665331	9.183130	0.956459	-0.001042	0.291851	-0.002772
41038	-6.177879	1.692271	8.720128	0.953920	0.000690	0.299340	-0.020794
41039	-6.634943	3.638670	8.357873	0.950220	0.005248	0.308101	-0.046126
41040	-7.151684	4.624271	7.698747	0.944981	0.012035	0.316689	-0.081077
41041	-7.072638	4.916485	6.902888	0.937317	0.021350	0.324298	-0.125747
41042	-7.493622	5.715903	7.019149	0.926042	0.034479	0.330394	-0.179160
41043	-9.878161	6.628683	6.595126	0.909922	0.048182	0.335190	-0.239519
41044	-13.936241	8.157608	6.194547	0.890027	0.059589	0.336545	-0.301724
41045	-12.342051	12.657309	3.801084	0.869263	0.064618	0.333497	-0.359147
41046	-15.207805	19.212121	-1.822919	0.855941	0.078563	0.328494	-0.391515
41047	-7.416834	16.771186	2.313656	0.850899	0.100169	0.323805	-0.401357
41048	-5.217024	3.012804	5.607206	0.847527	0.126911	0.321124	-0.403076
41049	-3.515517	-2.197610	7.675957	0.843606	0.160195	0.315977	-0.403516
41050	-2.164447	-4.787324	9.861727	0.838743	0.192640	0.311273	-0.403124
41051	-7.148606	-3.236512	16.858409	0.835304	0.212665	0.311735	-0.399828
41052	4.475193	-19.132015	16.665371	0.831731	0.218440	0.307432	-0.407423
41053	4.812086	-13.385356	18.200014	0.827213	0.218545	0.303149	-0.419592
41054	6.923521	-14.021869	18.022621	0.825057	0.211886	0.298405	-0.430512
41055	1.327385	-16.010545	16.504480	0.824122	0.203180	0.288134	-0.443306
41056	-8.384652	-5.799947	7.655910	0.828362	0.195851	0.281546	-0.442933
41057	-5.712071	-4.468428	8.962647	0.836461	0.190983	0.277277	-0.432408
41058	-5.360530	-0.982351	7.773337	0.846998	0.183344	0.274003	-0.417016
41059	-6.586606	2.453126	7.322704	0.856818	0.177716	0.269655	-0.401952
41060	-5.048557	6.518929	8.454967	0.862962	0.175185	0.263680	-0.393803
41061	-4.761420	8.189281	9.540987	0.865292	0.170008	0.258388	-0.394466
41062	-4.903271	-0.206568	9.407599	0.866115	0.164593	0.255499	-0.396831
41063	-5.542075	0.920219	8.256137	0.866546	0.161197	0.253087	-0.398824
41064	-5.707426	1.179403	8.118256	0.866580	0.158410	0.250978	-0.401193
41065	-5.869874	1.080747	7.723894	0.866124	0.155337	0.248221	-0.405074
41066	-5.309054	0.419793	8.546645	0.865898	0.151773	0.245605	-0.408490
41067	-5.198044	0.372473	8.638363	0.865632	0.149063	0.244213	-0.410878
41068	-5.506495	0.627589	8.370352	0.865147	0.146807	0.243446	-0.413161
41069	-5.388285	0.041195	8.337620	0.864680	0.144807	0.243033	-0.415083
41070	-5.445147	0.738193	7.988561	0.864533	0.142371	0.242646	-0.416456
41071	-4.949214	0.962420	7.985023	0.864583	0.138725	0.241739	-0.418107
41072	-4.897336	0.238864	8.174896	0.864712	0.134387	0.240304	-0.420080
41073	-4.648655	-0.266095	8.426665	0.864932	0.130188	0.238704	-0.421858
41074	-4.840155	-0.852196	8.453562	0.865237	0.126933	0.237238	-0.423049
41075	-4.559358	-0.730111	8.733622	0.865535	0.125258	0.235764	-0.423762
41076	-4.258406	0.135291	8.926864	0.865370	0.124978	0.234791	-0.424721
41077	-4.004204	1.341571	9.356456	0.864471	0.125709	0.234935	-0.426253
41078	-4.476434	1.598267	9.779466	0.862559	0.126223	0.237365	-0.428624
41079	-4.057401	0.445368	11.908392	0.860248	0.125320	0.244487	-0.429528
41080	-3.604738	-1.489666	12.657999	0.857772	0.125533	0.258593	-0.426144
41081	-2.712604	-2.171287	13.539702	0.854721	0.128819	0.281090	-0.416949
41082	-2.529118	-1.158454	13.634512	0.851276	0.129948	0.313314	-0.400346
41083	-2.114296	-2.478294	12.614877	0.846643	0.126411	0.354202	-0.376505
41084	-2.304441	-1.073773	11.904741	0.840718	0.113999	0.401722	-0.344699
41085	-3.179901	-1.440452	9.132781	0.833529	0.091889	0.452028	-0.304066
41086	-6.044246	-1.455007	6.444284	0.825676	0.059894	0.499300	-0.255680
41087	-6.560652	-1.084408	3.022061	0.817178	0.022023	0.539719	-0.201095
41088	-6.111267	-1.300717	0.251484	0.807840	-0.019945	0.571537	-0.142624
41089	-6.765467	-0.763609	-1.793912	0.797011	-0.059680	0.595098	-0.084088
41090	-9.847019	2.090810	0.383668	0.784910	-0.097498	0.611261	-0.027754
41091	-8.919365	1.868618	1.265351	0.772665	-0.134032	0.619988	0.025293
41092	-8.261258	1.737437	1.475811	0.759620	-0.167101	0.624280	0.073003
41093	-9.914034	2.614590	0.318755	0.747294	-0.192418	0.625978	0.112598
41094	-10.623311	2.613300	-0.399834	0.737380	-0.210239	0.625714	0.143363
41095	-9.705857	2.231081	-0.045609	0.729500	-0.221043	0.625788	0.165403
41096	-9.184679	1.221364	0.842354	0.722561	-0.227284	0.627431	0.180496
41097	-10.434104	1.823956	2.216917	0.716097	-0.228051	0.631790	0.189839
41098	-11.113833	2.516094	2.716977	0.710055	-0.226849	0.637445	0.195000
41099	-11.982090	2.575130	2.260551	0.705035	-0.226704	0.642512	0.196745
41100	-10.598377	3.705307	1.361774	0.701150	-0.227501	0.647390	0.193696
41101	-9.221332	4.250941	0.410644	0.698132	-0.228308	0.653210	0.183858
41102	-11.692681	2.620811	0.098485	0.695738	-0.226680	0.661168	0.165596
41103	-10.524706	0.792345	-0.260587	0.694900	-0.218908	0.670889	0.138207
41104	-11.508102	-0.295237	-1.049029	0.695666	-0.203589	0.681381	0.101588
41105	-12.672806	0.854145	-0.908440	0.698909	-0.178660	0.690331	0.055222
41106	-13.468392	2.078520	-0.975124	0.705244	-0.143223	0.694345	-0.001617
41107	-15.860860	4.111796	-0.005412	0.715493	-0.094962	0.688620	-0.069672
41108	-9.733634	2.619544	-0.916295	0.728427	-0.035596	0.668427	-0.146056
41109	-7.505949	3.749527	-1.521630	0.737851	0.032226	0.634555	-0.227764
41110	-3.622308	0.679531	-1.471962	0.742380	0.099817	0.587157	-0.306846
41111	-2.047662	2.567357	-0.373897	0.739312	0.161119	0.536265	-0.374004
41112	-3.819265	10.910015	-0.800564	0.737995	0.202335	0.496118	-0.410234
41113	-5.361906	-12.797308	3.341638	0.737969	0.234350	0.460766	-0.433792
41114	-5.083272	-6.454481	8.242904	0.737082	0.256595	0.426609	-0.457027
41115	-2.337750	-8.321446	15.136541	0.740579	0.264215	0.394824	-0.475233
41116	-5.812762	-2.623518	15.815697	0.750649	0.258686	0.364227	-0.486772
41117	-8.769374	-1.651053	12.131045	0.765216	0.247375	0.337117	-0.489492
41118	-6.956688	2.841337	7.875210	0.779694	0.233712	0.315567	-0.487723
41119	-4.937740	6.647854	8.413856	0.791689	0.220251	0.293347	-0.488535
41120	-4.977552	7.777452	9.377760	0.799131	0.206552	0.272229	-0.494589
41121	-4.335714	2.883944	10.856104	0.803516	0.191642	0.256483	-0.501848
41122	-5.094376	0.264397	9.862323	0.805563	0.177581	0.246076	-0.508901
41123	-5.344648	-3.535563	9.157014	0.808525	0.165936	0.238112	-0.511914
41124	-5.219213	-3.473099	9.401440	0.812304	0.160062	0.230383	-0.511337
41125	-4.181888	2.119817	10.433639	0.815101	0.157584	0.224410	-0.510311
41126	-3.169569	2.962921	10.360958	0.815932	0.155781	0.221889	-0.510639
41127	-4.338239	0.854397	9.120833	0.815564	0.153881	0.222147	-0.511690
41128	-4.979033	-0.732876	8.095870	0.815454	0.152236	0.222879	-0.512040
41129	-5.316063	-0.647206	7.980545	0.815967	0.150322	0.222993	-0.511737
41130	-5.071866	-0.143319	8.213600	0.816789	0.147731	0.222576	-0.511363
41131	-4.478168	-0.548457	8.753411	0.817486	0.145665	0.222260	-0.510979
41132	-3.880156	0.167127	8.716742	0.817996	0.144133	0.222549	-0.510470
41133	-4.971478	1.186412	8.288264	0.818393	0.141309	0.223674	-0.510132
41134	-4.602114	-0.226399	8.731506	0.818818	0.138030	0.225131	-0.509706
41135	-4.892301	-0.244969	8.664803	0.819120	0.134933	0.226731	-0.509341
41136	-4.974180	-0.384006	8.720579	0.819268	0.132723	0.228601	-0.508848
41137	-4.634694	-0.665825	8.835071	0.819412	0.130948	0.230183	-0.508362
41138	-4.920146	-0.051374	8.510752	0.819521	0.129398	0.232139	-0.507694
41139	-4.860121	1.504884	9.195572	0.819380	0.126575	0.234731	-0.507441
41140	-4.821554	1.320081	10.080080	0.818193	0.122294	0.238916	-0.508453
41141	-4.215591	1.351502	11.673217	0.815230	0.119620	0.246939	-0.510013
41142	-4.236347	2.585728	12.986240	0.809169	0.119134	0.261762	-0.512379
41143	-5.104927	4.251684	12.902771	0.799442	0.118235	0.284107	-0.515942
41144	-5.975758	3.399081	11.298055	0.785552	0.117008	0.312144	-0.521328
41145	-6.058901	4.375118	10.687805	0.767123	0.115056	0.345037	-0.528425
41146	-8.672822	8.484908	10.686261	0.742669	0.110722	0.382379	-0.538488
41147	-15.882298	14.802831	11.272779	0.718697	0.094198	0.423112	-0.543671
41148	-20.747531	19.366753	4.337650	0.709784	0.059928	0.462800	-0.527667
41149	-22.354922	25.606428	1.454887	0.745880	0.048025	0.472047	-0.467471
41150	1.098603	10.578926	4.420148	0.784843	0.050018	0.475970	-0.393665
41151	2.154192	-3.551056	7.031148	0.811833	0.072640	0.471951	-0.336025
41152	-1.022274	1.805529	11.786770	0.832055	0.104944	0.455042	-0.299346
41153	-0.584310	4.585438	12.922057	0.849013	0.127161	0.432847	-0.275048
41154	-1.455814	0.520708	12.141898	0.865033	0.143756	0.406101	-0.257167
41155	-1.826577	3.160849	9.526197	0.880144	0.159205	0.375459	-0.242964
41156	-2.810324	5.037575	7.959648	0.893433	0.170445	0.347142	-0.228512
41157	-6.966072	5.054714	7.995034	0.905504	0.181954	0.322888	-0.206638
41158	-9.020792	3.109968	6.190684	0.917052	0.194923	0.302569	-0.171676
41159	-12.601032	-0.601175	3.697385	0.926025	0.210179	0.287962	-0.124020
41160	-15.852975	-4.362989	2.368245	0.931369	0.224140	0.277811	-0.071649
41161	-18.415920	-7.067265	2.518324	0.934423	0.232274	0.268442	-0.029011
41162	-30.867714	-7.626727	-4.630931	0.937278	0.216323	0.272798	-0.017204
41163	-51.139290	-22.329222	-2.473349	0.942348	0.186794	0.273971	-0.045034
41164	-17.388628	-9.885956	-10.332721	0.946189	0.160535	0.267171	-0.087032
41165	-8.651496	11.984854	-1.876798	0.946644	0.135219	0.269835	-0.113008
41166	-5.467403	5.106919	13.142434	0.947051	0.109193	0.280342	-0.112156
41167	-9.438053	-20.300693	13.016795	0.946204	0.097282	0.283495	-0.121921
41168	-9.475570	9.609303	6.547064	0.945514	0.088070	0.287202	-0.125545
41169	-6.214551	-3.291570	9.154926	0.945982	0.077429	0.286263	-0.131060
41170	-5.941405	-1.254472	9.132463	0.946009	0.072388	0.286063	-0.134143
41171	-5.588985	-0.780038	8.891957	0.945558	0.069755	0.287851	-0.134895
41172	-5.575961	1.072526	8.417623	0.945208	0.067132	0.288876	-0.136474
41173	-5.603769	-0.180186	8.594829	0.944513	0.064267	0.290840	-0.138482
41174	-5.958857	-0.972030	7.705385	0.943792	0.062285	0.292795	-0.140175
41175	-5.917756	-1.310829	8.058311	0.943176	0.061994	0.294302	-0.141285
41176	-5.883373	0.072862	7.944144	0.942730	0.062788	0.295285	-0.141857
41177	-5.814023	1.001892	7.942497	0.942457	0.063002	0.295817	-0.142471
41178	-5.454266	0.590892	7.656208	0.942324	0.062382	0.296084	-0.143067
41179	-5.338118	0.534689	8.003856	0.942301	0.061302	0.295966	-0.143930
41180	-5.303944	0.465290	8.441834	0.942180	0.059630	0.295950	-0.145450
41181	-5.616865	0.007118	8.287853	0.941796	0.058096	0.296604	-0.147210
41182	-5.863025	0.241906	8.024288	0.941358	0.056874	0.297435	-0.148806
41183	-5.661758	0.279077	8.491512	0.940817	0.055693	0.298527	-0.150480
41184	-6.101628	-0.528442	8.342994	0.940112	0.055390	0.300069	-0.151923
41185	-6.083404	-0.207786	8.318010	0.939371	0.055905	0.301749	-0.152985
41186	-5.845991	-1.035847	8.650211	0.938481	0.057955	0.303948	-0.153333
41187	-5.093707	-0.312888	8.714300	0.936934	0.062951	0.307625	-0.153489
41188	-5.692726	-0.411619	8.130755	0.934725	0.070354	0.312926	-0.153024
41189	-6.221993	0.213116	7.475195	0.932369	0.078464	0.318875	-0.151165
41190	-6.205692	0.469705	7.378778	0.930209	0.085333	0.324851	-0.147990
41191	-6.224908	1.702624	7.002593	0.928137	0.090772	0.330670	-0.144845
41192	-6.469219	0.841924	6.506645	0.926256	0.095269	0.335729	-0.142336
41193	-6.711866	0.482472	6.308323	0.924803	0.099093	0.339606	-0.139960
41194	-6.934696	0.693024	6.059966	0.924189	0.102225	0.341290	-0.137644
41195	-6.725639	1.204650	6.708927	0.924294	0.104418	0.341177	-0.135558
41196	-6.681273	1.437648	6.715310	0.924808	0.105485	0.340016	-0.134131
41197	-6.654993	0.519852	7.171200	0.925673	0.105953	0.337961	-0.132990
41198	-6.290721	0.709830	8.088264	0.926442	0.106922	0.336250	-0.131181
41199	-6.504166	0.890338	8.051122	0.926832	0.108297	0.335374	-0.129535
41200	-6.576364	1.191784	7.513358	0.927074	0.110266	0.334340	-0.128809
41201	-7.273438	-0.149173	7.764488	0.927592	0.113002	0.331770	-0.129354
41202	-7.268074	-0.152607	7.848954	0.928621	0.116355	0.326950	-0.131261
41203	-7.794073	-0.647516	7.516853	0.930195	0.119209	0.319280	-0.136332
41204	-9.082706	-4.795026	6.972424	0.931333	0.122867	0.309198	-0.148047
41205	-14.020204	-14.719191	2.749479	0.928013	0.125584	0.298169	-0.184707
41206	-25.644907	-6.758154	-1.663072	0.918760	0.126416	0.285885	-0.241183
41207	-31.777799	12.323731	-6.458679	0.907404	0.122324	0.281107	-0.287462
41208	-23.945908	-1.123552	-8.153698	0.895814	0.108574	0.296704	-0.312561
41209	-22.353013	-1.706337	-5.433271	0.879583	0.101022	0.326192	-0.331250
41210	-16.126387	-1.598467	-2.330814	0.856542	0.083533	0.365672	-0.354461
41211	-17.054921	-11.615941	1.136912	0.829081	0.073249	0.403722	-0.379825
41212	-1.815553	7.929113	5.160464	0.804743	0.082363	0.427092	-0.403977
41213	7.877883	6.128918	10.019476	0.786242	0.102880	0.437512	-0.424054
41214	23.102084	16.338309	22.280356	0.783259	0.137933	0.418854	-0.438226
41215	26.325674	25.986112	40.360608	0.802177	0.155906	0.373086	-0.439331
41216	-21.611624	-7.664513	6.310036	0.823362	0.154469	0.335412	-0.430943
41217	0.643312	5.006625	17.870051	0.844278	0.151183	0.296187	-0.420252
41218	-6.263422	12.747540	13.655525	0.858866	0.143797	0.268405	-0.411862
41219	-2.621450	8.286227	17.366579	0.865540	0.134937	0.250821	-0.411974
41220	0.026302	3.103733	16.195054	0.864716	0.133712	0.249827	-0.414697
41221	-5.146697	0.552930	8.592621	0.859885	0.134852	0.252976	-0.422392
41222	-6.075702	-2.138564	7.346384	0.855581	0.137942	0.255183	-0.428759
41223	-6.403507	-2.835828	6.630508	0.853498	0.141113	0.255745	-0.431535
41224	-6.557329	-2.440159	6.882854	0.853380	0.144371	0.254008	-0.431717
41225	-6.212941	0.879162	7.939195	0.854249	0.146977	0.250664	-0.431073
41226	-4.728520	0.875214	9.270525	0.854790	0.148794	0.248301	-0.430745
41227	-4.703971	2.110191	8.981843	0.854545	0.150768	0.247914	-0.430767
41228	-5.345230	1.603019	7.976311	0.853739	0.151586	0.248412	-0.431791
41229	-5.304376	0.406240	7.554249	0.852791	0.150861	0.248508	-0.433857
41230	-5.152612	1.385812	7.455674	0.852035	0.149008	0.247451	-0.436579
41231	-5.372518	0.486656	7.715670	0.852379	0.145382	0.245429	-0.438267
41232	-5.080473	0.224577	8.308807	0.853482	0.141316	0.243074	-0.438764
41233	-4.794158	0.249785	8.819998	0.854595	0.137688	0.241442	-0.438651
41234	-4.709696	1.524145	9.203025	0.855118	0.134704	0.241277	-0.438649
41235	-5.221586	0.953783	8.366196	0.854655	0.130998	0.242354	-0.440078
41236	-5.585688	-0.734850	7.747863	0.854160	0.126907	0.242825	-0.441975
41237	-5.083281	-0.389421	8.549410	0.853822	0.123606	0.242584	-0.443692
41238	-5.345969	2.995256	9.173863	0.852219	0.119856	0.243412	-0.447334
41239	-5.382240	3.088361	9.263807	0.848706	0.114138	0.246033	-0.454025
41240	-5.760891	3.026734	9.591099	0.843837	0.105817	0.249865	-0.462936
41241	-4.516968	0.375770	10.538391	0.838199	0.096617	0.256938	-0.471245
41242	-4.408915	0.569235	11.198276	0.832135	0.087586	0.268246	-0.477415
41243	-3.644069	-2.163480	10.232556	0.826383	0.077476	0.284264	-0.479877
41244	-4.002178	-2.668957	9.543652	0.820956	0.068706	0.302846	-0.479160
41245	-4.236509	-3.045427	8.788446	0.815912	0.060399	0.323239	-0.475558
41246	-5.313883	-1.508918	8.753233	0.812278	0.050505	0.345380	-0.467296
41247	-4.690516	-2.733628	7.164287	0.810852	0.035428	0.368716	-0.453114
41248	-2.554891	-6.880785	5.905105	0.810967	0.018518	0.390598	-0.435227
41249	-3.164042	-9.392282	5.222537	0.810920	0.005696	0.410639	-0.416836
41250	-3.622977	-9.660286	4.886776	0.810725	-0.003383	0.430220	-0.397019
41251	-5.565398	-6.546611	5.984839	0.810531	-0.009026	0.449937	-0.374854
41252	-4.659363	-7.087595	5.567104	0.810253	-0.014916	0.469815	-0.350060
41253	-8.351256	-2.179691	6.329698	0.809597	-0.019039	0.489685	-0.323106
41254	-8.637892	-0.893484	5.236554	0.807679	-0.025930	0.509344	-0.295891
41255	-8.221313	0.058662	4.288306	0.803905	-0.029179	0.527624	-0.272946
41256	-10.042973	1.385133	4.227436	0.798019	-0.029482	0.544480	-0.256590
41257	-10.137694	1.580164	3.382510	0.790887	-0.028290	0.559102	-0.247191
41258	-10.279922	1.322442	2.020245	0.783231	-0.024815	0.570762	-0.245285
41259	-9.270391	-0.423173	1.711212	0.774821	-0.017566	0.580106	-0.250639
41260	-9.148635	-0.416924	2.510878	0.765232	-0.005814	0.587840	-0.262354
41261	-9.594557	-0.855505	1.991575	0.754918	0.008018	0.593343	-0.279247
41262	-9.824062	-2.076964	2.235884	0.743825	0.026284	0.595880	-0.301596
41263	-9.457417	-1.247310	2.492459	0.731736	0.048911	0.594556	-0.329656
41264	-10.297244	-1.420107	3.433276	0.717893	0.076896	0.588218	-0.364301
41265	-11.655636	0.363059	4.027597	0.703326	0.109473	0.572685	-0.406669
41266	-13.055018	-0.772779	3.590466	0.689385	0.149280	0.543008	-0.455638
41267	-10.465043	6.739764	2.154720	0.672115	0.185960	0.510991	-0.502562
41268	-10.487252	27.775942	5.602452	0.667704	0.209055	0.484493	-0.525103
41269	-1.356048	16.084216	7.062224	0.683908	0.230392	0.468355	-0.509739
41270	-5.735273	-6.077957	15.089120	0.695790	0.252896	0.444367	-0.504438
41271	2.225618	7.512283	10.482549	0.713982	0.281308	0.414358	-0.489288
41272	-1.571524	-12.577651	9.312678	0.730687	0.306873	0.381149	-0.476078
41273	-13.092728	-22.571501	6.567941	0.730541	0.324505	0.341916	-0.494064
41274	-16.688464	-17.610447	-1.945526	0.712852	0.332362	0.302900	-0.538172
41275	-12.411014	1.242806	-5.711519	0.691337	0.331401	0.281730	-0.576935
41276	-7.458007	-1.369398	8.581997	0.680862	0.312310	0.286774	-0.597202
41277	-8.462738	-21.576947	12.839431	0.676828	0.298887	0.269243	-0.616505
41278	-9.475232	-0.689357	10.145752	0.679770	0.290020	0.250910	-0.625176
41279	-5.671222	-0.912482	11.018733	0.686175	0.281491	0.237871	-0.627171
41280	-5.550366	3.865906	9.772409	0.690859	0.275695	0.230179	-0.627474
41281	-5.769515	7.490339	7.254946	0.691206	0.269267	0.225626	-0.631524
41282	-6.413760	2.075264	5.766032	0.686799	0.258714	0.220364	-0.642506
41283	-5.749899	-5.063149	9.152189	0.683648	0.246876	0.212563	-0.653066
41284	-3.784083	-5.123436	13.109193	0.684973	0.245591	0.206882	-0.653985
41285	-5.646144	4.538390	9.514079	0.684158	0.249253	0.205318	-0.653946
41286	-6.353443	1.679264	6.867577	0.682611	0.250773	0.205829	-0.654820
41287	-6.536962	-1.360661	6.526830	0.682887	0.250975	0.204725	-0.654801
41288	-5.995837	0.698404	8.058808	0.684295	0.251691	0.202224	-0.653833
41289	-5.632362	1.537814	8.205078	0.685148	0.252524	0.200624	-0.653111
41290	-5.413900	2.361485	8.354227	0.685411	0.253571	0.200006	-0.652619
41291	-5.908857	1.715078	7.518786	0.685357	0.253959	0.200282	-0.652440
41292	-6.109975	1.361300	7.303844	0.684821	0.253535	0.200264	-0.653173
41293	-5.972520	1.298454	7.505750	0.684404	0.252332	0.199905	-0.654185
41294	-5.778313	0.530553	7.962475	0.684090	0.250683	0.199666	-0.655219
41295	-5.700947	0.268432	8.057131	0.684072	0.249302	0.199568	-0.655795
41296	-5.590872	0.075739	8.098271	0.684266	0.248410	0.199580	-0.655927
41297	-5.561285	0.373850	7.982569	0.684576	0.247864	0.199884	-0.655718
41298	-5.675877	0.049713	7.764308	0.685137	0.247212	0.200398	-0.655220
41299	-5.846972	0.650468	7.452095	0.686072	0.246173	0.200769	-0.654520
41300	-5.550745	1.567681	7.632587	0.687000	0.244331	0.200801	-0.654227
41301	-5.709791	1.473834	7.754226	0.687588	0.241732	0.200886	-0.654549
41302	-5.737466	0.564079	7.788134	0.688275	0.238866	0.200587	-0.654970
41303	-5.591701	0.186879	7.927714	0.689095	0.236330	0.199787	-0.655272
41304	-5.287416	1.102753	8.446934	0.689698	0.234608	0.199104	-0.655464
41305	-5.727566	1.270536	7.782996	0.690044	0.232630	0.199564	-0.655665
41306	-5.672448	0.972835	8.287839	0.690510	0.229839	0.200424	-0.655897
41307	-5.323121	-0.993926	8.985308	0.691941	0.226934	0.202103	-0.654884
41308	-4.817684	-2.161445	10.501299	0.694890	0.223375	0.206685	-0.651546
41309	-3.332321	-2.735457	14.325761	0.699993	0.217456	0.214241	-0.645618
41310	0.508338	-6.184814	18.235518	0.714943	0.207972	0.237327	-0.623923
41311	0.713586	-7.143902	17.926640	0.738906	0.196479	0.277487	-0.581735
41312	-0.319102	-2.637480	16.883506	0.765442	0.176789	0.331685	-0.522330
41313	-1.619576	-0.709515	14.358183	0.788438	0.147013	0.390489	-0.451963
41314	-2.966336	2.659080	10.011374	0.806609	0.110470	0.443304	-0.375046
41315	-1.815301	2.254532	6.832500	0.819176	0.070912	0.486874	-0.294748
41316	-4.391508	3.779636	4.784309	0.825829	0.031771	0.520400	-0.214896
41317	-3.070035	3.012546	1.396543	0.826388	-0.004838	0.545345	-0.140205
41318	-6.213846	5.600602	0.463732	0.822411	-0.034894	0.562945	-0.074264
41319	-7.249852	6.458772	0.591359	0.815684	-0.061333	0.574923	-0.019022
41320	-9.554436	6.457476	0.518526	0.808991	-0.081181	0.581679	0.024356
41321	-12.424904	6.087353	1.934926	0.804217	-0.094412	0.584084	0.056276
41322	-9.079736	5.926732	0.798811	0.801592	-0.099237	0.584622	0.076288
41323	-10.604899	6.104279	2.913505	0.800743	-0.098627	0.584631	0.085379
41324	-11.141997	3.716830	4.140834	0.801879	-0.094206	0.583734	0.085847
41325	-10.930917	2.641558	5.189646	0.803896	-0.090387	0.582206	0.081350
41326	-10.457598	-0.120531	5.380443	0.805311	-0.088247	0.581406	0.075185
41327	-9.284022	-1.195175	5.344584	0.805317	-0.087507	0.582154	0.070029
41328	-9.194446	-1.123423	4.641179	0.803738	-0.087560	0.584739	0.066469
41329	-9.325002	-0.679404	3.953459	0.800981	-0.088214	0.588700	0.063876
41330	-9.413252	-0.279261	3.263795	0.797509	-0.089173	0.593532	0.061223
41331	-9.214131	-0.332991	3.194357	0.793427	-0.089256	0.599319	0.057652
41332	-9.250827	-0.649459	3.037476	0.788670	-0.088749	0.606073	0.052899
41333	-9.203728	-1.245630	3.736355	0.782657	-0.087326	0.614472	0.047391
41334	-9.085572	-1.255789	4.717896	0.773824	-0.084016	0.626444	0.041298
41335	-9.432861	-0.297601	5.382473	0.761669	-0.080239	0.642040	0.034730
41336	-10.184121	-1.414878	4.753712	0.746209	-0.073738	0.661058	0.027137
41337	-11.623994	-0.941315	4.306796	0.728175	-0.062747	0.682273	0.018128
41338	-13.015858	-1.522207	3.058104	0.709384	-0.045135	0.703346	0.006529
41339	-15.863689	-0.979904	3.278389	0.692115	-0.021565	0.721407	-0.009187
41340	-19.057952	0.945229	3.665983	0.681730	0.009081	0.730782	-0.033450
41341	-11.221335	2.207267	3.657696	0.678646	0.041269	0.730254	-0.066825
41342	-6.845201	3.783605	1.790911	0.676304	0.066582	0.726696	-0.100465
41343	-10.787498	13.397868	20.316882	0.696699	0.083812	0.703367	-0.113406
41344	7.821515	-5.815608	12.364165	0.730805	0.102050	0.662947	-0.126534
41345	4.880197	0.443005	8.836661	0.761257	0.124282	0.619146	-0.147308
41346	2.729628	-0.798840	8.538193	0.789538	0.138995	0.575631	-0.161118
41347	0.788590	-4.650826	7.834682	0.813966	0.156232	0.533506	-0.168590
41348	-5.213642	-1.861814	7.445026	0.835191	0.174011	0.493943	-0.167920
41349	-25.257220	-7.182600	4.222716	0.855820	0.180064	0.456805	-0.162721
41350	-25.087155	-12.064694	-3.497913	0.874734	0.179023	0.418772	-0.165594
41351	-22.149408	-3.887058	-5.964376	0.888860	0.173510	0.389948	-0.166624
41352	-21.070690	-1.170650	-8.645923	0.898990	0.165840	0.372763	-0.159257
41353	-25.129122	-2.572374	-11.179870	0.903991	0.158289	0.366695	-0.152577
41354	-13.421955	9.269560	-2.450507	0.906637	0.151253	0.367685	-0.141208
41355	0.239760	0.048624	7.709687	0.909225	0.131188	0.374602	-0.125588
41356	-10.704618	-3.217356	9.313939	0.912353	0.121487	0.371067	-0.123134
41357	-7.221801	15.464232	4.570349	0.916325	0.111871	0.362210	-0.128989
41358	-6.663961	3.589022	8.246689	0.920346	0.100031	0.350020	-0.142978
41359	-6.919042	-2.272117	8.597133	0.924640	0.088341	0.334260	-0.159709
41360	-4.970267	-9.664350	11.107552	0.928446	0.082624	0.321884	-0.165989
41361	-5.103694	-3.503938	8.989390	0.930813	0.084414	0.316106	-0.162904
41362	-6.541194	3.335236	7.668033	0.932507	0.088429	0.311340	-0.160243
41363	-5.034624	2.876290	9.547595	0.933307	0.089968	0.308105	-0.160984
41364	-5.228708	-0.247616	9.127154	0.932134	0.092748	0.309971	-0.162608
41365	-6.363763	-0.297037	7.165813	0.930687	0.096768	0.313454	-0.161879
41366	-6.554151	0.019668	6.781858	0.930147	0.100704	0.314905	-0.159753
41367	-6.025687	1.593484	7.203366	0.930130	0.103932	0.315067	-0.157445
41368	-6.044470	1.621846	7.644677	0.930191	0.106132	0.314794	-0.156160
41369	-5.860560	1.720319	8.178113	0.929907	0.107756	0.315295	-0.155724
41370	-6.193198	0.854040	7.772251	0.929237	0.108594	0.317296	-0.155080
41371	-6.513646	0.319827	6.907257	0.929141	0.109342	0.317768	-0.154158
41372	-6.536310	1.478678	7.002110	0.929646	0.109507	0.316873	-0.152834
41373	-6.429552	2.613707	7.099794	0.930567	0.107723	0.314760	-0.152862
41374	-6.043913	1.365668	7.919484	0.931696	0.104096	0.311864	-0.154428
41375	-5.807612	1.126055	8.186659	0.932519	0.100563	0.309703	-0.156137
41376	-5.849445	0.467869	8.225917	0.933101	0.097264	0.308268	-0.157584
41377	-5.652414	0.019535	8.128596	0.933484	0.094927	0.307396	-0.158443
41378	-5.768810	0.540479	7.760740	0.933716	0.093345	0.306921	-0.158937
41379	-5.800369	0.743932	7.917592	0.933879	0.091829	0.306589	-0.159500
41380	-5.681414	0.165909	7.967787	0.933974	0.090489	0.306380	-0.160109
41381	-5.666642	0.681875	8.126239	0.933878	0.089634	0.306597	-0.160736
41382	-5.673638	0.638260	7.934190	0.933584	0.088785	0.307331	-0.161511
41383	-6.146135	0.869781	7.456796	0.933332	0.087750	0.307991	-0.162272
41384	-5.824325	1.067466	7.847100	0.933137	0.086293	0.308419	-0.163362
41385	-5.660795	0.570081	7.936782	0.932799	0.084764	0.309099	-0.164799
41386	-5.730894	0.262868	7.944727	0.932234	0.083795	0.310324	-0.166181
41387	-5.664878	0.139868	8.245357	0.931437	0.083381	0.312032	-0.167658
41388	-6.059516	0.279505	7.861845	0.930334	0.083655	0.314487	-0.169050
41389	-6.261035	0.352449	7.445088	0.929134	0.084096	0.317038	-0.170657
41390	-6.089480	0.388222	7.721648	0.927881	0.084666	0.319587	-0.172431
41391	-6.372842	0.229080	7.559171	0.926612	0.085114	0.321930	-0.174664
41392	-6.294406	-0.048897	7.867974	0.925162	0.086377	0.323985	-0.177901
41393	-5.967453	-0.201470	7.767548	0.922935	0.090754	0.324806	-0.185625
41394	-6.467024	1.639789	7.243936	0.919262	0.097133	0.323474	-0.202205
41395	-6.622085	-0.484216	6.811734	0.914372	0.103229	0.320583	-0.224708
41396	-6.695826	-2.359825	6.822821	0.909498	0.107720	0.317294	-0.246037
41397	-5.723085	-0.695256	6.928748	0.906582	0.111179	0.314350	-0.258713
41398	-5.590182	2.760002	7.939880	0.906207	0.113143	0.312500	-0.261404
41399	-5.627334	3.104210	8.220307	0.906087	0.113113	0.312228	-0.262156
41400	-6.271157	0.728994	7.324481	0.905791	0.111614	0.312599	-0.263376
41401	-6.465340	-0.004184	6.964042	0.905892	0.109805	0.312182	-0.264283
41402	-6.378675	0.856924	7.236734	0.906356	0.107641	0.310822	-0.265183
41403	-6.024141	0.791521	7.776336	0.906814	0.104716	0.309407	-0.266440
41404	-5.909417	-0.050438	7.819689	0.907161	0.101773	0.308289	-0.267694
41405	-5.952339	-0.411969	7.740903	0.907557	0.099507	0.307172	-0.268484
41406	-5.943703	-0.297004	7.751403	0.908022	0.098118	0.305984	-0.268781
41407	-5.829669	-0.363632	8.012618	0.908450	0.097179	0.304996	-0.268799
41408	-5.814311	-0.404371	8.022727	0.908719	0.096978	0.304389	-0.268648
41409	-5.830627	-0.109387	7.870948	0.908894	0.097254	0.304036	-0.268356
41410	-5.850239	0.011329	7.831793	0.909088	0.097856	0.303692	-0.267870
41411	-5.832639	0.230456	7.886064	0.909234	0.098574	0.303507	-0.267322
41412	-5.842898	0.148209	7.797915	0.909346	0.099386	0.303425	-0.266730
41413	-5.829560	0.078700	7.863531	0.909455	0.100448	0.303425	-0.265961
41414	-5.865557	0.372984	7.813374	0.909543	0.101598	0.303469	-0.265172
41415	-5.942726	0.290404	7.762770	0.909618	0.102662	0.303569	-0.264390
41416	-5.997610	0.249327	7.736553	0.909740	0.103761	0.303585	-0.263522
41417	-5.973726	0.179847	7.799156	0.909914	0.104990	0.303601	-0.262412
41418	-6.040077	0.051412	7.786197	0.910076	0.106547	0.303618	-0.261200
41419	-6.050617	-0.138954	7.868902	0.910239	0.108830	0.303708	-0.259580
41420	-6.142834	0.015595	7.788445	0.910437	0.111649	0.303859	-0.257505
41421	-6.226223	0.144592	7.651713	0.910750	0.114744	0.303866	-0.255017
41422	-5.661132	0.960101	7.902988	0.911169	0.117818	0.303706	-0.252293
41423	-5.554808	1.637938	7.579981	0.911644	0.119439	0.303430	-0.250141
41424	-5.712248	1.604129	7.378746	0.912351	0.118720	0.302831	-0.248627
41425	-5.997533	1.555137	7.847276	0.913439	0.115691	0.301751	-0.247368
41426	-6.018081	0.354613	7.921984	0.914682	0.112300	0.300393	-0.245986
41427	-6.094898	-0.359366	7.917114	0.915632	0.110450	0.299708	-0.244120
41428	-5.888974	0.160118	7.853475	0.916319	0.109503	0.299623	-0.242064
41429	-6.022081	0.705172	7.877255	0.916552	0.109185	0.300480	-0.240255
41430	-5.910293	0.328322	7.784206	0.916660	0.108917	0.301426	-0.238775
41431	-6.313245	1.033133	7.446773	0.916913	0.108454	0.301886	-0.237429
41432	-6.519806	0.623751	7.220284	0.917673	0.107483	0.300895	-0.236190
41433	-7.450108	2.293697	7.691975	0.918756	0.106034	0.299443	-0.234473
41434	-7.722666	2.661943	7.245290	0.920686	0.103796	0.297706	-0.230075
41435	-8.254466	8.732634	5.225198	0.924398	0.101310	0.298040	-0.215397
41436	-10.231303	11.306879	2.731284	0.931140	0.095243	0.303661	-0.178037
41437	-8.383676	-3.520978	5.297856	0.937600	0.087741	0.308602	-0.134061
41438	-3.769785	-9.833764	8.867174	0.941442	0.080323	0.311116	-0.102185
41439	1.391065	-7.068877	12.366348	0.943294	0.075495	0.310230	-0.090854
41440	-3.746376	0.608538	8.866571	0.943789	0.071611	0.308845	-0.093538
41441	-6.654564	-1.820751	8.148878	0.944550	0.067262	0.306987	-0.095189
41442	-5.524289	-0.007299	8.466409	0.945095	0.064896	0.305248	-0.096988
41443	-5.762443	-0.603534	8.062592	0.945705	0.062904	0.303207	-0.098740
41444	-5.640514	-0.018271	8.210218	0.946007	0.061472	0.302150	-0.099985
41445	-5.952072	-0.093290	8.239837	0.946200	0.060366	0.301569	-0.100583
41446	-5.985964	0.640144	8.040929	0.946249	0.059418	0.301515	-0.100851
41447	-5.888568	1.157692	7.733499	0.946319	0.058463	0.301425	-0.101021
41448	-5.509673	1.613507	7.993149	0.946461	0.057267	0.301129	-0.101256
41449	-5.708813	0.911079	7.816683	0.946702	0.055630	0.300634	-0.101392
41450	-5.980678	1.016282	7.869402	0.947060	0.053769	0.299729	-0.101725
41451	-5.742828	0.128046	8.083388	0.947361	0.052298	0.298730	-0.102623
41452	-5.830116	0.344312	7.884014	0.947598	0.051320	0.297835	-0.103535
41453	-5.569223	0.641127	7.973011	0.947874	0.050371	0.296796	-0.104448
41454	-5.593910	0.598697	7.785277	0.948230	0.049224	0.295475	-0.105500
41455	-5.684149	0.470849	7.822365	0.948729	0.047888	0.293729	-0.106500
41456	-5.467445	0.265315	8.014391	0.949317	0.046514	0.291758	-0.107292
41457	-5.495938	0.178974	8.058325	0.949912	0.045124	0.289930	-0.107567
41458	-5.464185	0.250199	8.035984	0.950529	0.043796	0.288189	-0.107350
41459	-5.197677	0.665568	7.958354	0.951181	0.042305	0.286341	-0.107117
41460	-5.341849	0.278127	8.077907	0.951810	0.040579	0.284537	-0.107005
41461	-5.035801	0.454056	8.512419	0.952276	0.038962	0.283180	-0.107062
41462	-5.074478	0.444962	8.533537	0.952448	0.037255	0.282655	-0.107521
41463	-4.888598	1.188994	9.448002	0.952248	0.035423	0.283105	-0.108724
41464	-4.946897	1.416562	10.129543	0.951157	0.033094	0.286108	-0.111122
41465	-4.318985	1.229571	12.453080	0.948354	0.029797	0.294502	-0.114043
41466	-3.622748	1.713108	15.356378	0.942452	0.025328	0.311979	-0.117520
41467	-2.766768	4.633347	20.492445	0.931112	0.016812	0.343562	-0.121300
41468	-1.604108	7.358471	25.553236	0.909908	-0.000767	0.394373	-0.128593
41469	-7.771893	14.257295	29.175625	0.872830	-0.031299	0.465988	-0.141574
41470	-14.690543	17.190519	26.951906	0.828904	-0.072970	0.534308	-0.148686
41471	-18.176637	21.501804	16.103998	0.779217	-0.132110	0.598055	-0.133036
41472	-68.169652	-0.680037	19.410667	0.765678	-0.153424	0.620648	-0.070670
41473	-6.964325	-1.100968	13.519232	0.769614	-0.164297	0.616999	-0.003655
41474	-15.591442	-15.296010	12.547070	0.769938	-0.168011	0.614625	0.034704
41475	-16.296865	-2.353600	14.461534	0.780934	-0.168432	0.598303	0.061697
41476	-9.283747	-4.170008	11.039693	0.791489	-0.172737	0.579736	0.087252
41477	-13.199511	-4.807872	10.886201	0.804260	-0.171152	0.558460	0.109523
41478	-11.139268	-4.088550	10.742923	0.819023	-0.168205	0.532327	0.132426
41479	-12.485576	-5.903877	10.369191	0.833865	-0.167065	0.501880	0.157720
41480	-11.680979	-8.379750	8.937576	0.849657	-0.168072	0.466113	0.180482
41481	-11.060246	-10.154368	9.415723	0.866151	-0.171149	0.426892	0.195585
41482	-11.343558	-8.958462	11.103858	0.883192	-0.174926	0.383308	0.206027
41483	-8.624566	-8.079165	12.307143	0.899074	-0.180327	0.335479	0.215875
41484	-6.796315	-7.235749	13.619791	0.912243	-0.186797	0.284545	0.227933
41485	-4.903737	-6.114913	15.144163	0.921324	-0.196367	0.232317	0.242137
41486	-6.968992	-3.928337	18.514558	0.926472	-0.210194	0.177363	0.256925
41487	-7.507792	-3.707187	19.773311	0.928456	-0.226075	0.117845	0.270135
41488	-8.320392	-2.079953	19.005858	0.927837	-0.241638	0.054788	0.278799
41489	-9.727847	0.466549	17.453900	0.923946	-0.258433	-0.011558	0.281783
41490	-10.255264	3.776530	15.853493	0.915373	-0.275856	-0.077646	0.282782
41491	-19.558739	11.334244	18.203975	0.900184	-0.296633	-0.139680	0.286649
41492	-25.734013	20.623525	17.953592	0.872972	-0.326842	-0.205558	0.298061
41493	-26.014569	22.514949	14.092225	0.833999	-0.370897	-0.268946	0.307489
41494	-30.087747	26.279081	11.055192	0.784706	-0.420825	-0.327651	0.315890
41495	-27.638508	26.121129	6.587507	0.727975	-0.469252	-0.381622	0.322832
41496	-15.595903	25.052638	-2.610203	0.672812	-0.506334	-0.426428	0.330318
41497	-18.913500	22.584278	-5.240901	0.633407	-0.531001	-0.449457	0.338854
41498	-17.187356	10.827731	-12.697738	0.611430	-0.540426	-0.456996	0.353903
41499	-19.185821	-14.077244	-14.210389	0.616554	-0.528345	-0.447650	0.374596
41500	-21.524787	-11.681941	-7.500042	0.629508	-0.504976	-0.449023	0.383534
41501	-11.202642	-12.921605	-6.164952	0.640759	-0.483296	-0.463045	0.376089
41502	-3.842534	-2.521179	-4.085667	0.648889	-0.470291	-0.473784	0.365101
41503	3.863407	5.984418	-1.435382	0.647270	-0.476400	-0.479383	0.352528
41504	5.246314	2.825450	1.909223	0.639110	-0.498932	-0.475451	0.341396
41505	3.409531	-4.085763	5.083267	0.631813	-0.518724	-0.465714	0.338892
41506	2.238366	-8.947079	5.819927	0.631378	-0.525636	-0.458470	0.338931
41507	2.398450	-8.167642	4.774334	0.635267	-0.520783	-0.458926	0.338537
41508	4.531018	-5.982021	0.287458	0.641731	-0.510957	-0.462695	0.336182
41509	1.224162	-1.808361	-3.199529	0.649651	-0.501627	-0.462450	0.335355
41510	-2.875396	-0.572249	-6.217627	0.657917	-0.495973	-0.455529	0.337119
41511	-7.678534	-2.655069	-5.798867	0.668928	-0.490847	-0.443629	0.338817
41512	-11.414955	-6.006276	-3.572372	0.685231	-0.479559	-0.430427	0.339431
41513	-13.050634	-5.077487	-1.496443	0.708332	-0.460435	-0.416655	0.335655
41514	-16.978891	0.486717	1.038725	0.735028	-0.436827	-0.402551	0.326908
41515	-15.855626	3.710474	2.244824	0.763282	-0.413560	-0.384488	0.313908
41516	-17.094821	6.489098	4.266232	0.791267	-0.393312	-0.359431	0.300019
41517	-14.128596	4.405560	6.251953	0.817959	-0.377431	-0.326804	0.285811
41518	-15.450457	3.352717	8.499860	0.844210	-0.359697	-0.288515	0.273286
41519	-14.215907	2.520327	9.229398	0.869404	-0.340644	-0.246787	0.259221
41520	-14.007896	2.725187	11.297291	0.892070	-0.321831	-0.202781	0.243958
41521	-11.767949	4.496424	12.955044	0.910438	-0.306598	-0.156279	0.229516
41522	-9.843296	3.717653	13.868023	0.924235	-0.294303	-0.106094	0.218905
41523	-6.523705	3.600180	13.962425	0.934359	-0.281852	-0.052358	0.211639
41524	-4.735847	2.142933	15.018250	0.941005	-0.267649	0.004411	0.207011
41525	-2.505180	1.400815	15.581830	0.943865	-0.251773	0.062020	0.204652
41526	-1.600844	-1.554923	15.706781	0.944201	-0.232209	0.118503	0.201298
41527	-0.608520	-1.319300	15.873551	0.943572	-0.206590	0.171465	0.193887
41528	0.642944	-0.402105	16.320140	0.941720	-0.178644	0.219157	0.182261
41529	2.463729	-1.533329	16.202296	0.938848	-0.147878	0.260776	0.169389
41530	3.326852	-2.558523	16.325429	0.935031	-0.115482	0.296700	0.156044
41531	3.589190	-4.321816	16.225871	0.931475	-0.083336	0.324894	0.140902
41532	3.941027	-5.322659	16.034474	0.929382	-0.053203	0.344192	0.122269
41533	3.615190	-5.419508	17.790972	0.929247	-0.025519	0.354624	0.100448
41534	3.108762	-4.323828	19.779778	0.930743	-0.001735	0.356869	0.079741
41535	2.627188	-3.807254	20.585905	0.933287	0.015788	0.353210	0.063001
41536	0.849845	-2.659541	21.255481	0.936425	0.028824	0.346229	0.049024
41537	-2.093996	-0.369327	22.220123	0.940767	0.038343	0.334889	0.036556
41538	-3.900122	1.440088	21.509008	0.946481	0.045290	0.318636	0.024381
41539	-4.149670	2.332897	20.036393	0.952527	0.051760	0.299673	0.014444
41540	-5.011719	2.961085	19.436228	0.957968	0.058877	0.280630	0.008856
41541	-7.941283	2.098486	20.755219	0.963133	0.066113	0.260692	0.006606
41542	-10.249151	2.329706	20.633845	0.968492	0.072533	0.238210	0.004279
41543	-9.433720	2.192117	18.932499	0.973571	0.076381	0.215229	0.001161
41544	-7.886392	2.896725	16.793052	0.977907	0.077908	0.193982	0.000088
41545	-6.467470	1.782945	15.993984	0.981446	0.077123	0.175533	0.002167
41546	-6.119467	2.076337	15.202349	0.984472	0.074844	0.158689	0.005593
41547	-4.887809	2.016132	14.905684	0.986992	0.070601	0.144183	0.008530
41548	-5.561982	3.895601	14.073179	0.989001	0.065713	0.132061	0.010927
41549	-4.128580	4.218848	11.506580	0.990481	0.060304	0.123134	0.012213
41550	-3.264384	2.611259	10.228919	0.991170	0.057682	0.118915	0.010673
41551	-3.647788	1.201518	9.618493	0.991223	0.058752	0.118299	0.005478
41552	-8.171222	-0.782672	10.458965	0.990990	0.062979	0.118172	-0.002817
41553	-7.058160	-0.537723	8.521916	0.991078	0.069285	0.113321	-0.011054
41554	0.376702	-14.037650	6.241577	0.990166	0.087798	0.106666	-0.022045
41555	10.382214	19.800424	10.318352	0.986249	0.117735	0.109594	-0.037963
41556	0.061301	10.361884	5.979888	0.981083	0.135247	0.124309	-0.061079
41557	-13.663854	13.951777	6.253282	0.977142	0.145253	0.135864	-0.075077
41558	-3.963110	15.056056	6.236200	0.974800	0.147627	0.145723	-0.082075
41559	-4.965665	12.294670	6.412568	0.973356	0.143543	0.159046	-0.081714
41560	-6.223501	6.642341	8.693608	0.972051	0.136458	0.175701	-0.075002
41561	-5.171539	-1.373782	9.796958	0.970912	0.127899	0.190304	-0.068971
41562	-5.060660	-4.540097	10.132976	0.968980	0.124263	0.203629	-0.064585
41563	-5.766266	-1.621008	10.297090	0.966456	0.125338	0.215643	-0.061248
41564	-7.525348	-0.625502	10.306399	0.963991	0.128483	0.224963	-0.060042
41565	-5.478279	2.695408	8.824812	0.961709	0.132267	0.232546	-0.059526
41566	-5.722259	4.624741	8.062229	0.959434	0.135330	0.240934	-0.055888
41567	-5.594152	3.537658	7.972793	0.957682	0.136838	0.247927	-0.051507
41568	-5.414750	3.588935	8.034523	0.956054	0.136657	0.255168	-0.046625
41569	-5.402709	1.456769	8.513371	0.954924	0.134987	0.260959	-0.042408
41570	-6.684849	1.278712	8.948711	0.953828	0.133405	0.266264	-0.038963
41571	-5.154780	2.409358	7.967884	0.953166	0.131062	0.269980	-0.037533
41572	-5.110798	3.010192	7.612959	0.952581	0.127266	0.273921	-0.036869
41573	-2.992879	4.347648	6.884094	0.952019	0.121363	0.278516	-0.036864
41574	-4.263962	2.802775	7.581022	0.951321	0.111725	0.284613	-0.038748
41575	-8.381784	0.055867	8.869480	0.950560	0.103608	0.289809	-0.041380
41576	-6.854732	0.695028	8.577062	0.950002	0.099553	0.292781	-0.043187
41577	-6.873179	-0.293098	8.478685	0.949576	0.097893	0.294625	-0.043801
41578	-6.210643	0.577031	8.191851	0.949269	0.097752	0.295694	-0.043576
41579	-5.988484	1.206276	7.903958	0.949059	0.098710	0.296140	-0.042935
41580	-5.762982	1.882620	7.761264	0.948916	0.099547	0.296394	-0.042413
41581	-5.716680	1.993770	7.706272	0.948856	0.099845	0.296506	-0.042287
41582	-5.882220	1.406036	7.835295	0.948861	0.100154	0.296370	-0.042393
41583	-6.202241	0.682626	8.184646	0.948930	0.101292	0.295772	-0.042315
41584	-5.866844	1.056995	8.022638	0.949055	0.103449	0.294673	-0.041953
41585	-5.686893	1.148599	8.033743	0.949189	0.105917	0.293387	-0.041783
41586	-5.633057	1.865715	7.660994	0.949381	0.108287	0.291827	-0.042277
41587	-4.816469	2.844040	7.324754	0.949577	0.109691	0.290418	-0.043909
41588	-3.757980	3.770001	7.221056	0.949507	0.109096	0.290608	-0.045622
41589	-5.512002	1.102137	8.088671	0.949267	0.107005	0.291986	-0.046759
41590	-5.857245	1.202697	8.104451	0.949033	0.105573	0.293146	-0.047492
41591	-5.739376	1.364384	7.927787	0.948832	0.104575	0.294071	-0.048007
41592	-5.533176	1.858363	7.749476	0.948650	0.103537	0.294971	-0.048334
41593	-5.976417	1.318621	7.955762	0.948535	0.102619	0.295628	-0.048530
41594	-6.209056	1.074288	7.958557	0.948618	0.102829	0.295293	-0.048499
41595	-5.694268	1.392674	7.972185	0.948741	0.103435	0.294718	-0.048291
41596	-5.814112	0.958034	8.146418	0.948892	0.104398	0.293972	-0.047795
41597	-6.072465	0.753376	8.162843	0.949105	0.106270	0.292718	-0.047146
41598	-5.823073	1.345966	7.899125	0.949395	0.108890	0.290898	-0.046583
41599	-5.535435	2.080579	7.742693	0.949723	0.111303	0.288920	-0.046511
41600	-5.668872	1.823405	8.021812	0.950083	0.113378	0.286871	-0.046816
41601	-5.938126	1.130420	8.264120	0.950514	0.116006	0.284289	-0.047390
41602	-7.463313	0.730106	8.631901	0.951113	0.120053	0.280386	-0.048531
41603	-7.391957	0.207651	8.776777	0.952188	0.126141	0.273360	-0.051969
41604	-6.929487	1.209442	8.470080	0.953394	0.133002	0.264500	-0.058215
41605	-9.291252	2.002217	10.103538	0.955146	0.137073	0.253553	-0.067956
41606	-9.031086	-1.535373	11.529239	0.957891	0.138038	0.237333	-0.084040
41607	-10.108494	-3.064129	11.652873	0.960679	0.137467	0.216337	-0.106758
41608	-11.097931	-3.785360	10.920301	0.962404	0.137649	0.190879	-0.135635
41609	-10.437239	-2.755518	9.951387	0.962137	0.139169	0.162388	-0.168983
41610	-10.173283	-1.926947	8.538095	0.959081	0.142007	0.132086	-0.206277
41611	-9.099590	-1.265896	7.621548	0.952742	0.145298	0.101565	-0.246691
41612	-7.763482	-0.808272	5.894794	0.942600	0.149855	0.072790	-0.289396
41613	-9.857232	-0.604954	3.110076	0.928014	0.156947	0.048648	-0.334352
41614	-9.550861	2.219506	-1.312908	0.909770	0.168550	0.032522	-0.377957
41615	-13.153109	5.374625	1.067442	0.893881	0.172582	0.026973	-0.412874
41616	-10.959341	3.099933	0.901340	0.880334	0.175475	0.027163	-0.439866
41617	-10.004153	3.209417	2.234992	0.867774	0.181848	0.031332	-0.461430
41618	-9.351970	4.558491	4.586840	0.857195	0.187797	0.039067	-0.477936
41619	-8.466020	3.029463	5.851701	0.849012	0.191629	0.049484	-0.489906
41620	-7.899024	2.099939	6.418731	0.841793	0.195350	0.061301	-0.499466
41621	-7.928660	1.514494	6.898294	0.834150	0.198788	0.073612	-0.509173
41622	-8.362252	1.179906	7.500178	0.825456	0.202159	0.085496	-0.520043
41623	-7.974783	1.324350	7.845214	0.815758	0.205128	0.096296	-0.532155
41624	-7.269331	1.533137	7.746955	0.804589	0.208206	0.107057	-0.545734
41625	-6.921200	1.806781	7.905617	0.791693	0.211685	0.117567	-0.560883
41626	-6.519047	2.544535	8.387865	0.777092	0.215614	0.127601	-0.577370
41627	-6.252322	3.401046	9.024581	0.761198	0.219152	0.136717	-0.594860
41628	-5.618215	3.285674	9.432343	0.744965	0.222027	0.144405	-0.612274
41629	-5.172340	3.412914	9.708235	0.728753	0.225024	0.150288	-0.629044
41630	-4.469454	3.295661	9.690277	0.712767	0.227373	0.155593	-0.645024
41631	-4.513744	2.882879	9.937752	0.696818	0.229462	0.160217	-0.660396
41632	-4.151786	3.446485	10.037863	0.680641	0.230995	0.164118	-0.675599
41633	-4.309235	3.650876	10.172478	0.664121	0.231657	0.167583	-0.690792
41634	-3.932219	3.445138	10.104855	0.647391	0.231815	0.169605	-0.705961
41635	-3.960227	3.202903	10.116539	0.630304	0.232065	0.169541	-0.721193
41636	-3.310359	3.287444	9.833440	0.612678	0.232071	0.167530	-0.736683
41637	-2.869740	3.640809	9.819528	0.593945	0.231158	0.164997	-0.752710
41638	-2.740094	3.780456	9.947234	0.573738	0.228614	0.162806	-0.769451
41639	-2.259723	4.482396	9.416711	0.551453	0.224367	0.162049	-0.786956
41640	-1.133820	4.491055	8.486787	0.525996	0.219173	0.165583	-0.804906
41641	-1.533951	4.556418	8.198655	0.497130	0.213892	0.173591	-0.822787
41642	-2.614708	3.464740	8.306476	0.465765	0.208906	0.183724	-0.840040
41643	-4.796253	3.312005	8.630062	0.433459	0.205754	0.192763	-0.855933
41644	-7.188576	2.745461	8.545656	0.402244	0.202941	0.198566	-0.870394
41645	-8.300147	2.802564	7.404450	0.374826	0.200803	0.196709	-0.883453
41646	-7.266465	5.651159	5.773344	0.351608	0.200127	0.189726	-0.894609
41647	-6.064835	6.944602	4.516699	0.331574	0.201644	0.184227	-0.903027
41648	-6.249102	6.303067	3.723293	0.314647	0.206961	0.181150	-0.908487
41649	-8.172497	7.030970	3.558244	0.301005	0.215187	0.180109	-0.911401
41650	-7.359220	5.574859	4.220562	0.290560	0.223012	0.182217	-0.912490
41651	-1.368199	0.633188	14.045128	0.288521	0.232070	0.182939	-0.910732
41652	-11.204496	-12.282750	16.735189	0.295786	0.242611	0.169228	-0.908302
41653	-2.111569	-11.182464	0.326328	0.301340	0.253371	0.141538	-0.908276
41654	-3.019795	4.370810	14.608994	0.308467	0.265107	0.109512	-0.906959
41655	-15.488911	25.428657	11.268629	0.311673	0.282736	0.102414	-0.901350
41656	-4.550321	-8.347343	10.401373	0.311650	0.281060	0.096288	-0.902556
41657	-8.073787	3.690660	6.039152	0.313117	0.285404	0.092938	-0.901035
41658	-5.185218	0.177892	7.746823	0.314169	0.290010	0.089696	-0.899526
41659	-5.108531	0.012619	8.415900	0.314972	0.292261	0.086464	-0.898833
41660	-6.160007	1.321826	7.859273	0.315672	0.294393	0.083847	-0.898139
41661	-5.561660	0.240098	8.231009	0.316340	0.295537	0.081539	-0.897741
41662	-5.707695	0.240722	8.209841	0.317193	0.297197	0.079438	-0.897080
41663	-5.737108	0.826995	8.047147	0.318083	0.298715	0.077464	-0.896433
41664	-5.568114	1.027600	7.974347	0.318773	0.299817	0.075958	-0.895949
41665	-5.606956	1.324429	7.922625	0.319153	0.300614	0.075112	-0.895617
41666	-5.613119	1.004187	8.012867	0.319156	0.301038	0.074976	-0.895486
41667	-5.577692	0.703904	8.107547	0.319041	0.301684	0.075238	-0.895287
41668	-5.491557	0.617958	8.027888	0.318916	0.302332	0.075682	-0.895075
41669	-5.594309	0.906069	7.918994	0.318776	0.303081	0.076304	-0.894819
41670	-5.488621	0.666643	7.956158	0.318565	0.303439	0.077099	-0.894705
41671	-5.656843	0.811730	7.911732	0.318381	0.303857	0.077882	-0.894561
41672	-5.591989	0.565052	7.952034	0.318275	0.304291	0.078445	-0.894402
41673	-5.660834	0.746991	7.877590	0.318215	0.304696	0.078762	-0.894257
41674	-5.662710	0.680691	7.878068	0.318170	0.305035	0.078930	-0.894143
41675	-5.653449	0.577414	7.925534	0.318169	0.305208	0.078929	-0.894084
41676	-5.532445	0.423815	8.053425	0.318221	0.305595	0.078787	-0.893946
41677	-5.673222	0.641800	7.963193	0.318299	0.306165	0.078745	-0.893727
41678	-5.720405	0.646933	7.854079	0.318378	0.306495	0.078927	-0.893570
41679	-5.759585	0.647298	7.878147	0.318513	0.306603	0.079159	-0.893464
41680	-5.706714	0.710425	7.946621	0.318633	0.306699	0.079299	-0.893376
41681	-5.740251	0.672886	7.886786	0.318744	0.306769	0.079455	-0.893298
41682	-5.704829	0.641602	7.950034	0.318906	0.306677	0.079643	-0.893255
41683	-5.610996	0.611905	7.991825	0.319025	0.306644	0.079958	-0.893196
41684	-5.721750	0.731137	7.898153	0.319069	0.306552	0.080470	-0.893166
41685	-5.651546	0.762199	7.889454	0.319080	0.306324	0.081127	-0.893181
41686	-5.609460	0.797781	7.890950	0.319021	0.305795	0.081842	-0.893318
41687	-5.630861	0.556508	7.970883	0.318893	0.305294	0.082687	-0.893457
41688	-5.664750	0.613970	7.891213	0.318770	0.304794	0.083581	-0.893589
41689	-5.684432	0.637530	7.870677	0.318667	0.304148	0.084311	-0.893777
41690	-5.604535	0.662470	7.933178	0.318566	0.303468	0.084871	-0.893991
41691	-5.606539	0.611047	7.970734	0.318474	0.302904	0.085482	-0.894157
41692	-5.646421	0.637310	7.925171	0.318361	0.302378	0.086140	-0.894312
41693	-5.685657	0.547160	7.857908	0.318251	0.301720	0.086665	-0.894523
41694	-5.603501	0.550710	7.946824	0.318110	0.301003	0.086952	-0.894787
41695	-5.565472	0.426812	8.067241	0.317965	0.300395	0.087074	-0.895030
41696	-5.525993	0.411161	8.128831	0.317832	0.300127	0.087124	-0.895162
41697	-5.580450	0.509084	8.062679	0.317639	0.300157	0.087134	-0.895220
41698	-5.602990	0.530198	8.042815	0.317393	0.300323	0.087234	-0.895242
41699	-5.559273	0.587884	8.032972	0.317028	0.300492	0.087440	-0.895294
41700	-5.502928	0.607695	8.112056	0.316458	0.300845	0.087737	-0.895349
41701	-5.474056	0.403216	8.229086	0.315642	0.301518	0.088150	-0.895370
41702	-5.534169	0.293802	8.266754	0.314826	0.302942	0.088733	-0.895118
41703	-5.579242	0.297470	8.245064	0.313798	0.305050	0.089395	-0.894697
41704	-5.563968	0.372984	8.214830	0.312639	0.307824	0.090047	-0.894088
41705	-5.667139	0.409956	8.177995	0.311129	0.311396	0.090708	-0.893310
41706	-5.778918	0.505324	8.092598	0.309270	0.315721	0.091310	-0.892376
41707	-5.714612	0.217942	8.261991	0.307261	0.321046	0.091976	-0.891101
41708	-5.743019	0.668078	8.504180	0.305011	0.327567	0.092974	-0.889395
41709	-5.793693	0.698427	8.655186	0.302309	0.335716	0.094739	-0.887090
41710	-5.831738	0.766581	8.608768	0.299138	0.345663	0.097138	-0.884080
41711	-5.956411	0.823437	8.600112	0.295411	0.357620	0.100306	-0.880215
41712	-5.959874	0.758815	8.554590	0.291056	0.371948	0.104640	-0.875210
41713	-6.034484	0.681885	8.327802	0.286300	0.388551	0.110304	-0.868846
41714	-6.251325	0.816779	8.027527	0.281046	0.407263	0.117359	-0.861033
41715	-6.511535	0.841859	7.596910	0.275112	0.428053	0.126180	-0.851565
41716	-6.783675	0.732685	6.946366	0.268135	0.450539	0.136551	-0.840519
41717	-7.249093	0.388567	6.359339	0.259954	0.474519	0.147650	-0.827922
41718	-7.874656	0.241622	5.818556	0.251303	0.498622	0.159187	-0.814176
41719	-8.236920	-0.444528	4.688074	0.242375	0.522680	0.169190	-0.799647
41720	-9.749266	-0.544284	4.363828	0.232707	0.546879	0.175058	-0.784937
41721	-11.370819	0.080396	4.283199	0.221980	0.569692	0.176255	-0.771434
41722	-10.744199	0.862674	3.872997	0.209628	0.590267	0.175061	-0.759601
41723	-10.966674	1.019679	3.474243	0.194838	0.609508	0.172367	-0.748884
41724	-11.497039	0.996140	3.853682	0.177418	0.627029	0.168330	-0.739610
41725	-10.576012	1.058875	4.164131	0.157737	0.642344	0.163097	-0.732061
41726	-10.401558	1.629194	4.405731	0.135756	0.655220	0.158056	-0.726137
41727	-8.792159	1.353287	3.315544	0.112371	0.665826	0.154550	-0.721223
41728	-6.687716	1.137037	3.411795	0.088035	0.675690	0.152502	-0.715847
41729	-9.503563	1.444901	10.577604	0.066170	0.679629	0.150052	-0.714990
41730	-8.334253	1.452200	11.266170	0.048955	0.671456	0.145461	-0.724977
41731	-2.035881	2.216782	8.559115	0.033751	0.658006	0.138987	-0.739305
41732	-0.689631	1.963511	7.182765	0.020766	0.643431	0.133308	-0.753521
41733	-0.805375	1.886834	7.080383	0.011516	0.629234	0.128470	-0.766438
41734	-2.351942	1.892402	7.652688	0.007768	0.615422	0.124101	-0.778328
41735	-11.413209	-0.996578	6.404498	0.009162	0.602481	0.118551	-0.789226
41736	-17.272647	-9.994563	0.272486	0.005593	0.580838	0.114869	-0.805854
41737	-11.308125	-3.079103	0.639950	-0.002263	0.558080	0.114749	-0.821811
41738	-9.027994	-1.208373	3.618867	-0.007076	0.537965	0.117841	-0.834660
41739	-5.597469	0.755421	5.357802	-0.004560	0.518500	0.117172	-0.846999
41740	-6.746014	0.804851	4.756457	0.004888	0.501145	0.113099	-0.857927
41741	-8.484531	-1.649886	5.069599	0.016337	0.484060	0.108349	-0.868147
41742	-9.495296	-2.075430	5.648867	0.027867	0.467072	0.104756	-0.877550
41743	-8.334035	-1.827904	6.009345	0.040402	0.451025	0.102249	-0.885714
