// Start Time: Unknown
// Update Rate: 60.0Hz
// Filter Profile: human (46.1)
// Option Flags: AHS Disabled ICC Disabled 
// Firmware Version: 4.3.5
PacketCounter	Acc_X	Acc_Y	Acc_Z	Quat_q0	Quat_q1	Quat_q2	Quat_q3
39183	-9.578444	-1.793601	0.168025	-0.703485	0.033120	-0.703282	0.096984
39184	-9.608299	-1.868207	0.097020	-0.703368	0.033327	-0.703418	0.096778
39185	-9.639717	-1.879209	0.067944	-0.703241	0.033423	-0.703557	0.096658
39186	-9.599289	-1.803392	0.064566	-0.703116	0.033468	-0.703690	0.096587
39187	-9.634950	-1.822541	-0.007147	-0.702987	0.033553	-0.703830	0.096470
39188	-9.615251	-1.843249	-0.043310	-0.702888	0.033511	-0.703935	0.096444
39189	-9.623549	-1.843180	-0.070178	-0.702794	0.033420	-0.704028	0.096483
39190	-9.624486	-1.802027	-0.020522	-0.702730	0.033278	-0.704092	0.096527
39191	-9.604291	-1.825976	-0.019451	-0.702649	0.033129	-0.704166	0.096625
39192	-9.617273	-1.778279	0.025652	-0.702600	0.032983	-0.704214	0.096683
39193	-9.625630	-1.777832	0.000113	-0.702557	0.032923	-0.704262	0.096670
39194	-9.629450	-1.788897	-0.008579	-0.702522	0.032929	-0.704303	0.096626
39195	-9.625528	-1.779167	0.032778	-0.702485	0.032916	-0.704345	0.096591
39196	-9.600836	-1.814646	0.051276	-0.702440	0.032896	-0.704393	0.096571
39197	-9.577871	-1.803262	0.050246	-0.702377	0.032791	-0.704453	0.096629
39198	-9.627344	-1.732672	0.043968	-0.702317	0.032713	-0.704510	0.096674
39199	-9.626285	-1.775186	0.025605	-0.702248	0.032698	-0.704582	0.096658
39200	-9.660508	-1.695870	-0.004035	-0.702226	0.032785	-0.704608	0.096600
39201	-9.638128	-1.804290	-0.070732	-0.702196	0.032961	-0.704650	0.096450
39202	-9.616422	-1.856488	-0.023347	-0.702202	0.033078	-0.704652	0.096350
39203	-9.585678	-1.824743	0.026791	-0.702198	0.033149	-0.704664	0.096266
39204	-9.599776	-1.734480	0.089160	-0.702185	0.033272	-0.704690	0.096133
39205	-9.612729	-1.845897	0.016380	-0.702160	0.033455	-0.704734	0.095931
39206	-9.621284	-1.826325	0.016715	-0.702123	0.033497	-0.704776	0.095876
39207	-9.610180	-1.792472	0.072378	-0.702070	0.033497	-0.704833	0.095846
39208	-9.625581	-1.817086	0.031991	-0.702013	0.033459	-0.704890	0.095853
39209	-9.626522	-1.793038	0.020334	-0.701941	0.033387	-0.704954	0.095931
39210	-9.652600	-1.712919	0.014607	-0.701870	0.033427	-0.705024	0.095927
39211	-9.633375	-1.837072	-0.024617	-0.701817	0.033599	-0.705089	0.095782
39212	-9.628598	-1.851652	0.025619	-0.701761	0.033644	-0.705149	0.095732
39213	-9.592769	-1.744994	0.033671	-0.701692	0.033728	-0.705227	0.095630
39214	-9.631290	-1.747733	0.114957	-0.701611	0.033888	-0.705326	0.095438
39215	-9.612562	-1.867756	0.038447	-0.701485	0.034020	-0.705460	0.095327
39216	-9.561918	-1.842110	0.114187	-0.701318	0.033994	-0.705623	0.095361
39217	-9.607704	-1.759605	0.111835	-0.701122	0.033996	-0.705824	0.095309
39218	-9.598494	-1.833255	-0.010331	-0.700909	0.034049	-0.706045	0.095227
39219	-9.619789	-1.783611	-0.029431	-0.700701	0.034033	-0.706253	0.095222
39220	-9.627032	-1.681452	-0.054802	-0.700514	0.034087	-0.706445	0.095144
39221	-9.650362	-1.829339	-0.153906	-0.700346	0.034268	-0.706629	0.094956
39222	-9.632799	-1.890021	-0.153553	-0.700187	0.034252	-0.706785	0.094971
39223	-9.581441	-1.765242	-0.036868	-0.700064	0.034183	-0.706910	0.094973
39224	-9.609928	-1.727494	0.029056	-0.699912	0.034308	-0.707072	0.094844
39225	-9.620156	-1.783513	-0.023999	-0.699750	0.034493	-0.707248	0.094664
39226	-9.647704	-1.782049	-0.047121	-0.699592	0.034665	-0.707419	0.094488
39227	-9.638839	-1.819938	-0.080464	-0.699432	0.034766	-0.707588	0.094369
39228	-9.612181	-1.796801	-0.077172	-0.699276	0.034849	-0.707752	0.094266
39229	-9.592603	-1.798210	-0.088424	-0.699117	0.034976	-0.707920	0.094134
39230	-9.631218	-1.817330	-0.071373	-0.698960	0.035117	-0.708090	0.093971
39231	-9.627283	-1.820236	-0.130771	-0.698822	0.035234	-0.708241	0.093813
39232	-9.600752	-1.793032	-0.162583	-0.698689	0.035275	-0.708379	0.093746
39233	-9.671809	-1.775853	-0.188586	-0.698598	0.035416	-0.708485	0.093576
39234	-9.644869	-1.890389	-0.276028	-0.698556	0.035506	-0.708539	0.093444
39235	-9.642686	-1.841639	-0.181887	-0.698558	0.035566	-0.708548	0.093338
39236	-9.621598	-1.771109	-0.102402	-0.698610	0.035766	-0.708521	0.093071
39237	-9.587616	-1.868502	-0.101474	-0.698642	0.035979	-0.708516	0.092789
39238	-9.579820	-1.744220	-0.046138	-0.698675	0.036065	-0.708501	0.092624
39239	-9.598683	-1.646176	0.036202	-0.698682	0.036251	-0.708520	0.092352
39240	-9.626762	-1.761615	-0.050625	-0.698661	0.036653	-0.708577	0.091912
39241	-9.642851	-1.883975	-0.132873	-0.698634	0.036863	-0.708624	0.091676
39242	-9.640902	-1.693967	0.018903	-0.698604	0.036989	-0.708677	0.091436
39243	-9.613140	-1.713271	0.007824	-0.698550	0.037439	-0.708770	0.090943
39244	-9.585173	-1.741331	0.066610	-0.698457	0.037979	-0.708908	0.090359
39245	-9.620490	-1.740092	0.019424	-0.698329	0.038528	-0.709074	0.089809
39246	-9.596108	-1.768438	-0.038353	-0.698163	0.039051	-0.709273	0.089301
39247	-9.621228	-1.711852	-0.038541	-0.697960	0.039489	-0.709501	0.088886
39248	-9.641805	-1.799447	-0.153112	-0.697728	0.039922	-0.709751	0.088512
39249	-9.644491	-1.835703	-0.158908	-0.697509	0.040168	-0.709974	0.088340
39250	-9.673527	-1.768559	-0.175440	-0.697285	0.040326	-0.710192	0.088282
39251	-9.611795	-1.874031	-0.128672	-0.697051	0.040407	-0.710422	0.088255
39252	-9.553390	-1.757158	0.047504	-0.696773	0.040488	-0.710689	0.088258
39253	-9.544910	-1.776654	0.036365	-0.696447	0.040744	-0.711018	0.088061
39254	-9.576903	-1.857420	-0.087025	-0.696057	0.040978	-0.711411	0.087856
39255	-9.585185	-1.801672	-0.211926	-0.695678	0.041114	-0.711790	0.087736
39256	-9.619156	-1.786847	-0.371992	-0.695322	0.041355	-0.712156	0.087475
39257	-9.620437	-1.953769	-0.511481	-0.695022	0.041376	-0.712448	0.087466
39258	-9.619919	-1.859569	-0.440587	-0.694814	0.041308	-0.712657	0.087446
39259	-9.636233	-1.843980	-0.432250	-0.694663	0.041298	-0.712815	0.087366
39260	-9.617391	-1.852781	-0.371082	-0.694595	0.041437	-0.712906	0.087102
39261	-9.628450	-1.769624	-0.327124	-0.694565	0.041549	-0.712956	0.086866
39262	-9.610000	-1.749962	-0.308095	-0.694561	0.041639	-0.712983	0.086641
39263	-9.639454	-1.740927	-0.193817	-0.694564	0.041650	-0.712991	0.086546
39264	-9.581962	-1.702249	-0.195312	-0.694550	0.041690	-0.713013	0.086459
39265	-9.629355	-1.791186	-0.286529	-0.694537	0.041734	-0.713028	0.086423
39266	-9.636929	-1.730268	-0.435363	-0.694568	0.041651	-0.712986	0.086558
39267	-9.691741	-1.732140	-0.433997	-0.694670	0.041580	-0.712873	0.086700
39268	-9.625254	-1.770788	-0.344238	-0.694821	0.041613	-0.712717	0.086755
39269	-9.615094	-1.740059	-0.281407	-0.694999	0.041661	-0.712531	0.086831
39270	-9.712569	-1.662474	-0.158689	-0.695208	0.041980	-0.712327	0.086679
39271	-9.655631	-1.761842	-0.081505	-0.695426	0.042374	-0.712119	0.086446
39272	-9.593490	-1.738419	-0.061446	-0.695587	0.042759	-0.711956	0.086311
39273	-9.511257	-1.713050	-0.084370	-0.695685	0.043066	-0.711845	0.086285
39274	-9.581751	-1.671502	-0.149380	-0.695734	0.043328	-0.711768	0.086384
39275	-9.625167	-1.879580	-0.229426	-0.695753	0.043490	-0.711714	0.086606
39276	-9.637775	-1.755931	-0.030817	-0.695741	0.043394	-0.711667	0.087127
39277	-9.618913	-1.519905	0.199448	-0.695680	0.043729	-0.711692	0.087249
39278	-9.540036	-1.728978	0.086181	-0.695538	0.044401	-0.711802	0.087141
39279	-9.508639	-1.626786	-0.133404	-0.695348	0.045168	-0.711958	0.086988
39280	-9.723847	-1.430421	0.085039	-0.695106	0.046239	-0.712175	0.086584
39281	-9.612750	-1.850246	-0.087227	-0.694787	0.047563	-0.712462	0.086056
39282	-9.556949	-1.942902	-0.078460	-0.694397	0.048324	-0.712775	0.086193
39283	-9.592883	-1.937423	-0.183461	-0.693964	0.048931	-0.713108	0.086583
39284	-9.598032	-1.957868	-0.429128	-0.693553	0.048917	-0.713375	0.087680
39285	-9.657866	-1.396113	-0.333844	-0.693183	0.049201	-0.713601	0.088602
39286	-9.658050	-1.783430	-0.681538	-0.692853	0.049920	-0.713799	0.089189
39287	-9.663249	-1.861708	-0.700506	-0.692656	0.050364	-0.713836	0.090162
39288	-9.677537	-1.742297	-0.688573	-0.692564	0.050894	-0.713762	0.091156
39289	-9.700276	-1.948204	-0.693408	-0.692595	0.051596	-0.713559	0.092102
39290	-9.536943	-2.051950	-0.822915	-0.692740	0.052011	-0.713209	0.093485
39291	-9.712473	-1.971897	-0.678515	-0.693053	0.052416	-0.712684	0.094931
39292	-9.609111	-2.180586	-0.583427	-0.693511	0.052859	-0.711999	0.096465
39293	-9.602908	-2.058082	-0.381080	-0.694024	0.052963	-0.711205	0.098554
39294	-9.651548	-1.719399	0.090870	-0.694498	0.052831	-0.710401	0.101052
39295	-9.576797	-1.625947	0.306892	-0.694880	0.052936	-0.709657	0.103571
39296	-9.541309	-1.685183	0.349978	-0.695065	0.053422	-0.709080	0.106002
39297	-9.454884	-2.111396	0.334297	-0.695005	0.053625	-0.708692	0.108849
39298	-9.360919	-2.062527	0.773871	-0.694764	0.053196	-0.708397	0.112459
39299	-9.311843	-2.037056	1.037370	-0.694273	0.052938	-0.708332	0.115966
39300	-9.477178	-1.997567	1.232693	-0.693355	0.052929	-0.708667	0.119369
39301	-9.492208	-1.778509	1.427382	-0.692078	0.053468	-0.709347	0.122456
39302	-9.407701	-1.903592	1.565224	-0.690287	0.054362	-0.710530	0.125284
39303	-9.267943	-1.975659	1.694974	-0.687889	0.055132	-0.712254	0.128312
39304	-9.218215	-1.836016	1.976647	-0.684699	0.055889	-0.714676	0.131536
39305	-9.302692	-1.779009	2.418075	-0.680492	0.056710	-0.718006	0.134845
39306	-9.443188	-1.572406	3.080449	-0.675026	0.057538	-0.722411	0.138387
39307	-9.429726	-1.516836	4.037107	-0.667993	0.058064	-0.728112	0.142361
39308	-9.812983	-1.347560	4.809533	-0.659087	0.057912	-0.735321	0.146810
39309	-10.694116	-1.288086	4.932007	-0.648559	0.057441	-0.743861	0.150806
39310	-11.621284	-2.752260	2.573214	-0.636595	0.056154	-0.753463	0.154552
39311	-12.654387	-2.853638	0.158893	-0.623943	0.053506	-0.763389	0.158334
39312	-13.166092	-2.558954	-2.102889	-0.611602	0.049162	-0.772708	0.162632
39313	-12.423023	-2.480342	-2.851642	-0.599889	0.042616	-0.781040	0.168207
39314	-11.220850	-2.039049	-3.157364	-0.589151	0.034361	-0.788158	0.174723
39315	-10.210101	-1.543648	-3.469891	-0.579481	0.025096	-0.794356	0.180475
39316	-9.513962	-2.069452	-4.072686	-0.570909	0.015685	-0.799852	0.184536
39317	-8.812754	-2.541785	-3.850630	-0.563919	0.005819	-0.803881	0.189040
39318	-7.763520	1.447359	-2.658190	-0.558637	-0.002744	-0.806722	0.192659
39319	-8.150241	4.003184	-0.965024	-0.556721	-0.004758	-0.809476	0.186515
39320	-7.913717	2.249353	-1.926138	-0.558704	-0.000172	-0.812006	0.168810
39321	-8.133874	-1.850791	-2.576596	-0.563356	0.006135	-0.812887	0.147671
39322	-8.477838	-3.549896	-2.722929	-0.570273	0.009407	-0.810912	0.130851
39323	-8.516461	-3.646579	-2.774580	-0.579224	0.009292	-0.806294	0.119598
39324	-8.824247	-3.247200	-2.652028	-0.589848	0.006954	-0.799596	0.112593
39325	-8.990369	-2.968157	-2.376278	-0.601842	0.002688	-0.791114	0.109168
39326	-9.122659	-2.177608	-2.042116	-0.615067	-0.002728	-0.781082	0.107683
39327	-9.344773	-1.537512	-1.438611	-0.629276	-0.008064	-0.769870	0.106050
39328	-9.631862	-1.227549	-1.156299	-0.644311	-0.011750	-0.757757	0.102615
39329	-9.818352	-1.507255	-0.917082	-0.659983	-0.012587	-0.744954	0.096478
39330	-9.781715	-2.478552	-1.119373	-0.676016	-0.011378	-0.731463	0.088516
39331	-9.665984	-3.087677	-1.030810	-0.691959	-0.009702	-0.717387	0.080336
39332	-9.473889	-2.860998	-0.735251	-0.707237	-0.008487	-0.703158	0.072889
39333	-9.571913	-2.448852	-0.368933	-0.721410	-0.008059	-0.689263	0.066484
39334	-9.728810	-2.233674	-0.027827	-0.734359	-0.007502	-0.676018	0.060494
39335	-9.577669	-2.786912	0.003637	-0.746074	-0.007197	-0.663517	0.055383
39336	-9.149014	-3.375708	-0.232201	-0.756473	-0.008040	-0.651943	0.051519
39337	-8.608807	-2.442186	0.320074	-0.764826	-0.010646	-0.642275	0.049101
39338	-8.223414	-2.270213	-0.045408	-0.770634	-0.012548	-0.635431	0.046841
39339	-7.632393	-1.569786	0.742872	-0.773989	-0.012963	-0.631515	0.044296
39340	-7.062480	-1.477110	-0.435036	-0.774734	-0.010140	-0.630965	0.039604
39341	-7.782090	-1.426976	-1.484920	-0.772593	-0.005355	-0.633971	0.033928
39342	-8.359446	-1.423188	-2.174736	-0.767357	0.001544	-0.640640	0.027226
39343	-11.286758	-3.352108	3.928048	-0.761468	0.004686	-0.647728	0.024350
39344	-10.443241	0.003161	3.743487	-0.756992	0.009874	-0.653046	0.019910
39345	-11.159635	-2.697218	1.216397	-0.750688	0.017172	-0.660315	0.012537
39346	-13.242530	-3.282056	0.385183	-0.742174	0.019916	-0.669857	0.008519
39347	-9.165232	-2.287558	-1.143069	-0.733610	0.019045	-0.679272	0.006571
39348	-7.389137	-0.942895	-2.333081	-0.725400	0.015984	-0.688109	0.006662
39349	-10.895694	1.745187	-2.165572	-0.717684	0.013614	-0.696203	0.006759
39350	-10.687700	1.784291	-3.199273	-0.710997	0.015783	-0.703011	0.003185
39351	-10.136478	-0.057989	-3.268590	-0.705011	0.019172	-0.708936	-0.001115
39352	-10.287511	-0.230070	-2.835788	-0.699843	0.021280	-0.713969	-0.003892
39353	-10.224898	0.032851	-2.457621	-0.695446	0.023038	-0.718182	-0.006254
39354	-10.044553	-0.541557	-2.436595	-0.691757	0.025466	-0.721619	-0.009476
39355	-10.124055	-1.208985	-2.151673	-0.688561	0.027623	-0.724545	-0.012472
39356	-10.181704	-0.895455	-1.393544	-0.685774	0.029272	-0.727073	-0.014914
39357	-9.876751	-0.352899	-1.087983	-0.683392	0.031405	-0.729151	-0.018126
39358	-9.769607	-0.320174	-0.891133	-0.681147	0.033305	-0.731079	-0.021290
39359	-9.713554	0.394438	-0.914529	-0.679010	0.034663	-0.732922	-0.023871
39360	-9.791850	0.848435	-0.633223	-0.676884	0.035839	-0.734758	-0.025968
39361	-9.916243	0.879047	-1.303060	-0.674785	0.037787	-0.736496	-0.028470
39362	-9.858640	-0.208219	-1.495644	-0.672709	0.039886	-0.738189	-0.030800
39363	-9.829708	-0.840411	-1.286981	-0.670752	0.040638	-0.739890	-0.031663
39364	-9.785905	-0.737565	-0.709130	-0.668791	0.040919	-0.741624	-0.032215
39365	-9.875292	-0.970291	-0.959900	-0.666695	0.040356	-0.743554	-0.031899
39366	-9.788766	-0.442997	-1.227730	-0.664366	0.038735	-0.745783	-0.030410
39367	-9.725146	0.002571	-0.757078	-0.661852	0.036865	-0.748179	-0.028648
39368	-9.824269	-0.405938	-0.973941	-0.659202	0.034639	-0.750696	-0.026615
39369	-9.816755	0.467885	-1.318235	-0.656588	0.031827	-0.753205	-0.023689
39370	-9.589843	0.674211	-1.506811	-0.654012	0.030335	-0.755554	-0.022041
39371	-9.763469	-0.650623	-1.958277	-0.651489	0.028305	-0.757870	-0.019859
39372	-9.987484	0.220605	-2.039768	-0.649242	0.025204	-0.759990	-0.016233
39373	-9.832198	0.810153	-1.915760	-0.647158	0.023361	-0.761876	-0.013647
39374	-9.728974	0.251651	-2.302941	-0.645355	0.022821	-0.763445	-0.012214
39375	-9.610153	-0.083782	-2.187647	-0.643746	0.022347	-0.764841	-0.010500
39376	-9.588876	0.210299	-1.898694	-0.642237	0.021883	-0.766144	-0.008792
39377	-9.587682	-0.316705	-1.811502	-0.640729	0.021281	-0.767441	-0.006884
39378	-9.354855	-0.151616	-1.785850	-0.639218	0.020368	-0.768742	-0.004578
39379	-9.437264	0.037184	-1.681492	-0.637577	0.019453	-0.770138	-0.002163
39380	-9.873169	0.328828	-1.711479	-0.635913	0.019070	-0.771525	-0.000194
39381	-9.888933	0.035021	-2.421256	-0.634347	0.019412	-0.772804	0.001134
39382	-9.910386	-0.081828	-2.954880	-0.633107	0.020284	-0.773796	0.001929
39383	-9.691918	-0.210671	-3.217384	-0.632272	0.021355	-0.774448	0.002624
39384	-9.428971	0.083094	-3.550227	-0.631864	0.022516	-0.774745	0.003337
39385	-9.352868	0.446835	-3.087048	-0.631804	0.024316	-0.774738	0.003607
39386	-9.346062	-0.022247	-2.095786	-0.631880	0.026335	-0.774610	0.003739
39387	-9.231038	-0.042707	-0.727550	-0.631679	0.027569	-0.774724	0.004920
39388	-8.934918	0.048401	0.029356	-0.630774	0.028447	-0.775416	0.006683
39389	-8.792343	0.061067	0.346940	-0.628946	0.029593	-0.776840	0.008416
39390	-9.254213	-0.318181	-0.108627	-0.626184	0.031113	-0.778989	0.010069
39391	-9.111020	-0.415795	-0.503343	-0.622712	0.032676	-0.781679	0.011847
39392	-8.707363	0.057797	-0.172854	-0.618498	0.034782	-0.784903	0.013300
39393	-10.131759	0.945764	-0.322466	-0.613659	0.038194	-0.788529	0.013630
39394	-10.228244	-0.393537	-1.312267	-0.608303	0.042773	-0.792448	0.012844
39395	-8.924035	-0.819448	-1.252241	-0.602423	0.045194	-0.796753	0.015140
39396	-9.175176	-0.293995	-1.064378	-0.595758	0.047677	-0.801551	0.017754
39397	-10.472548	-0.292504	-1.657523	-0.588547	0.049920	-0.806641	0.021234
39398	-10.583012	-0.859205	-1.629363	-0.580782	0.052576	-0.811983	0.024733
39399	-10.360974	-1.836782	-1.187784	-0.572186	0.054048	-0.817785	0.030159
39400	-10.288358	-2.291779	-0.145113	-0.562284	0.054212	-0.824297	0.037837
39401	-10.867568	-2.138157	1.392753	-0.550722	0.053252	-0.831610	0.047905
39402	-11.215465	-1.276553	2.289792	-0.537157	0.052907	-0.839835	0.057790
39403	-12.011043	-1.185524	1.199830	-0.521687	0.055151	-0.848912	0.064416
39404	-13.129163	-3.006083	-2.347100	-0.505115	0.058529	-0.858286	0.069126
39405	-12.815096	-4.111680	-3.314863	-0.487995	0.060174	-0.867402	0.076510
39406	-12.621920	-3.428100	-1.602271	-0.470644	0.059852	-0.875993	0.086876
39407	-12.360731	-1.688097	-0.250950	-0.452328	0.058609	-0.884584	0.097342
39408	-12.589058	0.504494	0.272523	-0.432561	0.056897	-0.893537	0.106047
39409	-12.642553	0.906696	-1.171650	-0.411654	0.056030	-0.902921	0.110161
39410	-12.499609	-1.167637	-3.381371	-0.390860	0.055347	-0.911937	0.111966
39411	-11.774506	-2.500800	-5.441393	-0.371714	0.053570	-0.919682	0.114650
39412	-10.306661	-1.752726	-9.001489	-0.354007	0.051160	-0.926510	0.116797
39413	-11.893119	-0.916901	-4.752376	-0.338727	0.047538	-0.931676	0.122411
39414	-10.238843	1.029996	-5.011994	-0.327100	0.045850	-0.935874	0.122654
39415	-7.414629	-0.318493	-5.870805	-0.317800	0.045434	-0.939983	0.115633
39416	-7.990386	-3.143441	-6.354247	-0.311888	0.043341	-0.942885	0.108704
39417	-7.050990	-3.750916	-7.003020	-0.309889	0.038803	-0.944066	0.105840
39418	-6.307486	-3.098420	-6.955814	-0.311360	0.032133	-0.943697	0.107047
39419	-6.679318	-2.353694	-6.532687	-0.316025	0.024363	-0.941966	0.110611
39420	-7.082517	-1.508306	-5.989598	-0.323611	0.016710	-0.939265	0.113045
39421	-7.090547	-1.057697	-6.030894	-0.333801	0.010245	-0.935815	0.112789
39422	-6.363219	-1.516983	-6.706629	-0.346332	0.005453	-0.931735	0.109063
39423	-5.665881	-2.570650	-7.114487	-0.360927	0.001493	-0.926733	0.104384
39424	-5.526914	-2.339776	-7.189882	-0.377381	-0.002783	-0.920525	0.101040
39425	-5.757999	-1.653877	-7.050801	-0.395492	-0.006936	-0.913217	0.097837
39426	-5.870000	-1.375701	-6.845977	-0.415115	-0.010476	-0.904781	0.094555
39427	-5.681876	-1.202524	-6.650652	-0.436212	-0.013282	-0.895129	0.091036
39428	-5.255687	-1.207514	-6.179526	-0.458366	-0.015235	-0.884373	0.086913
39429	-5.052472	-0.831945	-5.315974	-0.481535	-0.016015	-0.872458	0.081755
39430	-5.040432	-0.897942	-5.245643	-0.505723	-0.014632	-0.859398	0.073929
39431	-5.747509	-1.272421	-5.360309	-0.530815	-0.011232	-0.844979	0.064189
39432	-6.359940	-1.236051	-5.259358	-0.556598	-0.006691	-0.828988	0.054163
39433	-6.781392	-1.231276	-5.281237	-0.583057	-0.001170	-0.811232	0.044109
39434	-7.176034	-1.683892	-5.508995	-0.609903	0.004734	-0.791686	0.035063
39435	-7.424236	-2.117091	-5.600910	-0.636825	0.009861	-0.770428	0.028246
39436	-7.586816	-2.063092	-4.964133	-0.663306	0.013712	-0.747852	0.023540
39437	-8.000050	-1.541302	-4.478077	-0.688870	0.016414	-0.724417	0.020206
39438	-8.659725	-1.786376	-3.511340	-0.713051	0.018839	-0.700657	0.016830
39439	-9.134832	-2.618945	-3.192365	-0.735281	0.020611	-0.677305	0.013969
39440	-9.706659	-2.602556	-2.868738	-0.755161	0.020412	-0.655091	0.013113
39441	-9.770565	-1.740295	-1.783955	-0.772295	0.019080	-0.634831	0.013632
39442	-8.790610	-1.128546	-0.904789	-0.786065	0.019281	-0.617705	0.013030
39443	-7.962799	-1.326685	-0.679772	-0.796080	0.021681	-0.604710	0.010591
39444	-6.997482	-1.687892	-0.937371	-0.802049	0.025086	-0.596688	0.007137
39445	-7.194441	-2.241834	-0.305013	-0.803910	0.026166	-0.594151	0.005307
39446	-10.390941	-0.612257	-1.399238	-0.800249	0.026322	-0.599074	0.004305
39447	-17.003466	-2.171983	7.644608	-0.791586	0.021200	-0.610655	0.006493
39448	-15.242657	1.384946	4.781979	-0.782759	0.019918	-0.621985	0.005132
39449	-9.119790	-0.207858	1.150504	-0.771315	0.026148	-0.635914	-0.001750
39450	-9.394662	-1.896793	-1.641111	-0.759307	0.031655	-0.649926	-0.006885
39451	-7.188145	-2.122213	-1.771440	-0.748379	0.034240	-0.662321	-0.009319
39452	-5.243416	0.115708	-0.294826	-0.738124	0.034460	-0.673697	-0.010832
39453	-8.548406	0.721459	-1.411208	-0.726976	0.036384	-0.685539	-0.014763
39454	-13.853741	-0.253746	-3.030819	-0.714904	0.036470	-0.698067	-0.016854
39455	-11.157677	0.872342	-2.588250	-0.702877	0.036536	-0.710148	-0.017847
39456	-8.322755	1.587137	-3.854741	-0.691556	0.037339	-0.721115	-0.018698
39457	-8.873170	2.281169	-4.785469	-0.680777	0.041569	-0.730934	-0.023445
39458	-10.002724	-1.339939	-7.086462	-0.670441	0.047819	-0.739764	-0.031155
39459	-10.819386	-3.149139	-6.879005	-0.660885	0.050667	-0.747977	-0.034547
39460	-10.512213	-1.811347	-5.926223	-0.652692	0.049517	-0.755290	-0.032831
39461	-9.840944	0.364795	-4.773893	-0.645587	0.048121	-0.761539	-0.030996
39462	-10.104413	0.346052	-4.497636	-0.639384	0.048771	-0.766682	-0.031760
39463	-10.344873	-0.163013	-4.552771	-0.634299	0.050237	-0.770736	-0.033262
39464	-9.940217	0.065602	-4.737734	-0.630391	0.051225	-0.773817	-0.034483
39465	-9.866276	-0.279516	-3.951483	-0.627336	0.051320	-0.776272	-0.034904
39466	-10.134887	0.644342	-2.661556	-0.625402	0.051478	-0.777788	-0.035595
39467	-9.520151	1.646661	-2.645543	-0.624251	0.052629	-0.778522	-0.037997
39468	-9.753972	0.685943	-2.897376	-0.623540	0.055869	-0.778619	-0.042764
39469	-10.078804	0.825522	-2.804304	-0.623077	0.058588	-0.778611	-0.045914
39470	-9.343803	1.951335	-2.547661	-0.622635	0.060806	-0.778698	-0.047517
39471	-9.320774	2.121685	-1.823654	-0.622043	0.064357	-0.778713	-0.050275
39472	-9.535129	-0.810153	-2.740737	-0.621149	0.069985	-0.778593	-0.055407
39473	-10.106240	-1.504871	-2.657254	-0.620653	0.073198	-0.778582	-0.056934
39474	-9.464053	-0.924702	-2.854101	-0.620363	0.076447	-0.778348	-0.058994
39475	-9.429951	-1.757461	-2.772508	-0.620062	0.079229	-0.778145	-0.061122
39476	-9.667434	-0.851301	-2.709990	-0.620036	0.080654	-0.777952	-0.061966
39477	-9.440621	0.196080	-2.337043	-0.619962	0.081180	-0.777951	-0.062040
39478	-9.302107	0.467254	-1.698983	-0.619718	0.081919	-0.778032	-0.062490
39479	-9.598147	-0.636527	-1.738288	-0.619140	0.083338	-0.778248	-0.063640
39480	-9.676743	-0.911839	-2.107351	-0.618544	0.083793	-0.778683	-0.063515
39481	-9.671491	-0.138662	-2.118620	-0.617793	0.083674	-0.779375	-0.062483
39482	-9.746706	0.503549	-1.884167	-0.616860	0.083789	-0.780185	-0.061439
39483	-9.435355	0.336542	-1.599015	-0.615585	0.084095	-0.781236	-0.060450
39484	-9.329592	0.306060	-2.331047	-0.614265	0.084422	-0.782329	-0.059272
39485	-9.548097	-0.094346	-2.766154	-0.612975	0.084909	-0.783373	-0.058132
39486	-9.805585	-0.184978	-2.806621	-0.611861	0.085234	-0.784312	-0.056710
39487	-9.923310	0.159581	-2.899787	-0.610838	0.085893	-0.785118	-0.055577
39488	-9.756163	0.083232	-2.362296	-0.609854	0.086288	-0.785956	-0.053899
39489	-9.210079	-0.554632	-1.768606	-0.608555	0.086484	-0.787073	-0.051944
39490	-8.849370	-1.661907	-1.021815	-0.606735	0.085466	-0.788787	-0.048820
39491	-8.319661	-1.560613	-0.545416	-0.604057	0.083351	-0.791327	-0.044376
39492	-8.634262	-0.338000	-0.010963	-0.600172	0.080259	-0.794913	-0.038269
39493	-8.555477	1.028465	0.819875	-0.594967	0.078024	-0.799287	-0.032652
39494	-8.093142	1.801672	1.081506	-0.588512	0.077324	-0.804271	-0.028672
39495	-8.084044	1.519932	1.157244	-0.580154	0.077803	-0.810388	-0.025263
39496	-8.831414	1.070054	0.814152	-0.569997	0.078614	-0.817594	-0.021531
39497	-9.407717	0.223906	-0.511329	-0.558080	0.079579	-0.825777	-0.017509
39498	-10.346045	-0.802920	-3.085950	-0.545087	0.081564	-0.834270	-0.014903
39499	-11.075476	-2.682045	-6.446916	-0.532045	0.083592	-0.842483	-0.012797
39500	-11.762613	-3.606757	-8.955975	-0.520512	0.084170	-0.849646	-0.009178
39501	-11.616445	-3.697367	-8.357649	-0.511329	0.083209	-0.855342	-0.003065
39502	-9.846454	-1.406474	-7.510629	-0.504227	0.083413	-0.859531	0.001667
39503	-8.340302	-2.208836	-6.674000	-0.498049	0.085840	-0.862883	0.003362
39504	-8.235752	-2.321237	-6.008763	-0.492673	0.088908	-0.865651	0.004267
39505	-7.707685	-1.727030	-7.127948	-0.488248	0.092385	-0.867793	0.003864
39506	-7.525916	-2.286289	-9.029729	-0.485178	0.095251	-0.869205	0.003612
39507	-7.652707	-2.062046	-8.994784	-0.483350	0.095144	-0.870207	0.007804
39508	-8.016555	-0.638093	-7.517946	-0.482656	0.092228	-0.870802	0.015515
39509	-7.025929	0.520495	-6.049897	-0.482781	0.087408	-0.871026	0.024437
39510	-6.430533	0.379660	-5.990937	-0.483306	0.082125	-0.870979	0.032664
39511	-6.303101	-0.366287	-6.341721	-0.484101	0.076286	-0.870720	0.040899
39512	-6.609510	0.074167	-6.137353	-0.485123	0.070756	-0.870232	0.048418
39513	-6.939724	-0.177095	-5.683589	-0.486330	0.066781	-0.869559	0.053765
39514	-7.140458	-0.443082	-4.922685	-0.487759	0.064940	-0.868698	0.056896
39515	-7.395670	-0.768146	-4.375917	-0.489194	0.065001	-0.867775	0.058573
39516	-7.528075	-0.789499	-3.830227	-0.490420	0.067307	-0.866965	0.057698
39517	-7.556397	-1.563606	-4.423030	-0.491374	0.071296	-0.866340	0.054063
39518	-7.629827	-2.645566	-5.457439	-0.492121	0.075281	-0.865837	0.049755
39519	-8.088582	-3.015126	-5.427911	-0.492989	0.077839	-0.865266	0.047092
39520	-8.203678	-3.015972	-5.590026	-0.494056	0.078678	-0.864598	0.046787
39521	-8.591037	-1.940144	-5.117084	-0.495201	0.078086	-0.863892	0.048675
39522	-8.419936	-1.015791	-5.074806	-0.496389	0.077297	-0.863164	0.050705
39523	-7.888572	-0.683349	-4.659754	-0.497579	0.076679	-0.862454	0.052041
39524	-7.794822	-1.360651	-4.944115	-0.498612	0.076775	-0.861848	0.052059
39525	-8.058404	-1.821888	-4.994297	-0.499597	0.077349	-0.861266	0.051386
39526	-8.524095	-2.304592	-5.042499	-0.500595	0.077677	-0.860666	0.051238
39527	-8.314096	-2.029248	-4.611574	-0.501632	0.077525	-0.860030	0.051994
39528	-8.246308	-1.861096	-3.998187	-0.502470	0.077521	-0.859512	0.052468
39529	-7.893804	-1.795684	-3.831687	-0.502943	0.077905	-0.859196	0.052550
39530	-7.949363	-1.601286	-3.982963	-0.503030	0.078529	-0.859087	0.052567
39531	-8.425615	-1.184238	-4.404878	-0.502733	0.079114	-0.859194	0.052788
39532	-8.689943	-0.727448	-4.571391	-0.502291	0.079824	-0.859399	0.052591
39533	-8.476114	-1.126342	-4.475620	-0.501796	0.080405	-0.859661	0.052150
39534	-8.568431	-1.762644	-4.585524	-0.501263	0.081022	-0.859960	0.051366
39535	-8.815014	-2.174376	-4.695305	-0.500753	0.081589	-0.860237	0.050807
39536	-8.831664	-1.876591	-4.955220	-0.500396	0.082375	-0.860417	0.050011
39537	-8.629808	-2.338730	-5.127029	-0.500150	0.083355	-0.860544	0.048641
39538	-8.529800	-2.082494	-4.828026	-0.499955	0.083988	-0.860638	0.047896
39539	-8.855219	-1.656360	-4.501895	-0.499730	0.084930	-0.860727	0.046957
39540	-8.907760	-1.334980	-4.922142	-0.499598	0.086117	-0.860768	0.045425
39541	-8.850763	-1.407929	-5.102680	-0.499578	0.086929	-0.860767	0.044106
39542	-8.820854	-1.546761	-4.860594	-0.499654	0.087081	-0.860738	0.043505
39543	-8.709125	-1.803317	-4.889279	-0.499861	0.086968	-0.860653	0.043022
39544	-8.520225	-1.941958	-4.839514	-0.500088	0.086994	-0.860549	0.042425
39545	-8.378502	-1.733253	-4.750436	-0.500353	0.087361	-0.860399	0.041582
39546	-8.366800	-1.836851	-4.818641	-0.500429	0.088438	-0.860315	0.040094
39547	-8.089484	-1.972888	-4.786731	-0.500421	0.089474	-0.860276	0.038708
39548	-8.007112	-1.937723	-5.014547	-0.500376	0.089812	-0.860291	0.038172
39549	-7.775138	-1.846991	-5.348716	-0.500472	0.089484	-0.860256	0.038461
39550	-7.594074	-1.186302	-5.284839	-0.500588	0.089353	-0.860191	0.038716
39551	-7.576671	-1.024265	-4.963631	-0.500715	0.090086	-0.860072	0.038015
39552	-7.811292	-0.840349	-4.827446	-0.500672	0.091987	-0.859985	0.035936
39553	-8.041654	-1.181486	-4.990116	-0.500563	0.094551	-0.859890	0.032935
39554	-8.182810	-1.084127	-5.014051	-0.500533	0.096739	-0.859767	0.030137
39555	-8.302730	-1.533912	-5.324403	-0.500533	0.098267	-0.859672	0.027822
39556	-8.283346	-1.938191	-5.003798	-0.500674	0.098556	-0.859579	0.027130
39557	-8.406697	-1.537592	-4.680951	-0.500768	0.098495	-0.859533	0.027073
39558	-8.615700	-1.569923	-4.585820	-0.500764	0.098867	-0.859515	0.026371
39559	-8.553867	-1.837208	-4.886922	-0.500726	0.099175	-0.859519	0.025776
39560	-8.387233	-1.603415	-4.783874	-0.500740	0.099102	-0.859521	0.025722
39561	-8.238404	-1.416896	-4.780549	-0.500716	0.099005	-0.859551	0.025587
39562	-8.321438	-1.457845	-4.869148	-0.500539	0.099318	-0.859633	0.025055
39563	-8.448638	-1.337357	-4.811859	-0.500345	0.099931	-0.859696	0.024308
39564	-8.367804	-1.248700	-4.943210	-0.500150	0.100843	-0.859733	0.023212
39565	-8.066042	-1.306785	-5.013111	-0.499978	0.101906	-0.859741	0.021951
39566	-7.936306	-1.589499	-5.032512	-0.499789	0.103027	-0.859751	0.020605
39567	-8.142711	-1.571305	-4.925990	-0.499535	0.104325	-0.859774	0.019234
39568	-8.107754	-1.356074	-4.916479	-0.499225	0.105816	-0.859802	0.017792
39569	-8.071734	-0.927407	-4.821501	-0.498859	0.107243	-0.859867	0.016364
39570	-7.990108	-0.632363	-4.677718	-0.498369	0.108645	-0.860006	0.014630
39571	-8.065086	-0.915041	-4.782520	-0.497717	0.109890	-0.860255	0.012772
39572	-8.223253	-1.164348	-4.872697	-0.497016	0.110449	-0.860603	0.011796
39573	-8.518020	-1.228449	-5.067273	-0.496354	0.110710	-0.860959	0.011173
39574	-8.540618	-1.606391	-5.446679	-0.495836	0.110806	-0.861252	0.010689
39575	-8.661940	-1.694049	-5.502557	-0.495564	0.110639	-0.861432	0.010488
39576	-8.758966	-1.453969	-5.448061	-0.495547	0.110537	-0.861456	0.010363
39577	-8.557210	-1.368646	-5.493909	-0.495773	0.110556	-0.861328	0.009985
39578	-8.374874	-1.494433	-5.529427	-0.496196	0.110442	-0.861101	0.009815
39579	-8.380004	-1.113422	-5.051776	-0.496826	0.109997	-0.860791	0.010170
39580	-8.490129	-1.153654	-4.821066	-0.497436	0.109936	-0.860448	0.010014
39581	-8.475029	-1.326366	-4.830441	-0.498072	0.109867	-0.860090	0.009961
39582	-8.487672	-1.048044	-5.041187	-0.498768	0.109487	-0.859731	0.010282
39583	-8.464359	-1.060417	-5.093993	-0.499553	0.108765	-0.859359	0.010883
39584	-8.401786	-1.156952	-4.778711	-0.500320	0.107652	-0.859039	0.011972
39585	-8.317120	-1.280231	-4.537408	-0.500979	0.106536	-0.858777	0.013122
39586	-8.461062	-1.316435	-4.592095	-0.501510	0.105724	-0.858552	0.014090
39587	-8.515838	-1.579215	-5.046578	-0.502044	0.105270	-0.858285	0.014733
39588	-8.532235	-1.507110	-4.991155	-0.502617	0.104834	-0.857986	0.015702
39589	-8.441638	-1.004773	-4.605919	-0.503163	0.104467	-0.857689	0.016834
39590	-8.363736	-0.657011	-4.342393	-0.503513	0.104355	-0.857481	0.017611
39591	-8.332088	-1.030952	-4.581402	-0.503668	0.103970	-0.857416	0.018589
39592	-8.492074	-1.331554	-4.828331	-0.503830	0.103106	-0.857392	0.020071
39593	-8.784291	-1.279843	-4.736167	-0.504015	0.101839	-0.857385	0.022089
39594	-8.925029	-1.162796	-4.910077	-0.504277	0.100812	-0.857308	0.023775
39595	-8.828152	-1.274633	-4.967554	-0.504625	0.099876	-0.857168	0.025333
39596	-8.559053	-1.644382	-5.168046	-0.505067	0.098890	-0.856969	0.027056
39597	-8.357004	-1.741653	-4.949187	-0.505638	0.097173	-0.856727	0.030092
39598	-8.228093	-1.162511	-4.433311	-0.506186	0.095408	-0.856485	0.033277
39599	-8.341824	-1.315552	-4.229984	-0.506552	0.094668	-0.856275	0.035143
39600	-8.312216	-1.694134	-4.361772	-0.506791	0.094321	-0.856114	0.036540
39601	-8.486942	-1.625191	-4.744858	-0.506966	0.094490	-0.855960	0.037282
39602	-8.677822	-2.074247	-5.172975	-0.507249	0.094921	-0.855725	0.037727
39603	-8.899048	-1.953428	-5.114604	-0.507722	0.094970	-0.855385	0.038932
39604	-8.995897	-1.576676	-4.808463	-0.508342	0.094315	-0.854977	0.041321
39605	-8.831995	-1.485487	-4.323755	-0.509007	0.092751	-0.854572	0.044898
39606	-8.314133	-1.220401	-3.479045	-0.509395	0.090819	-0.854337	0.048758
39607	-8.194252	-1.414499	-3.271981	-0.509218	0.089406	-0.854415	0.051762
39608	-8.894005	-2.161747	-4.165612	-0.508699	0.088048	-0.854689	0.054580
39609	-9.329032	-2.115377	-4.645739	-0.508136	0.085807	-0.854984	0.058629
39610	-9.416612	-1.558785	-4.314803	-0.507672	0.082879	-0.855205	0.063448
39611	-9.138341	-2.101620	-4.175773	-0.507107	0.079672	-0.855445	0.068620
39612	-8.772516	-2.074689	-3.887269	-0.506355	0.075743	-0.855721	0.074898
39613	-8.502671	-1.695799	-3.320964	-0.505126	0.071541	-0.856222	0.081325
39614	-8.349426	-1.537235	-3.537540	-0.503435	0.067558	-0.856989	0.086939
39615	-8.156825	-2.096603	-4.391687	-0.501348	0.063431	-0.857978	0.092194
39616	-8.031177	-2.513509	-5.290388	-0.499089	0.057977	-0.858943	0.098826
39617	-7.616696	-1.897131	-5.503997	-0.496693	0.050815	-0.859808	0.106978
39618	-7.501232	-1.413595	-5.396991	-0.493943	0.042294	-0.860699	0.115886
39619	-7.292321	-1.360071	-5.600664	-0.490930	0.032680	-0.861613	0.124673
39620	-6.679420	-1.665085	-5.796828	-0.487586	0.021357	-0.862416	0.134323
39621	-6.727871	-1.722747	-5.961783	-0.484136	0.008404	-0.862835	0.145112
39622	-6.918515	-1.638841	-6.159468	-0.480628	-0.006052	-0.862788	0.156707
39623	-6.913725	-1.757658	-6.552474	-0.477066	-0.021895	-0.862133	0.169277
39624	-6.658777	-1.181941	-6.240301	-0.473123	-0.038984	-0.860977	0.182628
39625	-6.821255	-0.529244	-5.527016	-0.468785	-0.056852	-0.859433	0.195914
39626	-7.091689	-0.306976	-4.479072	-0.464621	-0.074612	-0.857525	0.207874
39627	-7.454684	-2.176070	-5.074716	-0.461367	-0.091627	-0.855309	0.217234
39628	-7.557251	-4.224627	-5.460450	-0.458349	-0.110404	-0.851822	0.228312
39629	-7.790728	-4.582215	-5.894983	-0.455048	-0.132268	-0.846245	0.243529
39630	-8.148480	-4.239758	-5.223722	-0.451443	-0.155837	-0.838978	0.260824
39631	-8.429532	-3.889066	-4.805881	-0.447619	-0.180272	-0.830019	0.279656
39632	-8.563454	-3.515465	-4.318168	-0.443978	-0.204520	-0.819726	0.298503
39633	-8.543584	-2.695031	-3.114483	-0.440410	-0.228056	-0.808368	0.317129
39634	-8.760555	-2.443246	-2.865186	-0.437520	-0.248437	-0.797606	0.332687
39635	-8.976724	-3.724240	-2.617715	-0.435142	-0.265263	-0.787996	0.345470
39636	-8.563876	-4.325408	-2.799709	-0.432749	-0.279466	-0.779250	0.356926
39637	-8.403655	-4.073334	-2.765370	-0.430602	-0.291318	-0.771561	0.366618
39638	-8.241377	-4.318226	-3.362908	-0.429232	-0.300563	-0.765352	0.373710
39639	-8.086344	-5.416917	-3.605094	-0.427674	-0.309096	-0.759599	0.380215
39640	-8.344119	-5.248972	-3.222494	-0.425700	-0.317553	-0.753537	0.387456
39641	-8.835446	-4.239013	-2.536669	-0.423821	-0.325068	-0.747840	0.394262
39642	-9.276929	-4.136820	-2.838877	-0.422838	-0.330389	-0.743511	0.399053
39643	-9.671128	-3.533331	-2.438857	-0.422530	-0.333658	-0.740469	0.402301
39644	-9.424647	-3.582106	-3.059690	-0.423109	-0.334700	-0.739082	0.403377
39645	-9.294916	-3.591406	-2.503051	-0.423743	-0.335033	-0.738191	0.404066
39646	-9.209254	-2.628827	-2.438469	-0.424168	-0.335454	-0.737158	0.405155
39647	-9.219851	-1.742328	-2.300815	-0.425027	-0.335134	-0.736753	0.405256
39648	-9.053320	-2.595621	-2.683457	-0.425973	-0.334867	-0.736458	0.405019
39649	-8.631874	-3.982287	-3.562747	-0.426319	-0.335580	-0.735616	0.405595
39650	-8.427308	-4.258628	-2.963629	-0.425129	-0.338057	-0.733513	0.408585
39651	-8.338113	-3.772770	-2.971376	-0.423467	-0.340692	-0.731296	0.412081
39652	-8.231406	-3.302624	-2.846075	-0.422499	-0.342380	-0.729729	0.414447
39653	-8.424017	-2.696369	-2.376034	-0.421909	-0.343450	-0.728516	0.416292
39654	-9.549702	-1.381566	-2.136207	-0.421687	-0.343510	-0.727875	0.417587
39655	-10.134649	-0.906716	-1.924145	-0.422368	-0.342190	-0.728400	0.417066
39656	-9.497511	-2.564996	-2.564006	-0.423469	-0.340778	-0.729349	0.415445
39657	-9.058610	-3.495558	-2.672196	-0.423568	-0.341139	-0.729116	0.415457
39658	-8.925358	-3.176570	-2.542150	-0.422845	-0.342915	-0.727801	0.417034
39659	-8.974603	-2.475701	-2.505800	-0.422548	-0.344044	-0.727009	0.417786
39660	-8.736506	-3.124258	-3.347389	-0.423114	-0.344001	-0.727068	0.417145
39661	-8.599875	-4.031810	-3.543967	-0.423477	-0.344327	-0.726706	0.417138
39662	-8.577006	-3.582900	-3.174010	-0.422794	-0.345969	-0.725130	0.419210
39663	-8.763989	-2.065956	-2.431158	-0.422278	-0.347175	-0.723840	0.420959
39664	-8.833777	-1.985231	-2.511583	-0.422634	-0.347197	-0.723734	0.420765
39665	-8.727212	-2.710509	-2.986241	-0.423060	-0.347158	-0.723827	0.420209
39666	-8.742126	-2.593631	-3.092004	-0.423274	-0.347560	-0.723537	0.420162
39667	-8.761747	-2.399506	-3.246465	-0.423373	-0.348434	-0.722901	0.420433
39668	-8.841748	-2.110510	-3.077909	-0.423501	-0.349529	-0.722056	0.420846
39669	-8.898504	-2.458237	-3.118321	-0.423977	-0.350419	-0.721397	0.420757
39670	-8.811967	-3.298792	-3.195291	-0.424272	-0.351667	-0.720384	0.421154
39671	-8.787780	-3.030009	-3.331222	-0.424497	-0.353355	-0.718826	0.422176
39672	-8.492757	-2.768395	-3.493203	-0.424914	-0.355248	-0.717037	0.423209
39673	-8.339020	-2.852109	-3.441585	-0.425751	-0.356881	-0.715358	0.423834
39674	-8.664030	-3.369053	-3.334607	-0.426373	-0.358584	-0.713457	0.424973
39675	-8.702639	-2.445850	-2.769313	-0.427258	-0.359920	-0.711610	0.426052
39676	-8.861505	-1.585192	-2.194333	-0.428657	-0.360868	-0.710230	0.426147
39677	-8.954641	-2.219771	-2.522028	-0.430715	-0.361382	-0.709485	0.424875
39678	-8.839751	-2.783587	-2.590933	-0.431930	-0.363337	-0.707755	0.424859
39679	-8.799719	-1.522967	-1.513333	-0.432729	-0.365941	-0.705636	0.425337
39680	-8.614474	-3.330516	-2.604156	-0.434965	-0.367011	-0.704886	0.423372
39681	-8.915826	-5.564804	-3.195754	-0.435155	-0.370300	-0.702258	0.424678
39682	-9.218853	-3.803753	-2.410986	-0.434436	-0.374358	-0.698680	0.427747
39683	-9.522323	-3.352138	-1.862425	-0.434562	-0.376984	-0.696239	0.429290
39684	-9.340688	-3.673769	-2.077792	-0.435256	-0.378381	-0.694747	0.429775
39685	-9.281470	-3.359833	-2.215417	-0.436081	-0.379202	-0.693684	0.429932
39686	-8.964358	-2.880416	-2.286844	-0.437112	-0.379674	-0.692925	0.429693
39687	-9.162482	-2.667307	-2.434718	-0.438060	-0.380085	-0.692255	0.429444
39688	-9.440076	-2.366355	-2.237657	-0.438864	-0.380472	-0.691546	0.429422
39689	-9.402080	-1.727052	-2.239252	-0.439788	-0.380570	-0.691007	0.429257
39690	-9.288529	-1.785049	-2.442281	-0.441264	-0.380059	-0.690969	0.428256
39691	-9.174026	-2.406256	-2.762610	-0.442629	-0.379749	-0.690653	0.427632
39692	-9.032741	-2.368031	-2.663365	-0.443549	-0.379977	-0.689838	0.427792
39693	-9.034914	-2.178530	-2.162739	-0.444422	-0.380331	-0.688921	0.428048
39694	-9.114279	-2.375628	-1.821443	-0.445247	-0.380641	-0.688194	0.428085
39695	-9.328057	-2.457701	-1.664198	-0.446020	-0.380875	-0.687625	0.427986
39696	-9.495754	-2.106561	-1.501650	-0.446752	-0.381188	-0.687215	0.427604
39697	-9.397888	-2.097237	-1.621998	-0.447571	-0.381558	-0.686970	0.426809
39698	-9.024157	-2.457550	-2.214937	-0.448146	-0.382474	-0.686491	0.426156
39699	-8.906921	-2.162916	-2.410925	-0.448220	-0.384086	-0.685495	0.426232
39700	-9.005972	-1.801318	-2.450280	-0.448302	-0.385713	-0.684525	0.426235
39701	-9.063206	-1.801603	-2.327109	-0.448420	-0.387371	-0.683541	0.426186
39702	-9.239512	-1.882196	-2.113537	-0.448579	-0.389233	-0.682431	0.426101
39703	-9.247991	-2.296201	-2.144721	-0.448623	-0.391675	-0.680971	0.426153
39704	-9.115084	-3.116960	-2.225484	-0.448196	-0.395651	-0.678447	0.426954
39705	-8.986432	-3.304227	-2.066492	-0.446333	-0.402710	-0.673690	0.429830
39706	-8.982076	-2.346852	-1.702953	-0.442864	-0.412838	-0.666505	0.434980
39707	-9.221974	-1.982235	-2.128909	-0.438268	-0.424964	-0.657492	0.441622
39708	-9.109031	-2.170428	-2.599845	-0.433120	-0.437842	-0.647432	0.448925
39709	-8.817517	-2.000667	-2.556135	-0.427492	-0.450736	-0.636819	0.456672
39710	-8.909693	-2.048807	-2.543657	-0.422276	-0.462526	-0.626729	0.463641
39711	-8.943422	-2.492011	-2.574524	-0.417433	-0.473289	-0.617176	0.469937
39712	-8.936394	-2.387120	-2.165001	-0.412717	-0.483294	-0.608087	0.475732
39713	-8.778895	-2.295150	-1.845114	-0.408336	-0.492560	-0.599623	0.480727
39714	-8.672538	-1.722492	-1.269869	-0.404311	-0.501205	-0.591913	0.484732
39715	-9.138228	-1.330032	-1.522085	-0.401349	-0.508594	-0.585302	0.487516
39716	-9.619988	-2.561942	-2.738729	-0.398714	-0.514894	-0.579550	0.489931
39717	-9.949157	-2.986512	-2.461679	-0.395848	-0.520108	-0.574485	0.492706
39718	-9.853496	-2.697146	-1.630488	-0.394099	-0.522901	-0.571953	0.494095
39719	-9.910998	-1.160947	-1.186596	-0.395944	-0.521694	-0.573716	0.491847
39720	-9.701253	-0.254169	-1.764948	-0.401298	-0.517814	-0.578534	0.485929
39721	-10.045097	-1.724228	-2.752761	-0.406059	-0.515230	-0.581905	0.480667
39722	-9.719523	-2.570894	-1.982541	-0.407019	-0.516571	-0.581103	0.479384
39723	-9.470303	-1.888669	-0.959527	-0.405312	-0.520202	-0.578114	0.480517
39724	-9.804499	-0.132660	0.341087	-0.404072	-0.523243	-0.576310	0.480425
39725	-10.152460	-0.656640	-0.127520	-0.405108	-0.524493	-0.577276	0.477019
39726	-9.989687	-2.306363	-0.715813	-0.405386	-0.526547	-0.578048	0.473572
39727	-9.519337	-1.286563	-1.129341	-0.404029	-0.530006	-0.577643	0.471362
39728	-9.212987	-0.277079	-1.198094	-0.402541	-0.533610	-0.577500	0.468737
39729	-9.194424	-0.749235	-1.247728	-0.401314	-0.536924	-0.578114	0.465234
39730	-9.439429	-0.641404	-1.671222	-0.400157	-0.540034	-0.579034	0.461473
39731	-9.347200	-1.232376	-3.132919	-0.399401	-0.542907	-0.580191	0.457285
39732	-9.288056	-1.411127	-3.241234	-0.398154	-0.546131	-0.580745	0.453817
39733	-9.148235	-0.651676	-3.118342	-0.397322	-0.548991	-0.581327	0.450337
39734	-8.996024	-0.883424	-3.354121	-0.397461	-0.551195	-0.582399	0.446116
39735	-9.108550	-1.215435	-3.241226	-0.397582	-0.553460	-0.583168	0.442184
39736	-9.286064	-0.910916	-2.963054	-0.397342	-0.556022	-0.583512	0.438717
39737	-9.216358	-0.763455	-3.437503	-0.397382	-0.558494	-0.583761	0.435195
39738	-9.469733	-1.058051	-3.282977	-0.397065	-0.561335	-0.583514	0.432150
39739	-9.541060	-0.604704	-3.069651	-0.396427	-0.564375	-0.582974	0.429497
39740	-9.305217	-0.235818	-3.041213	-0.396061	-0.567142	-0.582718	0.426527
39741	-9.160960	0.102489	-2.982169	-0.395764	-0.569723	-0.582593	0.423523
39742	-9.188608	0.367764	-3.574137	-0.395808	-0.571866	-0.582777	0.420328
39743	-9.072700	0.320908	-3.808387	-0.396114	-0.573606	-0.583193	0.417080
39744	-9.202771	0.094603	-3.455184	-0.396296	-0.575253	-0.583649	0.413990
39745	-9.733466	0.658164	-2.928622	-0.396692	-0.576586	-0.584318	0.410801
39746	-9.390342	0.348641	-3.576247	-0.397640	-0.577310	-0.585456	0.407231
39747	-8.983226	-0.238776	-4.423327	-0.398640	-0.577864	-0.586493	0.403961
39748	-9.566133	-0.616476	-4.602721	-0.399560	-0.578569	-0.586948	0.401375
39749	-9.615856	-0.404605	-4.709266	-0.400268	-0.579388	-0.586831	0.399656
39750	-9.335376	-0.016887	-4.398616	-0.401509	-0.579802	-0.586698	0.398001
39751	-9.257628	-0.340768	-4.516393	-0.403377	-0.579862	-0.586508	0.396302
39752	-9.205195	-0.200949	-4.896850	-0.405010	-0.580028	-0.585696	0.395594
39753	-9.314301	0.852954	-4.522219	-0.406943	-0.579865	-0.584699	0.395324
39754	-9.563037	1.147070	-4.605837	-0.410141	-0.578615	-0.584160	0.394647
39755	-9.536904	0.311778	-4.508806	-0.413805	-0.576820	-0.583649	0.394205
39756	-9.451776	0.071131	-4.537151	-0.417248	-0.575055	-0.582663	0.394614
39757	-9.407241	0.165445	-4.305525	-0.420805	-0.573121	-0.581394	0.395521
39758	-9.248178	-0.268010	-4.116743	-0.424866	-0.570878	-0.580058	0.396384
39759	-9.293982	-0.783352	-3.703404	-0.428869	-0.568827	-0.578339	0.397533
39760	-9.402294	-0.335235	-3.272883	-0.432310	-0.567307	-0.575945	0.399447
39761	-9.377912	0.543353	-2.798164	-0.435544	-0.565985	-0.573293	0.401619
39762	-9.241945	0.475357	-2.758590	-0.438919	-0.564467	-0.570836	0.403576
39763	-9.162915	0.297065	-3.114433	-0.442321	-0.562832	-0.568428	0.405539
39764	-9.235754	0.150797	-2.823450	-0.445421	-0.561391	-0.565813	0.407793
39765	-9.521524	0.246934	-2.433794	-0.448423	-0.560021	-0.563095	0.410143
39766	-9.504936	0.028335	-2.619578	-0.451213	-0.558805	-0.560233	0.412654
39767	-9.626741	0.804507	-2.123274	-0.453535	-0.557855	-0.557122	0.415595
39768	-9.326310	0.339228	-2.334560	-0.456393	-0.556483	-0.554334	0.418025
39769	-8.996219	-0.617980	-1.940792	-0.458919	-0.555593	-0.551226	0.420548
