// Start Time: Unknown
// Update Rate: 60.0Hz
// Filter Profile: human (46.1)
// Option Flags: AHS Disabled ICC Disabled 
// Firmware Version: 4.3.5
PacketCounter	Acc_X	Acc_Y	Acc_Z	Quat_q0	Quat_q1	Quat_q2	Quat_q3
34999	-9.562998	-2.046952	-0.407505	-0.689558	0.110034	-0.714670	0.040597
35000	-9.593254	-1.957670	-0.376059	-0.689455	0.110258	-0.714749	0.040362
35001	-9.595343	-1.989822	-0.453097	-0.689321	0.110578	-0.714845	0.040076
35002	-9.571272	-2.118886	-0.423436	-0.689201	0.110736	-0.714944	0.039932
35003	-9.561568	-2.011999	-0.392934	-0.689072	0.110763	-0.715061	0.039976
35004	-9.535782	-1.833763	-0.290004	-0.688894	0.110917	-0.715213	0.039907
35005	-9.581759	-1.839695	-0.309756	-0.688661	0.111587	-0.715362	0.039376
35006	-9.590974	-2.156331	-0.469452	-0.688414	0.112166	-0.715534	0.038925
35007	-9.544075	-2.107607	-0.511759	-0.688151	0.112524	-0.715742	0.038724
35008	-9.596420	-1.781664	-0.179479	-0.687877	0.113014	-0.715947	0.038379
35009	-9.591840	-1.861316	-0.233194	-0.687516	0.114033	-0.716178	0.037510
35010	-9.527666	-2.115233	-0.448140	-0.687133	0.114993	-0.716432	0.036745
35011	-9.559543	-2.037604	-0.565963	-0.686736	0.115683	-0.716727	0.036229
35012	-9.495801	-2.081599	-0.705686	-0.686362	0.116218	-0.717017	0.035880
35013	-9.483203	-2.163497	-0.693110	-0.686021	0.116691	-0.717284	0.035539
35014	-9.560766	-2.112767	-0.754494	-0.685728	0.117135	-0.717510	0.035168
35015	-9.593736	-2.087943	-0.873983	-0.685505	0.117817	-0.717638	0.034613
35016	-9.615279	-2.166830	-0.944344	-0.685385	0.118219	-0.717701	0.034312
35017	-9.626616	-2.131210	-0.876937	-0.685388	0.118152	-0.717701	0.034472
35018	-9.563879	-2.025175	-0.756729	-0.685483	0.117897	-0.717631	0.034908
35019	-9.616029	-2.098994	-0.632002	-0.685617	0.117422	-0.717548	0.035589
35020	-9.549951	-2.148882	-0.535994	-0.685768	0.116709	-0.717471	0.036569
35021	-9.546248	-2.044539	-0.431460	-0.685930	0.115939	-0.717389	0.037562
35022	-9.531510	-1.975325	-0.441059	-0.686041	0.115479	-0.717321	0.038238
35023	-9.529561	-1.923591	-0.388863	-0.686122	0.115389	-0.717245	0.038505
35024	-9.479409	-1.975068	-0.530243	-0.686158	0.115782	-0.717160	0.038252
35025	-9.563805	-2.198357	-0.697374	-0.686198	0.116007	-0.717088	0.038217
35026	-9.568323	-2.155810	-0.636319	-0.686293	0.115655	-0.717022	0.038805
35027	-9.562768	-1.986165	-0.474426	-0.686430	0.114968	-0.716950	0.039740
35028	-9.601332	-1.986586	-0.450540	-0.686534	0.114677	-0.716869	0.040240
35029	-9.571133	-2.109133	-0.512512	-0.686625	0.114875	-0.716752	0.040209
35030	-9.599072	-2.188312	-0.554566	-0.686723	0.115247	-0.716612	0.039957
35031	-9.577669	-2.119134	-0.498211	-0.686850	0.115546	-0.716461	0.039624
35032	-9.495406	-2.027208	-0.315957	-0.686922	0.115921	-0.716354	0.039214
35033	-9.492849	-1.972993	-0.178889	-0.686904	0.116549	-0.716306	0.038537
35034	-9.530249	-2.077984	-0.367787	-0.686817	0.117406	-0.716299	0.037618
35035	-9.579243	-2.123031	-0.513376	-0.686735	0.118266	-0.716286	0.036646
35036	-9.588891	-2.192387	-0.611298	-0.686655	0.119060	-0.716279	0.035700
35037	-9.603691	-2.238469	-0.625119	-0.686616	0.119668	-0.716253	0.034917
35038	-9.531024	-2.184172	-0.597778	-0.686614	0.120086	-0.716216	0.034296
35039	-9.492009	-2.139395	-0.622924	-0.686604	0.120249	-0.716214	0.033947
35040	-9.515056	-2.031704	-0.498529	-0.686611	0.120175	-0.716225	0.033830
35041	-9.539852	-2.000030	-0.400486	-0.686578	0.120175	-0.716263	0.033698
35042	-9.532885	-2.001236	-0.334109	-0.686507	0.120340	-0.716317	0.033394
35043	-9.528490	-2.043207	-0.397280	-0.686375	0.120632	-0.716414	0.032982
35044	-9.515865	-2.011245	-0.455279	-0.686200	0.120934	-0.716550	0.032565
35045	-9.550826	-2.015875	-0.602124	-0.686017	0.121143	-0.716700	0.032338
35046	-9.570364	-2.019186	-0.601879	-0.685863	0.121027	-0.716861	0.032495
35047	-9.562362	-1.978893	-0.585297	-0.685699	0.120682	-0.717053	0.032974
35048	-9.600644	-1.955636	-0.592873	-0.685559	0.120411	-0.717211	0.033439
35049	-9.574349	-2.000481	-0.573185	-0.685430	0.120197	-0.717350	0.033871
35050	-9.540482	-2.004348	-0.532976	-0.685301	0.120119	-0.717473	0.034145
35051	-9.532675	-2.010077	-0.468887	-0.685138	0.120223	-0.717607	0.034228
35052	-9.526440	-2.069176	-0.455734	-0.684952	0.120465	-0.717747	0.034172
35053	-9.577517	-2.018937	-0.493641	-0.684753	0.120748	-0.717893	0.034098
35054	-9.604189	-2.042295	-0.582871	-0.684523	0.121103	-0.718059	0.033962
35055	-9.539888	-2.131865	-0.625377	-0.684356	0.121277	-0.718188	0.033993
35056	-9.505560	-2.090874	-0.634161	-0.684184	0.121286	-0.718339	0.034216
35057	-9.531785	-2.103770	-0.711684	-0.684036	0.121298	-0.718470	0.034383
35058	-9.546063	-2.175496	-0.790007	-0.683923	0.121282	-0.718572	0.034564
35059	-9.546335	-2.220784	-0.787953	-0.683900	0.121102	-0.718609	0.034867
35060	-9.564511	-2.172471	-0.732831	-0.683925	0.120889	-0.718608	0.035148
35061	-9.552256	-2.221309	-0.722781	-0.683996	0.120677	-0.718564	0.035379
35062	-9.551437	-2.189970	-0.646155	-0.684103	0.120382	-0.718499	0.035648
35063	-9.543685	-2.115753	-0.592468	-0.684233	0.120057	-0.718419	0.035853
35064	-9.543424	-2.093569	-0.525152	-0.684356	0.119783	-0.718340	0.036021
35065	-9.549036	-2.001701	-0.554382	-0.684466	0.119629	-0.718257	0.036081
35066	-9.563389	-2.039070	-0.552411	-0.684560	0.119398	-0.718200	0.036206
35067	-9.555680	-1.998395	-0.441976	-0.684652	0.119137	-0.718145	0.036412
35068	-9.543474	-2.023616	-0.455527	-0.684696	0.118976	-0.718123	0.036550
35069	-9.498097	-2.050506	-0.426630	-0.684695	0.118866	-0.718137	0.036654
35070	-9.517622	-2.031795	-0.446463	-0.684661	0.118773	-0.718179	0.036760
35071	-9.517050	-1.998522	-0.462447	-0.684572	0.118724	-0.718267	0.036855
35072	-9.544377	-2.042894	-0.524566	-0.684453	0.118791	-0.718369	0.036866
35073	-9.559125	-2.113541	-0.602365	-0.684323	0.118788	-0.718489	0.036936
35074	-9.550525	-2.040753	-0.555688	-0.684206	0.118763	-0.718597	0.037086
35075	-9.531458	-2.069208	-0.637438	-0.684097	0.118745	-0.718696	0.037238
35076	-9.538195	-2.100726	-0.650388	-0.683990	0.118629	-0.718805	0.037481
35077	-9.523336	-2.041667	-0.632350	-0.683898	0.118443	-0.718904	0.037828
35078	-9.574741	-2.025525	-0.609500	-0.683810	0.118249	-0.719000	0.038207
35079	-9.528843	-2.042903	-0.660641	-0.683723	0.118174	-0.719083	0.038438
35080	-9.574999	-2.094629	-0.628408	-0.683685	0.118175	-0.719109	0.038634
35081	-9.567108	-2.055495	-0.609479	-0.683645	0.118302	-0.719123	0.038676
35082	-9.502669	-2.134381	-0.636418	-0.683617	0.118545	-0.719115	0.038589
35083	-9.521743	-2.129188	-0.622633	-0.683587	0.118640	-0.719125	0.038647
35084	-9.506842	-2.059349	-0.593283	-0.683560	0.118731	-0.719132	0.038708
35085	-9.539877	-2.092655	-0.623821	-0.683525	0.118833	-0.719145	0.038762
35086	-9.553080	-2.110626	-0.693089	-0.683512	0.118993	-0.719130	0.038790
35087	-9.533665	-2.140558	-0.727683	-0.683539	0.119133	-0.719079	0.038809
35088	-9.559358	-2.133409	-0.691890	-0.683627	0.119216	-0.718980	0.038852
35089	-9.532874	-2.133436	-0.670289	-0.683719	0.119316	-0.718874	0.038895
35090	-9.532805	-2.146110	-0.633999	-0.683823	0.119446	-0.718754	0.038872
35091	-9.513255	-2.153818	-0.646366	-0.683931	0.119582	-0.718630	0.038844
35092	-9.545981	-2.165756	-0.609436	-0.684050	0.119567	-0.718514	0.038954
35093	-9.498291	-2.085906	-0.522373	-0.684161	0.119492	-0.718411	0.039135
35094	-9.524774	-2.110660	-0.514936	-0.684251	0.119439	-0.718326	0.039283
35095	-9.557116	-2.089280	-0.536639	-0.684327	0.119466	-0.718242	0.039400
35096	-9.530850	-2.111101	-0.491419	-0.684393	0.119555	-0.718165	0.039393
35097	-9.485250	-2.104777	-0.563514	-0.684450	0.119771	-0.718082	0.039250
35098	-9.550903	-2.115084	-0.572183	-0.684483	0.120030	-0.718016	0.039090
35099	-9.537962	-2.119884	-0.610737	-0.684526	0.120222	-0.717948	0.039001
35100	-9.544595	-2.152048	-0.575981	-0.684582	0.120227	-0.717888	0.039121
35101	-9.537390	-2.145701	-0.540190	-0.684632	0.120035	-0.717852	0.039485
35102	-9.537233	-2.169847	-0.514414	-0.684677	0.119846	-0.717822	0.039832
35103	-9.556340	-2.165102	-0.498037	-0.684719	0.119647	-0.717794	0.040199
35104	-9.556069	-2.144212	-0.564975	-0.684748	0.119527	-0.717772	0.040460
35105	-9.529475	-2.132797	-0.578855	-0.684773	0.119562	-0.717736	0.040553
35106	-9.542795	-2.150885	-0.602454	-0.684825	0.119544	-0.717684	0.040667
35107	-9.522968	-2.136611	-0.640256	-0.684868	0.119510	-0.717639	0.040831
35108	-9.509631	-2.153981	-0.599871	-0.684931	0.119378	-0.717586	0.041091
35109	-9.516487	-2.196976	-0.573404	-0.685030	0.119120	-0.717514	0.041454
35110	-9.521561	-2.153359	-0.467698	-0.685097	0.118852	-0.717471	0.041844
35111	-9.509034	-2.191440	-0.490532	-0.685153	0.118619	-0.717438	0.042166
35112	-9.529131	-2.217689	-0.503811	-0.685197	0.118396	-0.717417	0.042438
35113	-9.528596	-2.163069	-0.541109	-0.685241	0.118167	-0.717396	0.042710
35114	-9.528428	-2.152296	-0.530002	-0.685280	0.117911	-0.717386	0.042967
35115	-9.521245	-2.110806	-0.509349	-0.685303	0.117717	-0.717384	0.043169
35116	-9.547858	-2.134215	-0.503823	-0.685327	0.117572	-0.717375	0.043319
35117	-9.522264	-2.164816	-0.513416	-0.685351	0.117435	-0.717366	0.043464
35118	-9.529028	-2.172963	-0.503237	-0.685366	0.117283	-0.717368	0.043600
35119	-9.507891	-2.092277	-0.439522	-0.685353	0.117163	-0.717392	0.043743
35120	-9.512110	-1.991770	-0.289032	-0.685281	0.117267	-0.717451	0.043610
35121	-9.547221	-2.087812	-0.424475	-0.685150	0.117662	-0.717537	0.043197
35122	-9.529278	-2.191648	-0.444779	-0.684982	0.118087	-0.717654	0.042758
35123	-9.521685	-2.115949	-0.444728	-0.684827	0.118524	-0.717761	0.042236
35124	-9.522556	-2.134953	-0.514366	-0.684622	0.119167	-0.717894	0.041482
35125	-9.544422	-2.210959	-0.673455	-0.684423	0.119968	-0.718002	0.040573
35126	-9.532425	-2.221603	-0.816809	-0.684260	0.120609	-0.718091	0.039839
35127	-9.525177	-2.167125	-0.790780	-0.684199	0.120880	-0.718123	0.039480
35128	-9.551007	-2.146335	-0.704168	-0.684179	0.120906	-0.718144	0.039359
35129	-9.583221	-2.124109	-0.597114	-0.684179	0.121082	-0.718127	0.039152
35130	-9.532185	-2.184325	-0.618546	-0.684173	0.121315	-0.718109	0.038857
35131	-9.564834	-2.172275	-0.564860	-0.684188	0.121515	-0.718074	0.038601
35132	-9.524147	-2.075844	-0.539143	-0.684199	0.121698	-0.718046	0.038359
35133	-9.511587	-2.101472	-0.511224	-0.684174	0.121963	-0.718041	0.038053
35134	-9.485857	-2.132221	-0.479236	-0.684142	0.122241	-0.718038	0.037785
35135	-9.493522	-2.171348	-0.545471	-0.684074	0.122465	-0.718079	0.037511
35136	-9.534423	-2.231125	-0.631607	-0.684033	0.122547	-0.718110	0.037401
35137	-9.553128	-2.180659	-0.578179	-0.683996	0.122490	-0.718154	0.037422
35138	-9.546439	-2.148175	-0.612901	-0.683965	0.122468	-0.718189	0.037379
35139	-9.521347	-2.199831	-0.600517	-0.683934	0.122454	-0.718225	0.037314
35140	-9.528054	-2.172926	-0.649416	-0.683940	0.122419	-0.718229	0.037228
35141	-9.516191	-2.207653	-0.674681	-0.683968	0.122333	-0.718220	0.037175
35142	-9.555358	-2.158268	-0.702221	-0.684015	0.122173	-0.718202	0.037198
35143	-9.548616	-2.126755	-0.646459	-0.684100	0.121961	-0.718152	0.037274
35144	-9.543140	-2.148756	-0.639765	-0.684213	0.121726	-0.718081	0.037351
35145	-9.543089	-2.114319	-0.607009	-0.684321	0.121465	-0.718016	0.037477
35146	-9.531276	-2.138144	-0.619075	-0.684451	0.121241	-0.717927	0.037532
35147	-9.512342	-2.143301	-0.586598	-0.684584	0.120954	-0.717841	0.037671
35148	-9.537257	-2.056566	-0.522913	-0.684720	0.120655	-0.717754	0.037821
35149	-9.545137	-2.084489	-0.530128	-0.684837	0.120441	-0.717676	0.037870
35150	-9.533022	-2.086117	-0.566421	-0.684961	0.120224	-0.717589	0.037943
35151	-9.573039	-2.092303	-0.553469	-0.685084	0.120023	-0.717501	0.038036
35152	-9.539681	-2.036802	-0.544934	-0.685200	0.119854	-0.717415	0.038096
35153	-9.533541	-2.037799	-0.517834	-0.685311	0.119830	-0.717317	0.038020
35154	-9.548243	-2.108715	-0.458313	-0.685385	0.119928	-0.717241	0.037820
35155	-9.517441	-2.172808	-0.473046	-0.685445	0.119950	-0.717186	0.037692
35156	-9.502165	-2.067419	-0.412103	-0.685470	0.119890	-0.717175	0.037649
35157	-9.574708	-2.050088	-0.470033	-0.685462	0.119916	-0.717184	0.037541
35158	-9.563464	-2.095644	-0.549725	-0.685449	0.119976	-0.717192	0.037434
35159	-9.576817	-2.089324	-0.554994	-0.685456	0.119968	-0.717192	0.037345
35160	-9.519544	-2.152466	-0.551856	-0.685459	0.119916	-0.717197	0.037349
35161	-9.544658	-2.098674	-0.521977	-0.685447	0.119822	-0.717223	0.037374
35162	-9.518578	-2.095894	-0.503217	-0.685431	0.119746	-0.717250	0.037374
35163	-9.571866	-2.108026	-0.552472	-0.685410	0.119642	-0.717285	0.037441
35164	-9.565621	-2.086275	-0.640293	-0.685420	0.119473	-0.717296	0.037582
35165	-9.572478	-2.094359	-0.630144	-0.685446	0.119218	-0.717302	0.037812
35166	-9.539069	-2.084967	-0.531608	-0.685495	0.119045	-0.717276	0.037941
35167	-9.513284	-2.116432	-0.453501	-0.685509	0.119047	-0.717264	0.037916
35168	-9.540255	-2.150287	-0.414937	-0.685497	0.118970	-0.717287	0.037937
35169	-9.542723	-1.972566	-0.369589	-0.685432	0.118978	-0.717353	0.037855
35170	-9.545694	-2.056530	-0.495608	-0.685332	0.119203	-0.717425	0.037581
35171	-9.503455	-2.167485	-0.637384	-0.685249	0.119364	-0.717488	0.037377
35172	-9.580791	-2.105536	-0.638129	-0.685204	0.119337	-0.717536	0.037363
35173	-9.534535	-2.088558	-0.614923	-0.685181	0.119176	-0.717579	0.037477
35174	-9.520394	-2.049488	-0.571183	-0.685158	0.119045	-0.717616	0.037601
35175	-9.546251	-2.028463	-0.571379	-0.685140	0.119026	-0.717637	0.037591
35176	-9.549064	-2.136488	-0.583441	-0.685137	0.119112	-0.717631	0.037484
35177	-9.535598	-2.118810	-0.559266	-0.685141	0.119073	-0.717634	0.037492
35178	-9.533776	-2.042099	-0.534019	-0.685130	0.119000	-0.717652	0.037560
35179	-9.540580	-2.050211	-0.525004	-0.685097	0.118955	-0.717690	0.037594
35180	-9.541697	-2.093307	-0.521619	-0.685075	0.118869	-0.717720	0.037684
35181	-9.509267	-2.092734	-0.566660	-0.685043	0.118807	-0.717759	0.037726
35182	-9.549471	-2.121311	-0.577873	-0.685004	0.118801	-0.717799	0.037703
35183	-9.542223	-2.078455	-0.602723	-0.684988	0.118757	-0.717822	0.037679
35184	-9.549038	-2.086264	-0.549866	-0.684978	0.118790	-0.717832	0.037567
35185	-9.523824	-2.104355	-0.594836	-0.684978	0.118912	-0.717821	0.037395
35186	-9.551261	-2.136855	-0.600498	-0.684991	0.118996	-0.717805	0.037202
35187	-9.539106	-2.149932	-0.605857	-0.685019	0.119150	-0.717768	0.036896
35188	-9.532475	-2.128418	-0.561621	-0.685047	0.119306	-0.717731	0.036586
35189	-9.556982	-2.028385	-0.579230	-0.685087	0.119542	-0.717675	0.036160
35190	-9.558656	-2.057418	-0.609039	-0.685117	0.119778	-0.717628	0.035752
35191	-9.534805	-2.118444	-0.604567	-0.685212	0.119801	-0.717544	0.035541
35192	-9.540827	-2.081769	-0.553323	-0.685274	0.119680	-0.717505	0.035535
35193	-9.541000	-2.069152	-0.541513	-0.685361	0.119462	-0.717452	0.035649
35194	-9.535519	-2.091817	-0.535290	-0.685412	0.119150	-0.717445	0.035871
35195	-9.547855	-2.053509	-0.508343	-0.685479	0.118670	-0.717439	0.036281
35196	-9.533007	-1.992958	-0.442245	-0.685522	0.118216	-0.717451	0.036716
35197	-9.538229	-1.935405	-0.459968	-0.685540	0.117968	-0.717461	0.036987
35198	-9.593613	-2.036077	-0.500119	-0.685530	0.117867	-0.717479	0.037145
35199	-9.502272	-2.047119	-0.535276	-0.685515	0.117650	-0.717515	0.037420
35200	-9.527071	-2.005839	-0.515552	-0.685483	0.117376	-0.717571	0.037789
35201	-9.521175	-2.042203	-0.521627	-0.685455	0.117174	-0.717611	0.038153
35202	-9.587493	-2.085897	-0.561576	-0.685417	0.116827	-0.717673	0.038722
35203	-9.564955	-2.020253	-0.463799	-0.685383	0.116350	-0.717746	0.039405
35204	-9.510923	-1.987214	-0.440185	-0.685317	0.116022	-0.717833	0.039942
35205	-9.525241	-2.049937	-0.506096	-0.685215	0.115914	-0.717929	0.040274
35206	-9.552567	-2.107671	-0.621576	-0.685095	0.115941	-0.718028	0.040471
35207	-9.558153	-2.096503	-0.638820	-0.685013	0.115970	-0.718093	0.040628
35208	-9.531318	-2.096914	-0.621495	-0.684940	0.115958	-0.718155	0.040795
35209	-9.602724	-2.094758	-0.559686	-0.684881	0.116061	-0.718193	0.040828
35210	-9.540108	-2.217111	-0.625493	-0.684852	0.116256	-0.718193	0.040750
35211	-9.578423	-2.193290	-0.543198	-0.684837	0.116358	-0.718193	0.040717
35212	-9.555928	-2.091986	-0.460255	-0.684831	0.116439	-0.718187	0.040686
35213	-9.491891	-2.147722	-0.510700	-0.684785	0.116533	-0.718220	0.040617
35214	-9.531366	-2.155297	-0.502305	-0.684747	0.116436	-0.718265	0.040737
35215	-9.555055	-2.058552	-0.434697	-0.684686	0.116322	-0.718336	0.040830
35216	-9.557521	-2.144162	-0.559568	-0.684596	0.116340	-0.718421	0.040802
35217	-9.525979	-2.187571	-0.601328	-0.684520	0.116170	-0.718513	0.040955
35218	-9.535944	-2.062089	-0.587591	-0.684465	0.115855	-0.718600	0.041233
35219	-9.568188	-2.038595	-0.613369	-0.684411	0.115651	-0.718672	0.041435
35220	-9.523582	-2.087661	-0.561354	-0.684358	0.115432	-0.718745	0.041657
35221	-9.543351	-2.091133	-0.557844	-0.684308	0.115218	-0.718815	0.041866
35222	-9.517112	-2.089296	-0.539778	-0.684250	0.115002	-0.718892	0.042089
35223	-9.555984	-2.074938	-0.556303	-0.684165	0.114818	-0.718989	0.042306
35224	-9.542633	-2.068953	-0.500008	-0.684077	0.114623	-0.719089	0.042547
35225	-9.507893	-2.004362	-0.575517	-0.683982	0.114468	-0.719192	0.042765
35226	-9.568031	-2.059841	-0.602993	-0.683869	0.114405	-0.719302	0.042890
35227	-9.556510	-2.130207	-0.615811	-0.683778	0.114399	-0.719386	0.042943
35228	-9.523710	-2.131109	-0.574470	-0.683688	0.114363	-0.719473	0.043012
35229	-9.567350	-2.049079	-0.557666	-0.683598	0.114407	-0.719551	0.043019
35230	-9.535346	-2.082646	-0.545961	-0.683494	0.114560	-0.719633	0.042914
35231	-9.522094	-2.087023	-0.588322	-0.683381	0.114738	-0.719720	0.042757
35232	-9.548627	-2.109961	-0.630950	-0.683283	0.114956	-0.719789	0.042588
35233	-9.570141	-2.189936	-0.654064	-0.683179	0.115076	-0.719873	0.042494
35234	-9.535859	-2.136085	-0.651301	-0.683128	0.115049	-0.719923	0.042558
35235	-9.528020	-2.094737	-0.676942	-0.683095	0.114989	-0.719958	0.042661
35236	-9.516205	-2.153959	-0.721730	-0.683082	0.114853	-0.719982	0.042823
35237	-9.502438	-2.126387	-0.687357	-0.683095	0.114684	-0.719983	0.043062
35238	-9.522152	-2.141833	-0.735453	-0.683133	0.114461	-0.719964	0.043359
35239	-9.547541	-2.111485	-0.723859	-0.683211	0.114134	-0.719918	0.043753
35240	-9.547083	-2.090641	-0.701121	-0.683336	0.113729	-0.719834	0.044226
35241	-9.540252	-2.083571	-0.706631	-0.683493	0.113380	-0.719711	0.044702
35242	-9.554292	-2.113190	-0.647916	-0.683674	0.112981	-0.719571	0.045197
35243	-9.553066	-2.060084	-0.593823	-0.683860	0.112574	-0.719425	0.045725
35244	-9.552218	-2.029239	-0.559280	-0.684043	0.112299	-0.719265	0.046172
35245	-9.555949	-1.919648	-0.481684	-0.684218	0.112206	-0.719096	0.046447
35246	-9.577584	-2.013346	-0.506107	-0.684371	0.112346	-0.718925	0.046489
35247	-9.552463	-2.068614	-0.443807	-0.684482	0.112624	-0.718779	0.046447
35248	-9.536876	-1.988692	-0.402712	-0.684591	0.113086	-0.718616	0.046237
35249	-9.517856	-2.042364	-0.454691	-0.684644	0.113797	-0.718484	0.045751
35250	-9.526408	-2.151806	-0.444628	-0.684658	0.114569	-0.718380	0.045246
35251	-9.495585	-2.264394	-0.455177	-0.684649	0.115126	-0.718321	0.044915
35252	-9.520286	-2.224398	-0.393402	-0.684606	0.115563	-0.718307	0.044667
35253	-9.501314	-2.276644	-0.405724	-0.684520	0.115979	-0.718338	0.044399
35254	-9.502181	-2.331665	-0.502067	-0.684408	0.116301	-0.718409	0.044129
35255	-9.549472	-2.401948	-0.622751	-0.684321	0.116387	-0.718484	0.044034
35256	-9.527536	-2.298909	-0.629364	-0.684270	0.116171	-0.718557	0.044205
35257	-9.512708	-2.214873	-0.678498	-0.684274	0.115720	-0.718605	0.044551
35258	-9.546094	-2.223604	-0.687314	-0.684308	0.115108	-0.718639	0.045060
35259	-9.525490	-2.163921	-0.685066	-0.684385	0.114408	-0.718640	0.045654
35260	-9.565048	-2.148576	-0.652494	-0.684508	0.113696	-0.718598	0.046243
35261	-9.543690	-2.044543	-0.565833	-0.684651	0.113086	-0.718528	0.046710
35262	-9.551514	-2.073535	-0.571557	-0.684775	0.112656	-0.718455	0.047059
35263	-9.546087	-2.096311	-0.518893	-0.684903	0.112203	-0.718377	0.047453
35264	-9.519865	-2.071158	-0.432378	-0.685030	0.111721	-0.718305	0.047859
35265	-9.572273	-2.050841	-0.405283	-0.685115	0.111444	-0.718253	0.048062
35266	-9.548877	-2.146177	-0.427220	-0.685155	0.111355	-0.718230	0.048041
35267	-9.470419	-2.128110	-0.402690	-0.685173	0.111419	-0.718219	0.047802
35268	-9.448788	-2.022861	-0.409620	-0.685150	0.111803	-0.718221	0.047198
35269	-9.538086	-2.165127	-0.665143	-0.685097	0.112559	-0.718217	0.046236
35270	-9.554987	-2.276514	-0.735232	-0.685111	0.112903	-0.718186	0.045648
35271	-9.518885	-2.109193	-0.677670	-0.685169	0.112927	-0.718145	0.045377
35272	-9.574127	-2.173638	-0.686221	-0.685250	0.113015	-0.718075	0.045034
35273	-9.570261	-2.226285	-0.664358	-0.685392	0.113016	-0.717957	0.044751
35274	-9.545862	-2.242144	-0.617037	-0.685555	0.112884	-0.717833	0.044585
35275	-9.511017	-2.118179	-0.549858	-0.685747	0.112690	-0.717689	0.044444
35276	-9.478634	-2.081375	-0.516477	-0.685920	0.112548	-0.717558	0.044236
35277	-9.498002	-2.025434	-0.459494	-0.686067	0.112579	-0.717435	0.043880
35278	-9.538487	-2.016996	-0.481230	-0.686195	0.112737	-0.717319	0.043365
35279	-9.588156	-2.093435	-0.517621	-0.686330	0.112896	-0.717194	0.042876
35280	-9.518478	-2.125529	-0.519958	-0.686467	0.112901	-0.717082	0.042529
35281	-9.477579	-2.036659	-0.458916	-0.686587	0.112801	-0.716996	0.042309
35282	-9.530687	-2.013013	-0.520000	-0.686694	0.112892	-0.716902	0.041932
35283	-9.587791	-2.109192	-0.600871	-0.686810	0.113080	-0.716791	0.041418
35284	-9.576484	-2.119849	-0.603346	-0.686966	0.113202	-0.716648	0.040970
35285	-9.547584	-2.004413	-0.526701	-0.687143	0.113357	-0.716482	0.040467
35286	-9.521028	-1.954398	-0.508613	-0.687310	0.113650	-0.716311	0.039843
35287	-9.531465	-2.011964	-0.588457	-0.687489	0.114066	-0.716115	0.039086
35288	-9.577996	-2.166438	-0.624547	-0.687682	0.114391	-0.715914	0.038410
35289	-9.572074	-2.153253	-0.541546	-0.687946	0.114526	-0.715664	0.037941
35290	-9.600373	-2.182590	-0.452559	-0.688202	0.114518	-0.715440	0.037552
35291	-9.533911	-2.147727	-0.285794	-0.688444	0.114273	-0.715255	0.037370
35292	-9.465341	-2.024182	-0.260812	-0.688634	0.114061	-0.715118	0.037142
35293	-9.576577	-2.085969	-0.481008	-0.688800	0.113952	-0.714996	0.036758
35294	-9.591310	-2.205957	-0.619606	-0.688989	0.113701	-0.714867	0.036477
35295	-9.595859	-2.109050	-0.559740	-0.689237	0.113269	-0.714704	0.036339
35296	-9.572364	-2.000353	-0.381892	-0.689498	0.112843	-0.714531	0.036131
35297	-9.532707	-1.929416	-0.380764	-0.689743	0.112654	-0.714350	0.035613
35298	-9.558493	-2.120358	-0.523015	-0.689996	0.112584	-0.714150	0.034921
35299	-9.581579	-2.090117	-0.623547	-0.690314	0.112308	-0.713913	0.034379
35300	-9.632733	-1.982349	-0.609049	-0.690681	0.112041	-0.713629	0.033766
35301	-9.612483	-2.023621	-0.629448	-0.691109	0.111681	-0.713295	0.033254
35302	-9.605513	-1.949413	-0.578324	-0.691605	0.111230	-0.712904	0.032845
35303	-9.655897	-1.897972	-0.388205	-0.692140	0.110663	-0.712485	0.032566
35304	-9.548792	-1.874247	-0.157295	-0.692620	0.109990	-0.712130	0.032416
35305	-9.539427	-1.823484	0.005917	-0.693053	0.109414	-0.711807	0.032208
35306	-9.540653	-1.802132	0.025052	-0.693360	0.108968	-0.711590	0.031900
35307	-9.538250	-1.805006	-0.042163	-0.693573	0.108615	-0.711451	0.031557
35308	-9.605602	-1.780943	-0.070993	-0.693702	0.108337	-0.711385	0.031180
35309	-9.627826	-1.719507	-0.234210	-0.693782	0.108205	-0.711348	0.030700
35310	-9.595826	-1.768828	-0.346533	-0.693860	0.108152	-0.711303	0.030167
35311	-9.610122	-1.833941	-0.438681	-0.693918	0.108029	-0.711280	0.029802
35312	-9.616669	-1.813663	-0.407503	-0.694028	0.107702	-0.711229	0.029647
35313	-9.622403	-1.772044	-0.399351	-0.694165	0.107339	-0.711152	0.029601
35314	-9.625117	-1.799404	-0.381544	-0.694315	0.107045	-0.711053	0.029542
35315	-9.627426	-1.849711	-0.295048	-0.694479	0.106662	-0.710947	0.029599
35316	-9.620615	-1.736822	-0.236468	-0.694648	0.106261	-0.710837	0.029726
35317	-9.612752	-1.703179	-0.222993	-0.694778	0.105973	-0.710750	0.029796
35318	-9.597085	-1.740763	-0.264923	-0.694865	0.105655	-0.710704	0.029995
35319	-9.602693	-1.714534	-0.267147	-0.694967	0.105232	-0.710654	0.030306
35320	-9.645147	-1.651860	-0.263530	-0.695047	0.104986	-0.710602	0.030545
35321	-9.630508	-1.735731	-0.257358	-0.695125	0.104875	-0.710535	0.030685
35322	-9.643210	-1.742045	-0.226149	-0.695184	0.104826	-0.710479	0.030827
35323	-9.626695	-1.693837	-0.215480	-0.695233	0.104852	-0.710422	0.030930
35324	-9.598698	-1.684378	-0.186332	-0.695241	0.104950	-0.710395	0.031058
35325	-9.585048	-1.703440	-0.148095	-0.695213	0.105074	-0.710397	0.031208
35326	-9.618839	-1.726886	-0.168386	-0.695134	0.105209	-0.710445	0.031417
35327	-9.606646	-1.769118	-0.151910	-0.695020	0.105356	-0.710525	0.031653
35328	-9.588338	-1.814537	-0.156227	-0.694852	0.105545	-0.710649	0.031917
35329	-9.611507	-1.866307	-0.238726	-0.694666	0.105736	-0.710792	0.032144
35330	-9.615795	-1.836148	-0.282822	-0.694481	0.105973	-0.710928	0.032365
35331	-9.610467	-1.854717	-0.361411	-0.694297	0.106174	-0.711067	0.032592
35332	-9.607780	-1.827081	-0.380753	-0.694141	0.106338	-0.711183	0.032848
35333	-9.619319	-1.849114	-0.321333	-0.693989	0.106581	-0.711286	0.033037
35334	-9.620500	-1.897855	-0.320662	-0.693845	0.106837	-0.711381	0.033197
35335	-9.610158	-1.861864	-0.305401	-0.693693	0.107165	-0.711475	0.033285
35336	-9.602953	-1.869654	-0.329626	-0.693527	0.107557	-0.711575	0.033356
35337	-9.564627	-1.890094	-0.408256	-0.693377	0.107951	-0.711659	0.033416
35338	-9.587681	-1.863917	-0.401960	-0.693237	0.108177	-0.711749	0.033678
35339	-9.569577	-1.920984	-0.415528	-0.693126	0.108335	-0.711818	0.033986
35340	-9.582676	-1.954453	-0.408083	-0.693047	0.108515	-0.711854	0.034269
35341	-9.602028	-1.963238	-0.448740	-0.692983	0.108698	-0.711876	0.034522
35342	-9.619985	-1.950032	-0.469129	-0.692955	0.108889	-0.711863	0.034749
35343	-9.565595	-1.953828	-0.431495	-0.692948	0.109087	-0.711828	0.035001
35344	-9.600377	-1.911833	-0.371896	-0.692963	0.109285	-0.711771	0.035238
35345	-9.595953	-1.984962	-0.361860	-0.692985	0.109466	-0.711712	0.035438
35346	-9.582726	-2.005622	-0.366586	-0.692995	0.109685	-0.711660	0.035599
35347	-9.582584	-2.010155	-0.409907	-0.693027	0.109793	-0.711600	0.035854
35348	-9.578764	-1.982214	-0.335329	-0.693081	0.109754	-0.711533	0.036240
35349	-9.539144	-1.990492	-0.353919	-0.693139	0.109689	-0.711467	0.036623
35350	-9.587480	-2.042581	-0.405233	-0.693177	0.109604	-0.711422	0.037027
35351	-9.548383	-2.083104	-0.364960	-0.693258	0.109520	-0.711338	0.037374
35352	-9.573789	-2.076153	-0.371565	-0.693351	0.109350	-0.711253	0.037750
35353	-9.567348	-1.969499	-0.315487	-0.693429	0.109218	-0.711181	0.038068
35354	-9.559363	-2.074508	-0.352645	-0.693496	0.109165	-0.711114	0.038255
35355	-9.582261	-2.032918	-0.286698	-0.693585	0.109057	-0.711033	0.038442
35356	-9.567030	-2.016361	-0.216631	-0.693651	0.108988	-0.710974	0.038547
35357	-9.566930	-2.026993	-0.181351	-0.693684	0.108953	-0.710945	0.038581
35358	-9.520733	-2.021637	-0.167529	-0.693689	0.108997	-0.710940	0.038481
35359	-9.570548	-2.046388	-0.289442	-0.693669	0.109080	-0.710957	0.038267
35360	-9.552514	-2.073162	-0.281612	-0.693621	0.109159	-0.711005	0.038039
35361	-9.554997	-2.002235	-0.205930	-0.693541	0.109218	-0.711087	0.037791
35362	-9.571920	-1.947676	-0.155338	-0.693420	0.109314	-0.711207	0.037465
35363	-9.563861	-2.014016	-0.213943	-0.693259	0.109497	-0.711360	0.037008
35364	-9.557430	-2.090438	-0.327404	-0.693065	0.109614	-0.711553	0.036572
35365	-9.548911	-2.022083	-0.338252	-0.692892	0.109646	-0.711737	0.036188
35366	-9.554164	-1.937252	-0.431532	-0.692722	0.109768	-0.711908	0.035703
35367	-9.609753	-1.965451	-0.460497	-0.692574	0.109899	-0.712058	0.035160
35368	-9.618363	-1.989258	-0.431073	-0.692448	0.109994	-0.712192	0.034649
35369	-9.586171	-1.984345	-0.391469	-0.692373	0.110030	-0.712283	0.034154
35370	-9.552631	-1.957624	-0.331639	-0.692291	0.110087	-0.712378	0.033645
35371	-9.560096	-1.948107	-0.315161	-0.692215	0.110169	-0.712466	0.033070
35372	-9.575852	-1.934762	-0.410752	-0.692143	0.110307	-0.712545	0.032421
35373	-9.606090	-1.948637	-0.496337	-0.692087	0.110381	-0.712615	0.031812
35374	-9.612268	-1.916506	-0.458908	-0.692079	0.110426	-0.712641	0.031220
35375	-9.579730	-1.899606	-0.406813	-0.692088	0.110511	-0.712649	0.030561
35376	-9.603519	-1.849452	-0.299413	-0.692102	0.110635	-0.712645	0.029849
35377	-9.591522	-1.846645	-0.251756	-0.692108	0.110883	-0.712636	0.029017
35378	-9.614447	-1.863071	-0.268275	-0.692054	0.111146	-0.712680	0.028191
35379	-9.609128	-1.857916	-0.247028	-0.691971	0.111377	-0.712755	0.027430
35380	-9.570214	-1.844444	-0.217273	-0.691841	0.111500	-0.712884	0.026813
35381	-9.570570	-1.814917	-0.246355	-0.691662	0.111564	-0.713068	0.026279
35382	-9.598574	-1.772452	-0.417175	-0.691467	0.111651	-0.713264	0.025746
35383	-9.628664	-1.862326	-0.639245	-0.691308	0.111673	-0.713429	0.025305
35384	-9.632796	-1.886720	-0.716917	-0.691249	0.111627	-0.713507	0.024929
35385	-9.620183	-1.862682	-0.737530	-0.691272	0.111576	-0.713508	0.024500
35386	-9.670685	-1.802136	-0.724449	-0.691408	0.111647	-0.713385	0.023936
35387	-9.675357	-1.849668	-0.682482	-0.691644	0.111844	-0.713149	0.023190
35388	-9.671969	-1.890235	-0.560321	-0.691943	0.112091	-0.712848	0.022339
35389	-9.635868	-1.933068	-0.437355	-0.692289	0.112164	-0.712521	0.021661
35390	-9.491325	-1.693630	-0.430013	-0.692645	0.112225	-0.712185	0.020989
35391	-9.614260	-1.802371	-0.500442	-0.692999	0.112265	-0.711852	0.020395
35392	-9.648017	-1.817692	-0.378698	-0.693387	0.112006	-0.711523	0.020104
35393	-9.637557	-1.654352	-0.022813	-0.693746	0.111710	-0.711226	0.019872
35394	-9.533936	-1.603702	0.120416	-0.693983	0.111783	-0.710999	0.019297
35395	-9.533970	-1.586696	0.134542	-0.694096	0.112181	-0.710850	0.018411
35396	-9.633058	-1.603328	-0.044013	-0.694084	0.112987	-0.710765	0.017168
35397	-9.604576	-1.696373	-0.157589	-0.694015	0.113947	-0.710711	0.015775
35398	-9.684069	-1.708304	-0.345303	-0.693925	0.114794	-0.710690	0.014535
35399	-9.695835	-1.627069	-0.467081	-0.693854	0.115501	-0.710663	0.013560
35400	-9.637302	-1.714944	-0.464574	-0.693826	0.115829	-0.710647	0.013025
35401	-9.625945	-1.740440	-0.437212	-0.693852	0.115656	-0.710649	0.013076
35402	-9.623137	-1.695309	-0.439539	-0.693896	0.115205	-0.710672	0.013474
35403	-9.611418	-1.711031	-0.444132	-0.693956	0.114614	-0.710697	0.014078
35404	-9.634010	-1.681419	-0.386506	-0.694055	0.113888	-0.710701	0.014858
35405	-9.698921	-1.625052	-0.267849	-0.694144	0.113201	-0.710707	0.015651
35406	-9.643178	-1.618436	-0.174017	-0.694211	0.112687	-0.710709	0.016299
35407	-9.570333	-1.515187	-0.205364	-0.694217	0.112407	-0.710735	0.016800
35408	-9.670951	-1.566507	-0.166380	-0.694167	0.112450	-0.710773	0.017006
35409	-9.633101	-1.709888	-0.110421	-0.694097	0.112632	-0.710810	0.017098
35410	-9.612721	-1.734084	-0.051563	-0.693933	0.112800	-0.710940	0.017220
35411	-9.555688	-1.747456	-0.136847	-0.693714	0.113014	-0.711119	0.017287
35412	-9.550904	-1.737382	-0.285122	-0.693440	0.113286	-0.711343	0.017303
35413	-9.598338	-1.793015	-0.508597	-0.693174	0.113628	-0.711549	0.017221
35414	-9.636896	-1.854829	-0.619429	-0.692961	0.113806	-0.711726	0.017295
35415	-9.589568	-1.842009	-0.644652	-0.692804	0.113806	-0.711875	0.017467
35416	-9.593243	-1.832720	-0.573961	-0.692740	0.113635	-0.711956	0.017780
35417	-9.606994	-1.863082	-0.522418	-0.692701	0.113361	-0.712030	0.018121
35418	-9.684236	-1.765914	-0.468937	-0.692736	0.113067	-0.712033	0.018488
35419	-9.697907	-1.772136	-0.482157	-0.692809	0.112837	-0.711989	0.018824
35420	-9.689149	-1.767788	-0.401544	-0.692921	0.112633	-0.711905	0.019144
35421	-9.613358	-1.770731	-0.234271	-0.693013	0.112454	-0.711835	0.019454
35422	-9.601707	-1.734189	-0.124228	-0.693053	0.112310	-0.711813	0.019683
35423	-9.568928	-1.737065	-0.125105	-0.693014	0.112292	-0.711850	0.019771
35424	-9.658457	-1.765300	-0.238352	-0.692947	0.112385	-0.711901	0.019767
35425	-9.651927	-1.833479	-0.340690	-0.692857	0.112502	-0.711971	0.019739
35426	-9.609856	-1.872024	-0.413762	-0.692767	0.112479	-0.712060	0.019832
35427	-9.582237	-1.772418	-0.374587	-0.692696	0.112364	-0.712143	0.019988
35428	-9.617350	-1.777968	-0.473826	-0.692637	0.112329	-0.712205	0.020038
35429	-9.606371	-1.804198	-0.490884	-0.692609	0.112209	-0.712247	0.020162
35430	-9.624379	-1.785728	-0.466027	-0.692622	0.112024	-0.712258	0.020351
35431	-9.601004	-1.840995	-0.409203	-0.692635	0.111791	-0.712275	0.020564
35432	-9.605732	-1.840437	-0.301180	-0.692663	0.111492	-0.712289	0.020803
35433	-9.638522	-1.824795	-0.334066	-0.692668	0.111197	-0.712324	0.020997
35434	-9.633919	-1.847696	-0.329701	-0.692688	0.110892	-0.712346	0.021214
35435	-9.630495	-1.803500	-0.289286	-0.692702	0.110558	-0.712377	0.021452
35436	-9.583682	-1.710240	-0.219749	-0.692676	0.110222	-0.712448	0.021671
35437	-9.608506	-1.675181	-0.254072	-0.692624	0.109979	-0.712531	0.021835
35438	-9.590302	-1.668493	-0.349062	-0.692556	0.109800	-0.712620	0.021959
35439	-9.627480	-1.706804	-0.434904	-0.692466	0.109590	-0.712734	0.022163
35440	-9.628639	-1.728645	-0.413499	-0.692384	0.109337	-0.712844	0.022418
35441	-9.607972	-1.750476	-0.265147	-0.692306	0.109052	-0.712954	0.022724
35442	-9.570221	-1.712058	-0.140935	-0.692166	0.108834	-0.713114	0.023028
35443	-9.554479	-1.685899	-0.111463	-0.691944	0.108724	-0.713339	0.023238
35444	-9.560037	-1.672876	-0.133160	-0.691630	0.108712	-0.713640	0.023402
35445	-9.578450	-1.642381	-0.239586	-0.691246	0.108731	-0.714004	0.023564
35446	-9.659101	-1.754700	-0.340332	-0.690795	0.108770	-0.714428	0.023744
35447	-9.665712	-1.853684	-0.398419	-0.690352	0.108696	-0.714858	0.024030
35448	-9.650174	-1.763498	-0.252775	-0.689887	0.108611	-0.715308	0.024366
35449	-9.601063	-1.755395	-0.066826	-0.689315	0.108666	-0.715844	0.024570
35450	-9.436653	-1.682372	0.057913	-0.688601	0.108831	-0.716500	0.024731
35451	-9.567516	-1.584272	-0.083072	-0.687731	0.109191	-0.717280	0.024755
35452	-9.493108	-1.657731	-0.383087	-0.686745	0.109615	-0.718158	0.024793
35453	-9.721258	-1.856436	-0.507198	-0.685731	0.109771	-0.719092	0.025113
35454	-9.563113	-1.882749	-0.436791	-0.684701	0.109700	-0.720062	0.025709
35455	-9.539031	-1.843324	-0.341531	-0.683619	0.109601	-0.721084	0.026281
35456	-9.530826	-1.779127	-0.530912	-0.682460	0.109762	-0.722144	0.026611
35457	-9.605638	-1.872573	-0.633182	-0.681293	0.110009	-0.723202	0.026779
35458	-9.602831	-1.915506	-0.835953	-0.680158	0.110148	-0.724241	0.026986
35459	-9.618312	-2.050281	-1.044265	-0.679102	0.110156	-0.725220	0.027244
35460	-9.543026	-2.040170	-1.322471	-0.678198	0.109950	-0.726081	0.027658
35461	-9.631577	-2.079285	-1.449428	-0.677469	0.109484	-0.726809	0.028245
35462	-9.580006	-2.030285	-1.199684	-0.676910	0.108637	-0.727420	0.029174
35463	-9.557891	-1.828416	-0.763810	-0.676451	0.107637	-0.727952	0.030229
35464	-9.525737	-1.720006	-0.700276	-0.675949	0.106874	-0.728498	0.031006
35465	-9.551368	-1.894761	-0.867435	-0.675450	0.106247	-0.729028	0.031577
35466	-9.552433	-1.947377	-0.929308	-0.674964	0.105444	-0.729563	0.032283
35467	-9.610257	-1.746365	-0.765798	-0.674525	0.104726	-0.730047	0.032870
35468	-9.713777	-1.619696	-0.931917	-0.674112	0.104511	-0.730454	0.032984
35469	-9.587326	-1.874686	-1.251568	-0.673776	0.104473	-0.730773	0.032884
35470	-9.591260	-1.836789	-1.253784	-0.673592	0.104149	-0.730981	0.033065
35471	-9.596973	-1.734692	-1.105969	-0.673491	0.103879	-0.731107	0.033192
35472	-9.636467	-1.831628	-0.953978	-0.673437	0.103720	-0.731178	0.033223
35473	-9.598774	-1.891468	-0.865862	-0.673432	0.103546	-0.731207	0.033222
35474	-9.582872	-1.717149	-0.815984	-0.673443	0.103456	-0.731214	0.033135
35475	-9.604172	-1.681489	-0.895256	-0.673451	0.103588	-0.731202	0.032831
35476	-9.634461	-1.754994	-0.940849	-0.673494	0.103849	-0.731142	0.032445
35477	-9.561140	-1.770044	-1.010345	-0.673575	0.104150	-0.731043	0.032023
35478	-9.585884	-1.835829	-1.019606	-0.673697	0.104382	-0.730913	0.031676
35479	-9.628979	-1.850574	-0.974367	-0.673868	0.104582	-0.730741	0.031340
35480	-9.617906	-1.821342	-0.891139	-0.674090	0.104818	-0.730518	0.030965
35481	-9.598879	-1.758010	-0.953091	-0.674319	0.105111	-0.730284	0.030508
35482	-9.596737	-1.668872	-0.868169	-0.674589	0.105569	-0.729994	0.029906
35483	-9.581410	-1.717492	-0.871438	-0.674878	0.106079	-0.729679	0.029243
35484	-9.597541	-1.757836	-0.709789	-0.675146	0.106627	-0.729378	0.028566
35485	-9.567507	-1.826963	-0.606191	-0.675399	0.107196	-0.729089	0.027811
35486	-9.535749	-1.831012	-0.810288	-0.675614	0.107759	-0.728835	0.027063
35487	-9.559504	-1.725671	-0.892229	-0.675851	0.108213	-0.728573	0.026407
35488	-9.604388	-1.776169	-1.084601	-0.676104	0.108658	-0.728293	0.025801
35489	-9.620249	-1.779353	-1.048305	-0.676484	0.108908	-0.727918	0.025372
35490	-9.620851	-1.824336	-0.966022	-0.676919	0.109168	-0.727490	0.024923
35491	-9.567693	-1.847361	-0.865956	-0.677392	0.109472	-0.727021	0.024423
35492	-9.586823	-1.793672	-0.799788	-0.677873	0.109864	-0.726535	0.023761
35493	-9.575967	-1.775058	-0.718845	-0.678353	0.110276	-0.726046	0.023078
35494	-9.540160	-1.778252	-0.638210	-0.678814	0.110702	-0.725572	0.022396
35495	-9.561415	-1.867133	-0.635501	-0.679227	0.110955	-0.725163	0.021878
35496	-9.542015	-1.879320	-0.737454	-0.679656	0.110921	-0.724773	0.021659
35497	-9.608887	-1.751254	-0.938993	-0.680113	0.110796	-0.724365	0.021595
35498	-9.627684	-1.847345	-1.119758	-0.680652	0.110476	-0.723903	0.021728
35499	-9.640961	-1.780307	-0.916736	-0.681299	0.109957	-0.723365	0.022029
35500	-9.695460	-1.800570	-0.573208	-0.681977	0.109491	-0.722790	0.022203
35501	-9.629525	-1.642533	-0.296695	-0.682620	0.109371	-0.722209	0.021985
35502	-9.448953	-1.678682	-0.358440	-0.683155	0.109636	-0.721680	0.021372
35503	-9.554098	-1.601203	-0.565125	-0.683620	0.110059	-0.721197	0.020639
35504	-9.658487	-1.751811	-0.680984	-0.684088	0.110327	-0.720729	0.020060
35505	-9.610464	-1.765898	-0.420167	-0.684545	0.110295	-0.720306	0.019811
35506	-9.591107	-1.662184	-0.303348	-0.684959	0.110288	-0.719920	0.019559
35507	-9.571153	-1.572322	-0.471577	-0.685319	0.110531	-0.719552	0.019138
35508	-9.645968	-1.513305	-0.559077	-0.685656	0.110843	-0.719193	0.018720
35509	-9.700531	-1.612444	-0.568667	-0.685984	0.111310	-0.718822	0.018205
35510	-9.634727	-1.768467	-0.423611	-0.686316	0.111689	-0.718455	0.017810
35511	-9.549401	-1.682953	-0.363926	-0.686597	0.112079	-0.718135	0.017475
35512	-9.527762	-1.570176	-0.646344	-0.686852	0.112677	-0.717809	0.016984
35513	-9.762457	-1.622523	-0.841512	-0.687167	0.113220	-0.717431	0.016616
35514	-9.761046	-1.777336	-0.696322	-0.687555	0.113359	-0.717034	0.016712
35515	-9.588622	-1.532412	-0.261613	-0.687943	0.113415	-0.716647	0.016975
35516	-9.539082	-1.671770	-0.223635	-0.688238	0.113738	-0.716310	0.017062
35517	-9.504940	-1.666469	-0.295043	-0.688448	0.114146	-0.716043	0.017122
35518	-9.647150	-1.640443	-0.459460	-0.688618	0.114712	-0.715789	0.017084
35519	-9.736759	-1.798095	-0.524209	-0.688777	0.115163	-0.715562	0.017190
35520	-9.622366	-1.893693	-0.333531	-0.688935	0.115360	-0.715369	0.017566
35521	-9.499753	-1.789529	-0.160501	-0.689020	0.115492	-0.715255	0.017985
35522	-9.539797	-1.808179	-0.291579	-0.689021	0.115765	-0.715203	0.018256
35523	-9.599549	-1.814525	-0.540502	-0.689021	0.115973	-0.715160	0.018605
35524	-9.680819	-1.773088	-0.626118	-0.689031	0.116130	-0.715115	0.018984
35525	-9.695862	-1.847695	-0.427732	-0.689068	0.116343	-0.715036	0.019304
35526	-9.583057	-1.871707	-0.291679	-0.689080	0.116595	-0.714977	0.019555
35527	-9.540467	-1.850358	-0.281952	-0.689025	0.117020	-0.714960	0.019588
35528	-9.548543	-1.881808	-0.383127	-0.688924	0.117455	-0.714987	0.019548
35529	-9.628220	-1.906535	-0.465023	-0.688805	0.117816	-0.715041	0.019610
35530	-9.580300	-1.896062	-0.487615	-0.688694	0.118014	-0.715110	0.019772
35531	-9.587418	-1.917437	-0.535279	-0.688592	0.118126	-0.715184	0.019979
35532	-9.588716	-1.954055	-0.524626	-0.688500	0.118154	-0.715261	0.020223
35533	-9.565840	-1.922161	-0.501025	-0.688446	0.118170	-0.715305	0.020440
35534	-9.609260	-1.895801	-0.486876	-0.688380	0.118260	-0.715350	0.020530
35535	-9.575935	-1.901596	-0.445225	-0.688314	0.118338	-0.715398	0.020639
35536	-9.544053	-1.828120	-0.400842	-0.688228	0.118409	-0.715467	0.020689
35537	-9.602191	-1.915789	-0.436410	-0.688112	0.118532	-0.715559	0.020664
35538	-9.621237	-1.907128	-0.468663	-0.688008	0.118607	-0.715647	0.020644
35539	-9.570755	-1.937479	-0.507227	-0.687909	0.118611	-0.715741	0.020676
35540	-9.559276	-1.965224	-0.481783	-0.687824	0.118530	-0.715834	0.020755
35541	-9.570467	-1.838380	-0.445385	-0.687730	0.118475	-0.715932	0.020824
35542	-9.599505	-1.781443	-0.441360	-0.687623	0.118551	-0.716023	0.020765
35543	-9.629724	-1.929094	-0.626213	-0.687531	0.118707	-0.716092	0.020567
35544	-9.591485	-1.942364	-0.658603	-0.687476	0.118723	-0.716143	0.020528
35545	-9.554038	-1.862881	-0.763713	-0.687508	0.118661	-0.716123	0.020526
35546	-9.585108	-1.925811	-0.799080	-0.687604	0.118644	-0.716035	0.020454
35547	-9.564529	-2.001089	-0.759838	-0.687774	0.118505	-0.715895	0.020421
35548	-9.644360	-2.000768	-0.724945	-0.688040	0.118303	-0.715674	0.020399
35549	-9.658618	-1.906410	-0.620739	-0.688368	0.117993	-0.715407	0.020469
35550	-9.582585	-1.837615	-0.516651	-0.688725	0.117680	-0.715114	0.020518
35551	-9.595586	-1.905782	-0.558535	-0.689105	0.117314	-0.714806	0.020578
35552	-9.596730	-1.816321	-0.447514	-0.689487	0.116852	-0.714507	0.020798
35553	-9.659031	-1.756305	-0.386099	-0.689869	0.116468	-0.714196	0.020962
35554	-9.570619	-1.789986	-0.387928	-0.690231	0.116099	-0.713902	0.021108
35555	-9.563357	-1.783461	-0.256867	-0.690546	0.115796	-0.713643	0.021246
35556	-9.615621	-1.771832	-0.233830	-0.690813	0.115531	-0.713423	0.021377
35557	-9.595145	-1.668512	-0.166055	-0.691008	0.115430	-0.713251	0.021375
35558	-9.639666	-1.814404	-0.259404	-0.691131	0.115513	-0.713122	0.021254
35559	-9.552806	-1.883303	-0.255121	-0.691221	0.115449	-0.713044	0.021288
35560	-9.550557	-1.761388	-0.210916	-0.691239	0.115366	-0.713039	0.021336
35561	-9.559868	-1.788936	-0.266233	-0.691193	0.115417	-0.713077	0.021289
35562	-9.630765	-1.846055	-0.372024	-0.691121	0.115400	-0.713147	0.021356
35563	-9.675671	-1.826491	-0.412101	-0.691061	0.115197	-0.713230	0.021614
35564	-9.615064	-1.806934	-0.418513	-0.691015	0.114971	-0.713302	0.021915
35565	-9.595822	-1.815199	-0.435158	-0.690955	0.114800	-0.713379	0.022198
35566	-9.617815	-1.838046	-0.539450	-0.690937	0.114658	-0.713411	0.022468
35567	-9.593008	-1.846326	-0.661932	-0.690973	0.114474	-0.713396	0.022761
35568	-9.590347	-1.829694	-0.552143	-0.691072	0.114176	-0.713332	0.023244
35569	-9.578580	-1.784663	-0.386577	-0.691201	0.113826	-0.713247	0.023733
35570	-9.589248	-1.849460	-0.380046	-0.691317	0.113574	-0.713161	0.024153
35571	-9.613725	-1.830207	-0.376263	-0.691424	0.113433	-0.713068	0.024474
35572	-9.615595	-1.865249	-0.359609	-0.691528	0.113406	-0.712966	0.024656
35573	-9.580172	-1.837175	-0.327531	-0.691611	0.113378	-0.712884	0.024811
35574	-9.588094	-1.768386	-0.314250	-0.691671	0.113503	-0.712805	0.024840
35575	-9.627681	-1.851662	-0.436553	-0.691743	0.113635	-0.712715	0.024820
35576	-9.558215	-1.993764	-0.419658	-0.691806	0.113624	-0.712652	0.024945
35577	-9.516059	-1.880351	-0.307847	-0.691890	0.113418	-0.712590	0.025303
35578	-9.602091	-1.725903	-0.165211	-0.691910	0.113503	-0.712555	0.025333
35579	-9.561619	-1.988108	-0.255562	-0.691874	0.113719	-0.712561	0.025223
35580	-9.614414	-1.975611	-0.373498	-0.691829	0.113732	-0.712600	0.025259
35581	-9.635324	-1.798529	-0.389739	-0.691804	0.113837	-0.712611	0.025173
35582	-9.576276	-1.888862	-0.427889	-0.691777	0.114077	-0.712607	0.024949
35583	-9.578398	-1.908577	-0.492845	-0.691767	0.114185	-0.712603	0.024851
35584	-9.599211	-1.921748	-0.497979	-0.691795	0.114161	-0.712580	0.024850
35585	-9.570793	-1.875341	-0.569173	-0.691876	0.114130	-0.712505	0.024883
35586	-9.600788	-1.816044	-0.647676	-0.692018	0.114157	-0.712365	0.024827
35587	-9.648620	-1.917177	-0.723194	-0.692252	0.114244	-0.712129	0.024666
35588	-9.693186	-2.064670	-0.767941	-0.692607	0.114291	-0.711782	0.024497
35589	-9.654229	-1.981268	-0.633368	-0.693078	0.114141	-0.711347	0.024485
35590	-9.589009	-1.820370	-0.431592	-0.693583	0.114066	-0.710869	0.024421
35591	-9.559549	-1.865812	-0.370994	-0.694097	0.113970	-0.710385	0.024363
35592	-9.559914	-1.876927	-0.279469	-0.694615	0.113617	-0.709929	0.024551
35593	-9.591745	-1.875241	-0.177844	-0.695075	0.113262	-0.709527	0.024780
35594	-9.574873	-1.938723	-0.055100	-0.695514	0.112817	-0.709156	0.025100
35595	-9.542699	-1.849600	-0.033088	-0.695879	0.112428	-0.708852	0.025334
35596	-9.603466	-1.855685	-0.052718	-0.696163	0.112094	-0.708620	0.025506
35597	-9.562284	-1.892012	-0.116067	-0.696383	0.111805	-0.708445	0.025614
35598	-9.598480	-1.919108	-0.140000	-0.696558	0.111412	-0.708327	0.025825
35599	-9.554592	-1.856495	-0.096668	-0.696689	0.110948	-0.708262	0.026076
35600	-9.611382	-1.718232	-0.105013	-0.696765	0.110608	-0.708233	0.026292
35601	-9.584158	-1.861794	-0.165479	-0.696796	0.110350	-0.708236	0.026447
35602	-9.554881	-1.906042	-0.161764	-0.696786	0.109910	-0.708301	0.026813
35603	-9.542281	-1.764884	-0.033747	-0.696726	0.109367	-0.708425	0.027292
35604	-9.579275	-1.748708	0.037452	-0.696561	0.108945	-0.708637	0.027707
35605	-9.620057	-1.686276	0.077426	-0.696325	0.108775	-0.708888	0.027896
35606	-9.655488	-1.771238	-0.071977	-0.696037	0.108631	-0.709185	0.028071
35607	-9.673592	-1.639879	-0.156812	-0.695708	0.108783	-0.709487	0.028029
35608	-9.660173	-1.880921	-0.296456	-0.695373	0.108909	-0.709795	0.028048
35609	-9.546940	-1.873036	-0.282989	-0.695048	0.108921	-0.710105	0.028208
35610	-9.619454	-1.877263	-0.325001	-0.694725	0.108871	-0.710421	0.028393
35611	-9.636301	-1.837323	-0.376836	-0.694418	0.108846	-0.710716	0.028603
35612	-9.628633	-1.740826	-0.383781	-0.694149	0.108994	-0.710956	0.028627
35613	-9.638932	-1.871436	-0.509726	-0.693911	0.109182	-0.711160	0.028607
35614	-9.626765	-1.810880	-0.476123	-0.693722	0.109374	-0.711314	0.028616
35615	-9.621203	-1.849039	-0.398619	-0.693566	0.109539	-0.711441	0.028626
35616	-9.591071	-1.896679	-0.399245	-0.693407	0.109735	-0.711565	0.028621
35617	-9.563171	-1.887622	-0.374323	-0.693266	0.109755	-0.711693	0.028785
35618	-9.565803	-1.855267	-0.285100	-0.693123	0.109794	-0.711821	0.028927
35619	-9.624501	-1.866704	-0.230596	-0.692954	0.109924	-0.711963	0.028982
35620	-9.702963	-1.857536	-0.327104	-0.692811	0.110160	-0.712067	0.028955
35621	-9.616671	-1.837829	-0.448739	-0.692694	0.110462	-0.712138	0.028859
35622	-9.601264	-1.824185	-0.384007	-0.692572	0.110892	-0.712199	0.028617
35623	-9.620495	-1.918259	-0.394082	-0.692455	0.111410	-0.712247	0.028253
35624	-9.564436	-1.964090	-0.418604	-0.692353	0.111811	-0.712296	0.027933
35625	-9.582312	-1.780701	-0.208722	-0.692244	0.112200	-0.712353	0.027612
35626	-9.589589	-1.788467	-0.247596	-0.692068	0.113021	-0.712424	0.026846
35627	-9.697208	-1.999385	-0.383755	-0.691913	0.113856	-0.712469	0.026089
35628	-9.616120	-1.951408	-0.510425	-0.691779	0.114438	-0.712527	0.025522
35629	-9.603507	-1.866556	-0.497760	-0.691679	0.114896	-0.712565	0.025095
35630	-9.552382	-1.900625	-0.404792	-0.691580	0.115333	-0.712604	0.024701
35631	-9.558232	-1.899395	-0.344589	-0.691481	0.115638	-0.712661	0.024427
35632	-9.555821	-1.792269	-0.184231	-0.691335	0.115961	-0.712759	0.024156
35633	-9.550723	-1.831467	-0.064181	-0.691092	0.116396	-0.712936	0.023796
35634	-9.538584	-1.847966	-0.077784	-0.690775	0.116881	-0.713177	0.023421
35635	-9.572892	-1.778433	-0.095637	-0.690352	0.117472	-0.713502	0.022997
35636	-9.497563	-1.918271	-0.245750	-0.689835	0.118103	-0.713913	0.022548
35637	-9.558563	-1.945322	-0.397955	-0.689304	0.118396	-0.714380	0.022440
35638	-9.661118	-1.825375	-0.403304	-0.688772	0.118590	-0.714863	0.022385
35639	-9.583692	-1.857063	-0.434380	-0.688203	0.118942	-0.715357	0.022229
35640	-9.484318	-1.953853	-0.463687	-0.687606	0.119139	-0.715899	0.022193
35641	-9.422503	-1.927028	-0.385845	-0.687009	0.119183	-0.716462	0.022300
35642	-9.539277	-1.718538	-0.210203	-0.686322	0.119747	-0.717039	0.021861
35643	-9.569772	-2.093941	-0.577506	-0.685574	0.120611	-0.717634	0.021052
35644	-9.693032	-2.091692	-0.716110	-0.684900	0.121138	-0.718203	0.020547
35645	-9.672005	-1.902134	-0.842846	-0.684324	0.121600	-0.718686	0.020102
35646	-9.643690	-1.779983	-0.793395	-0.683840	0.122267	-0.719052	0.019457
35647	-9.466712	-2.107941	-1.025511	-0.683390	0.123067	-0.719363	0.018672
35648	-9.489570	-1.981226	-1.098391	-0.683127	0.123049	-0.719615	0.018749
35649	-9.548202	-1.598465	-1.091183	-0.682970	0.123051	-0.719762	0.018782
35650	-9.570221	-1.734961	-1.101036	-0.682930	0.123428	-0.719742	0.018561
35651	-9.731615	-1.984416	-1.090193	-0.683066	0.123807	-0.719553	0.018361
35652	-9.711447	-1.835153	-0.739462	-0.683355	0.123991	-0.719244	0.018427
35653	-9.581816	-1.722286	-0.357922	-0.683632	0.124831	-0.718849	0.017887
35654	-9.543697	-1.740698	-0.195685	-0.683828	0.125936	-0.718486	0.017243
35655	-9.529281	-1.858326	-0.311416	-0.683858	0.127064	-0.718271	0.016708
35656	-9.613175	-1.646696	-0.049984	-0.683871	0.127126	-0.718230	0.017461
35657	-9.418533	-1.630953	-0.132459	-0.683658	0.127276	-0.718385	0.018327
35658	-9.457554	-1.471368	-0.146069	-0.683257	0.127633	-0.718678	0.019262
35659	-9.632404	-1.504818	-0.195925	-0.682697	0.128168	-0.719087	0.020286
35660	-9.627414	-1.711938	-0.110582	-0.681956	0.129053	-0.719603	0.021289
35661	-9.540669	-1.906263	-0.089451	-0.681151	0.129202	-0.720275	0.023319
35662	-9.677842	-1.224212	0.110786	-0.680095	0.129660	-0.721116	0.025498
35663	-9.741069	-1.231826	0.239109	-0.678700	0.130533	-0.722191	0.027704
35664	-9.587139	-1.465809	0.431244	-0.676918	0.131373	-0.723602	0.030407
35665	-9.553932	-1.519867	1.141944	-0.674651	0.131753	-0.725484	0.034078
35666	-9.510550	-1.463860	1.725006	-0.671617	0.132406	-0.727983	0.037944
35667	-9.650690	-1.872065	1.981239	-0.667550	0.133715	-0.731283	0.041506
35668	-10.009671	-2.482757	2.174843	-0.662429	0.134870	-0.735473	0.045578
35669	-10.858898	-2.998570	2.582203	-0.656127	0.135733	-0.740651	0.050102
35670	-12.186828	-3.760192	3.168004	-0.648557	0.135958	-0.746887	0.055225
35671	-13.655439	-5.140785	3.130683	-0.639568	0.135472	-0.754251	0.060872
35672	-13.606268	-5.635929	2.465758	-0.629725	0.133697	-0.762236	0.067589
35673	-13.303076	-5.735101	0.582950	-0.619173	0.132178	-0.770623	0.072760
35674	-13.566117	-6.277256	-1.995732	-0.608975	0.128904	-0.778709	0.078388
35675	-13.349408	-5.045409	-3.373427	-0.599882	0.123050	-0.785929	0.085532
35676	-12.939503	-3.978914	-4.052155	-0.592161	0.115135	-0.792123	0.092903
35677	-12.400374	-3.794591	-3.441327	-0.585731	0.105353	-0.797340	0.100341
35678	-11.219550	-3.254362	-3.825577	-0.580799	0.093500	-0.801253	0.109194
35679	-10.326098	-2.100372	-4.444164	-0.576995	0.081504	-0.804125	0.117548
35680	-9.292701	-2.145293	-6.412623	-0.572696	0.070901	-0.807300	0.123526
35681	-9.801212	-3.229798	-5.679837	-0.567736	0.059575	-0.810577	0.130734
35682	-10.229615	-2.006701	-4.719268	-0.563066	0.047313	-0.813141	0.139710
35683	-10.620354	-0.437359	-4.130015	-0.558970	0.036556	-0.815468	0.145698
35684	-10.807531	-1.320669	-4.626338	-0.555214	0.028219	-0.818151	0.146863
35685	-10.149761	-3.314213	-5.295577	-0.551338	0.020057	-0.821034	0.146720
35686	-9.686941	-3.645087	-5.777367	-0.546997	0.009696	-0.823671	0.149216
35687	-9.628943	-2.125062	-5.592971	-0.542261	-0.001657	-0.826047	0.153609
35688	-9.825146	-0.905852	-5.311104	-0.537362	-0.011869	-0.828541	0.156912
35689	-9.182728	-0.461931	-5.303556	-0.532555	-0.019910	-0.831332	0.157723
35690	-8.877955	-0.920761	-5.391981	-0.527808	-0.026064	-0.834380	0.156683
35691	-8.910460	-1.274246	-5.279765	-0.523305	-0.030472	-0.837588	0.153851
35692	-9.752829	-1.596577	-5.609825	-0.518879	-0.034142	-0.840804	0.150492
35693	-10.859368	-1.669478	-5.525674	-0.514856	-0.036769	-0.843902	0.146291
35694	-11.009121	-1.787803	-5.796794	-0.511208	-0.038329	-0.846855	0.141540
35695	-10.464724	-2.318910	-5.394965	-0.507779	-0.039314	-0.849701	0.136465
35696	-9.702957	-2.677699	-5.409023	-0.504879	-0.039421	-0.852290	0.130940
35697	-9.077294	-2.494468	-5.390805	-0.502519	-0.039642	-0.854383	0.126223
35698	-8.920893	-2.140422	-5.627410	-0.500958	-0.039557	-0.855939	0.121834
35699	-8.832645	-2.036774	-5.423914	-0.500148	-0.039039	-0.857073	0.117281
35700	-8.511777	-2.074683	-5.047345	-0.500131	-0.038386	-0.857682	0.113036
35701	-7.328208	-1.982089	-4.957980	-0.501002	-0.037431	-0.857791	0.108587
35702	-6.209979	-1.852062	-4.932057	-0.502545	-0.036025	-0.857523	0.103953
35703	-5.447910	-2.020381	-4.454436	-0.504762	-0.033956	-0.856812	0.099673
35704	-4.687877	-2.073771	-4.469008	-0.507517	-0.031605	-0.855646	0.096418
35705	-4.098830	-1.805341	-4.241195	-0.510785	-0.029047	-0.854066	0.093951
35706	-3.485158	-1.744411	-3.598671	-0.514623	-0.026492	-0.852096	0.091622
35707	-2.731933	-1.963912	-3.417754	-0.518644	-0.024042	-0.849967	0.089372
35708	-2.307282	-2.536406	-3.058094	-0.522473	-0.022000	-0.847842	0.087759
35709	-1.672688	-2.354137	-2.371357	-0.525753	-0.020876	-0.845852	0.087649
35710	-1.015410	-1.548484	-2.002470	-0.528313	-0.019918	-0.844226	0.088155
35711	-0.959993	-1.444160	-1.719961	-0.530173	-0.018658	-0.843077	0.088256
35712	-1.045706	-1.744128	-1.291080	-0.531096	-0.016923	-0.842593	0.087676
35713	-0.881971	-2.250636	-1.261346	-0.530809	-0.015310	-0.842828	0.087456
35714	-1.643843	-2.197951	-1.377638	-0.529356	-0.013706	-0.843739	0.087745
35715	-2.198303	-2.263278	-1.497996	-0.527026	-0.011557	-0.845219	0.087828
35716	-1.905272	-3.016778	-1.839863	-0.523669	-0.009341	-0.847238	0.088716
35717	-2.564785	-2.985252	-2.258281	-0.519565	-0.007550	-0.849524	0.091126
35718	-3.067314	-2.396302	-2.427398	-0.514957	-0.005699	-0.852023	0.094044
35719	-3.364953	-2.668559	-3.118846	-0.510020	-0.003434	-0.854725	0.096504
35720	-3.925043	-3.233255	-3.494218	-0.504925	-0.001417	-0.857431	0.099306
35721	-4.148051	-3.290551	-4.148378	-0.499756	-0.000070	-0.860040	0.102836
35722	-4.761330	-3.113425	-4.262053	-0.494909	0.000745	-0.862352	0.106835
35723	-5.237775	-3.072802	-4.720975	-0.490513	0.001394	-0.864361	0.110795
35724	-5.458826	-3.258115	-4.543044	-0.486384	0.001753	-0.866106	0.115276
35725	-4.721594	-3.271964	-4.380852	-0.482371	0.002080	-0.867670	0.120256
35726	-3.900591	-2.928181	-4.818402	-0.478588	0.002001	-0.868957	0.125949
35727	-3.806529	-2.485962	-5.626536	-0.475291	0.001867	-0.869963	0.131375
35728	-5.017901	-2.144472	-6.000151	-0.473119	0.002093	-0.870434	0.136011
35729	-6.754386	-2.757186	-6.239113	-0.471991	0.002501	-0.870360	0.140328
35730	-7.907554	-2.837563	-5.787989	-0.471907	0.003174	-0.869650	0.144924
35731	-7.582552	-2.136389	-5.997423	-0.472787	0.004752	-0.868482	0.148957
35732	-6.632552	-2.039850	-6.630618	-0.474708	0.006842	-0.866888	0.152026
35733	-7.805492	-2.346422	-7.511651	-0.477929	0.010767	-0.864977	0.152588
35734	-9.667242	-2.828653	-7.120235	-0.482471	0.015362	-0.862315	0.152965
35735	-10.956329	-3.410151	-7.062184	-0.487813	0.019500	-0.858880	0.154865
35736	-10.342350	-3.454154	-5.786323	-0.493292	0.024302	-0.855326	0.156494
35737	-9.432793	-3.633846	-5.967918	-0.498952	0.030518	-0.851856	0.156386
35738	-10.376800	-3.397326	-6.304836	-0.505620	0.037525	-0.847796	0.155508
35739	-12.664745	-2.865649	-6.811907	-0.513474	0.044643	-0.842688	0.155651
35740	-12.477493	-2.556733	-5.019844	-0.521802	0.054142	-0.837457	0.153161
35741	-11.990949	-2.445233	-5.203579	-0.529918	0.064760	-0.832556	0.147795
35742	-11.620231	-3.208429	-5.064290	-0.537543	0.076036	-0.827941	0.140636
35743	-10.780872	-4.192478	-5.318742	-0.545104	0.086790	-0.822952	0.134461
35744	-11.039435	-3.850819	-5.240939	-0.553123	0.097150	-0.817370	0.128543
35745	-12.596931	-3.881332	-3.902702	-0.561395	0.106435	-0.811477	0.122525
35746	-12.525559	-4.779148	-3.363509	-0.569576	0.114243	-0.805570	0.116569
35747	-11.545566	-4.265125	-2.539796	-0.577479	0.120077	-0.799750	0.111800
35748	-10.637342	-3.289040	-2.434034	-0.585190	0.124535	-0.794080	0.107152
35749	-8.164713	-2.182886	-5.889240	-0.589972	0.130223	-0.790693	0.098891
35750	-12.039144	-4.473205	-2.736036	-0.592819	0.130541	-0.788763	0.096836
35751	-10.578266	-3.352692	-2.155751	-0.597635	0.130255	-0.785216	0.096448
35752	-8.733130	-2.481271	-0.022668	-0.603943	0.130599	-0.780758	0.092811
35753	-9.828840	-4.456959	-2.464600	-0.609869	0.131450	-0.776620	0.087418
35754	-11.036387	-5.974187	-1.916880	-0.615594	0.128013	-0.772541	0.088533
35755	-9.844290	-2.909708	-1.550537	-0.621488	0.122599	-0.768274	0.092076
35756	-10.216256	-0.702021	-0.867006	-0.626923	0.118644	-0.764276	0.093670
35757	-11.516807	-0.224281	-0.915957	-0.631960	0.118545	-0.760501	0.090617
35758	-11.786320	-1.938671	-1.443291	-0.637257	0.118270	-0.756492	0.087381
35759	-11.199600	-1.052902	-0.637012	-0.643023	0.116264	-0.752097	0.085757
35760	-11.189796	-0.431935	-0.943181	-0.648753	0.115384	-0.747653	0.082587
35761	-10.594926	-2.481197	-2.233475	-0.654531	0.115878	-0.743002	0.078162
35762	-10.214739	-3.292804	-2.592164	-0.660990	0.114409	-0.737707	0.076105
35763	-10.811284	-3.097533	-2.053497	-0.668077	0.111696	-0.731772	0.075543
35764	-11.024632	-3.164548	-0.633655	-0.675443	0.109217	-0.725432	0.074813
35765	-10.859151	-3.881842	0.639947	-0.682653	0.106895	-0.719044	0.074385
35766	-9.814469	-3.169641	2.565057	-0.689263	0.104394	-0.713094	0.074260
35767	-8.634200	-2.361701	4.228156	-0.694468	0.103534	-0.708340	0.072459
35768	-8.333420	-2.435472	5.027485	-0.698007	0.103585	-0.705107	0.069867
35769	-8.381418	-2.456167	4.692967	-0.699952	0.103388	-0.703438	0.067483
35770	-8.552358	-1.747566	4.825525	-0.700248	0.103260	-0.703384	0.065124
35771	-8.837801	-1.738129	3.646331	-0.699065	0.103998	-0.704719	0.062158
35772	-9.410171	-2.380406	2.060839	-0.697001	0.103334	-0.706985	0.060692
35773	-9.695755	-2.283464	1.150536	-0.694438	0.101022	-0.709815	0.060944
35774	-9.497330	-1.894280	0.655277	-0.691530	0.098181	-0.712965	0.061867
35775	-9.371879	-1.521367	0.469972	-0.688291	0.096258	-0.716339	0.062034
35776	-9.554751	-1.791611	-0.153228	-0.684823	0.096024	-0.719823	0.060432
35777	-9.749760	-1.989051	-0.592795	-0.681379	0.096450	-0.723197	0.058355
35778	-9.891536	-1.886787	-0.958386	-0.677975	0.097432	-0.726472	0.055637
35779	-9.634375	-2.121973	-0.792452	-0.674591	0.098713	-0.729667	0.052616
35780	-9.297897	-2.149976	-0.245875	-0.670982	0.099442	-0.733054	0.050261
35781	-9.024679	-2.109660	0.370349	-0.667057	0.099396	-0.736738	0.048709
35782	-8.873808	-2.353459	0.165143	-0.662457	0.099151	-0.741001	0.047298
35783	-9.186828	-2.280374	0.030630	-0.657270	0.097875	-0.745794	0.046987
35784	-9.276194	-1.712568	-0.171627	-0.651560	0.096457	-0.750973	0.046965
35785	-9.182597	-1.561297	0.069755	-0.645138	0.095270	-0.756667	0.046649
35786	-9.119567	-1.368718	0.559470	-0.637903	0.094453	-0.762925	0.045880
35787	-9.106104	-1.776172	-1.102729	-0.630149	0.095242	-0.769419	0.042857
35788	-8.883312	-2.327548	-2.704685	-0.622307	0.096075	-0.775861	0.039287
35789	-9.003338	-2.092676	-3.297211	-0.614819	0.096796	-0.781892	0.035664
35790	-9.287717	-1.631224	-4.168261	-0.608068	0.097639	-0.787235	0.031326
35791	-9.078654	-1.857974	-6.347930	-0.602431	0.098830	-0.791598	0.026122
35792	-8.734309	-1.842690	-5.958210	-0.598040	0.099617	-0.794960	0.021508
35793	-9.152968	-1.015226	-4.537594	-0.594969	0.100156	-0.797301	0.017084
35794	-9.671332	-1.110676	-4.863184	-0.592767	0.102063	-0.798815	0.010214
35795	-9.871420	-1.881479	-4.545633	-0.591359	0.104315	-0.799629	0.002356
35796	-9.929755	-2.439550	-4.789156	-0.590762	0.105115	-0.799960	-0.003936
35797	-9.724415	-2.158337	-5.561881	-0.591024	0.105250	-0.799699	-0.009677
35798	-9.502997	-2.070372	-5.147705	-0.592162	0.104656	-0.798855	-0.014884
35799	-9.689473	-2.125298	-5.080489	-0.594200	0.103107	-0.797438	-0.019688
35800	-9.426914	-2.233495	-4.247629	-0.596872	0.100615	-0.795655	-0.023524
35801	-9.714269	0.261960	-2.554374	-0.599815	0.097825	-0.793683	-0.026822
35802	-9.421829	1.935797	-2.388412	-0.602500	0.096987	-0.791549	-0.032203
35803	-9.576951	0.376470	-2.094740	-0.604820	0.097016	-0.789518	-0.037988
35804	-9.521443	-0.554547	-2.109501	-0.607232	0.095366	-0.787717	-0.040945
35805	-9.802623	0.424268	-2.343431	-0.609541	0.093434	-0.786064	-0.042803
35806	-9.562623	0.425010	-2.921939	-0.611728	0.092670	-0.784303	-0.045483
35807	-9.463203	-0.702663	-2.693020	-0.613907	0.091762	-0.782575	-0.047676
35808	-9.582865	-0.425849	-2.264859	-0.616250	0.089325	-0.781014	-0.047695
35809	-9.351096	-0.090307	-1.560062	-0.618359	0.086939	-0.779618	-0.047649
35810	-9.402230	-1.113873	-2.037405	-0.619907	0.085162	-0.778519	-0.048699
35811	-9.962989	-1.660300	-2.705578	-0.621837	0.081362	-0.777461	-0.047461
35812	-9.553563	-0.507285	-2.705292	-0.624116	0.076109	-0.776383	-0.043778
35813	-9.328157	0.434473	-1.965174	-0.626331	0.070692	-0.775323	-0.039822
35814	-9.364329	0.058633	-1.836863	-0.628054	0.065799	-0.774538	-0.036185
35815	-9.947727	-1.359156	-2.169713	-0.629322	0.060648	-0.774126	-0.031691
35816	-9.921686	-0.871676	-2.090715	-0.630613	0.053549	-0.773859	-0.024533
35817	-9.658887	-0.304554	-1.696378	-0.631892	0.046591	-0.773455	-0.017572
35818	-9.610900	-0.052769	-1.492753	-0.633069	0.038700	-0.773071	-0.009267
35819	-9.793514	1.917076	-0.925052	-0.634246	0.031894	-0.772471	-0.002016
35820	-9.163340	1.918238	-1.129649	-0.635073	0.027457	-0.771960	0.002654
35821	-9.034548	0.847147	-1.029411	-0.635524	0.024159	-0.771678	0.006203
35822	-9.345949	0.145541	-0.977382	-0.635715	0.022114	-0.771564	0.008194
35823	-9.380640	-0.785523	-1.386068	-0.635647	0.021597	-0.771634	0.008197
35824	-9.572770	-1.229052	-1.904445	-0.635296	0.021171	-0.771939	0.007808
35825	-9.520514	-1.476840	-1.792545	-0.634712	0.019185	-0.772457	0.009055
35826	-9.613489	-0.530278	-1.764517	-0.633997	0.014887	-0.773086	0.012782
35827	-9.786705	-0.577584	-1.745941	-0.633100	0.009932	-0.773821	0.016949
35828	-9.597298	-0.573518	-1.480379	-0.632030	0.003765	-0.774612	0.022380
35829	-9.254146	0.753877	-0.669438	-0.630748	-0.001939	-0.775508	0.027200
35830	-9.165315	0.588888	-0.870833	-0.629296	-0.004493	-0.776636	0.028339
35831	-9.402403	-0.703881	-1.674266	-0.627616	-0.006354	-0.777959	0.028946
35832	-9.553022	0.383284	-1.959588	-0.625942	-0.008188	-0.779248	0.030024
35833	-9.263350	1.337589	-1.871194	-0.624592	-0.008953	-0.780320	0.030092
35834	-9.163078	1.668266	-2.100797	-0.623759	-0.007909	-0.781072	0.028102
35835	-9.054472	1.544272	-2.361668	-0.623557	-0.004719	-0.781407	0.023600
35836	-8.577154	0.799858	-3.892378	-0.623751	-0.001094	-0.781404	0.018488
35837	-7.734739	2.571762	-2.939281	-0.624287	0.004140	-0.781109	0.010871
35838	-9.009765	-1.504010	-3.464140	-0.624511	0.011666	-0.780929	0.000570
35839	-10.459542	-3.106584	-2.444010	-0.624843	0.016847	-0.780542	-0.006441
35840	-10.685969	-1.923933	-2.100344	-0.625267	0.021574	-0.780005	-0.012959
35841	-10.452684	-0.671954	-2.372879	-0.625757	0.025477	-0.779388	-0.018255
35842	-9.592746	0.302485	-2.795075	-0.626406	0.029330	-0.778590	-0.023517
35843	-9.264468	-0.236562	-3.329929	-0.627342	0.032831	-0.777528	-0.028530
35844	-9.621858	-0.194170	-2.872536	-0.628527	0.036098	-0.776238	-0.033252
35845	-10.165765	-0.477736	-2.586234	-0.629838	0.039526	-0.774781	-0.038166
35846	-10.130910	-0.424207	-2.366801	-0.631387	0.041958	-0.773201	-0.041841
35847	-9.632584	-0.164606	-2.253742	-0.633092	0.043650	-0.771555	-0.044632
35848	-9.550319	-1.175385	-2.801061	-0.634893	0.044363	-0.769913	-0.046664
35849	-10.209768	-0.138574	-2.412110	-0.636856	0.043958	-0.768272	-0.047330
35850	-9.953202	0.951626	-2.229159	-0.638964	0.044123	-0.766442	-0.048425
35851	-9.282015	0.339671	-2.035252	-0.641097	0.043757	-0.764662	-0.048711
35852	-9.312955	0.618589	-1.365556	-0.643283	0.042542	-0.762943	-0.047902
35853	-9.940832	0.116648	-1.333535	-0.645422	0.041883	-0.761183	-0.047710
35854	-10.093316	0.336919	-1.835110	-0.647626	0.041337	-0.759358	-0.047417
35855	-9.897883	0.485677	-2.482878	-0.649774	0.040778	-0.757589	-0.046798
35856	-9.518639	0.038677	-1.993897	-0.652013	0.039561	-0.755825	-0.045199
35857	-9.270268	-0.123750	-1.263532	-0.654250	0.036910	-0.754209	-0.041983
35858	-9.995701	0.957816	-0.737453	-0.656589	0.034679	-0.752430	-0.039215
35859	-10.370202	0.278634	-1.462732	-0.659035	0.034737	-0.750306	-0.038824
35860	-9.873870	-0.685835	-1.722550	-0.661544	0.033573	-0.748251	-0.036767
35861	-9.194291	0.869678	-0.828737	-0.664065	0.030530	-0.746352	-0.032325
35862	-8.840484	1.039525	-0.202991	-0.666394	0.028105	-0.744521	-0.028615
35863	-9.656398	0.327924	-0.146562	-0.668579	0.027321	-0.742653	-0.026880
35864	-10.149243	-0.679191	-0.602808	-0.670631	0.027981	-0.740785	-0.026606
35865	-10.284741	0.370841	-0.911162	-0.672661	0.028599	-0.738945	-0.025881
35866	-9.970821	1.273663	-1.093189	-0.674738	0.029551	-0.737044	-0.024942
35867	-9.160848	1.411155	-0.949437	-0.676797	0.030075	-0.735187	-0.023269
35868	-9.015053	0.672960	-0.447542	-0.678770	0.030958	-0.733363	-0.022161
35869	-10.040988	-0.848805	-0.452126	-0.680669	0.032669	-0.731526	-0.022160
35870	-10.129923	-0.218269	-0.325667	-0.682624	0.035842	-0.729507	-0.023642
35871	-9.827118	-0.530245	-1.266946	-0.684586	0.041123	-0.727258	-0.027317
35872	-9.774419	-1.547809	-1.777923	-0.686607	0.042166	-0.725327	-0.026317
35873	-9.695884	1.369771	-0.679391	-0.688791	0.040859	-0.723450	-0.022727
35874	-9.482288	0.671042	-0.169038	-0.690784	0.041156	-0.721592	-0.020696
35875	-9.744792	-0.106066	0.102316	-0.692680	0.042117	-0.719756	-0.019259
35876	-9.583768	0.339068	0.798323	-0.694483	0.044388	-0.717880	-0.019293
35877	-9.448592	0.940422	0.888090	-0.695992	0.049829	-0.715960	-0.022662
35878	-9.856063	-0.353383	-0.248780	-0.697115	0.057381	-0.714111	-0.027970
35879	-9.798202	-0.903223	-0.553570	-0.698202	0.062588	-0.712499	-0.030688
35880	-9.649035	-0.230346	-0.747532	-0.699490	0.065528	-0.710958	-0.030964
35881	-9.545286	0.121951	-0.433255	-0.700852	0.067700	-0.709435	-0.030417
35882	-9.187603	-1.049905	-0.596133	-0.702318	0.068815	-0.707932	-0.029097
35883	-9.637238	0.249871	0.541173	-0.703705	0.069987	-0.706491	-0.027776
35884	-10.127686	-0.298221	0.795612	-0.704848	0.073836	-0.704914	-0.028881
35885	-9.688208	-0.782702	1.081858	-0.705708	0.077513	-0.703639	-0.029326
35886	-9.743309	-0.048826	1.259314	-0.706205	0.080780	-0.702787	-0.028982
35887	-9.793702	-0.504401	0.548252	-0.706412	0.083798	-0.702264	-0.028013
35888	-9.858725	-1.263746	-0.389115	-0.706594	0.085459	-0.701980	-0.025411
35889	-9.918659	-1.004075	-0.685716	-0.706937	0.085742	-0.701739	-0.021211
35890	-9.899586	-0.409532	-0.482237	-0.707411	0.086370	-0.701296	-0.017111
35891	-9.748063	-0.607096	-0.504457	-0.707988	0.087874	-0.700603	-0.013683
35892	-9.680719	-0.644818	0.222454	-0.708650	0.089374	-0.699805	-0.009999
35893	-9.588761	-0.711910	0.722013	-0.709228	0.091042	-0.699047	-0.006301
35894	-9.497615	-0.772359	0.914523	-0.709556	0.092978	-0.698483	-0.002677
35895	-9.567734	-1.175715	0.637473	-0.709687	0.094867	-0.698100	0.001159
35896	-9.656844	-1.387322	0.630154	-0.709715	0.095850	-0.697911	0.006034
35897	-9.580941	-1.575195	0.629663	-0.709618	0.096101	-0.697905	0.011657
35898	-9.584982	-1.844605	1.061565	-0.709355	0.095490	-0.698116	0.018192
35899	-9.260263	-2.334128	0.857271	-0.708807	0.094285	-0.698624	0.025031
35900	-9.302308	-2.586163	0.771964	-0.708060	0.092102	-0.699371	0.032386
35901	-9.385608	-2.464694	0.647278	-0.707100	0.089962	-0.700266	0.039284
35902	-9.283616	-2.291493	0.470419	-0.705979	0.088205	-0.701255	0.045339
35903	-9.373305	-2.005264	0.196365	-0.704737	0.087575	-0.702269	0.049958
35904	-9.516177	-2.421654	-0.311053	-0.703461	0.087546	-0.703293	0.053446
35905	-9.550213	-2.743884	-0.591820	-0.702369	0.087060	-0.704170	0.056946
35906	-9.539808	-2.344446	-0.286924	-0.701446	0.086365	-0.704910	0.060140
35907	-9.478860	-2.381127	-0.230560	-0.700602	0.086236	-0.705574	0.062339
35908	-9.716161	-2.067175	-0.062563	-0.699834	0.087224	-0.706149	0.063071
35909	-9.631820	-2.803023	-0.558519	-0.699054	0.089127	-0.706731	0.062534
35910	-9.564988	-2.786861	-0.577378	-0.698462	0.090109	-0.707178	0.062692
35911	-9.777224	-2.204989	-0.401392	-0.698004	0.090888	-0.707531	0.062687
35912	-9.721572	-2.302756	-0.423814	-0.697607	0.091702	-0.707837	0.062468
35913	-9.389577	-2.484979	-0.381172	-0.697337	0.092048	-0.708047	0.062585
35914	-9.479683	-1.968792	-0.162760	-0.697122	0.092410	-0.708218	0.062523
35915	-9.578670	-1.781769	0.093318	-0.696861	0.093628	-0.708404	0.061491
35916	-9.448442	-2.220375	-0.203892	-0.696510	0.095586	-0.708649	0.059613
35917	-9.476859	-2.259228	-0.098581	-0.696169	0.097029	-0.708898	0.058283
35918	-9.658779	-1.712261	0.251775	-0.695801	0.098557	-0.709164	0.056866
35919	-9.648892	-2.187366	-0.043367	-0.695278	0.100597	-0.709543	0.054929
35920	-9.508151	-2.776049	-0.237968	-0.694746	0.101482	-0.709999	0.054140
35921	-9.504008	-2.295131	-0.210080	-0.694243	0.101455	-0.710491	0.054182
35922	-9.548493	-2.161752	-0.150963	-0.693657	0.101307	-0.711077	0.054270
35923	-9.438344	-1.968018	-0.085920	-0.692994	0.101660	-0.711697	0.053960
35924	-9.533659	-2.045560	-0.279734	-0.692265	0.102255	-0.712359	0.053458
35925	-9.662822	-1.927529	-0.362660	-0.691587	0.102666	-0.712979	0.053178
35926	-9.669087	-2.174876	-0.565550	-0.690927	0.102876	-0.713598	0.053054
35927	-9.492162	-2.389825	-0.521405	-0.690340	0.102614	-0.714181	0.053353
35928	-9.519275	-2.110677	-0.568194	-0.689811	0.102303	-0.714709	0.053719
35929	-9.575769	-1.874753	-0.584670	-0.689299	0.102600	-0.715178	0.053476
35930	-9.534479	-2.169923	-0.615331	-0.688804	0.103263	-0.715608	0.052820
35931	-9.572505	-2.477530	-0.671138	-0.688368	0.103462	-0.716017	0.052582
35932	-9.544799	-2.317378	-0.553210	-0.688007	0.102763	-0.716416	0.053236
35933	-9.495725	-1.896617	-0.356716	-0.687654	0.102104	-0.716800	0.053893
35934	-9.626060	-1.947178	-0.547435	-0.687325	0.101896	-0.717128	0.054124
35935	-9.691187	-2.237882	-0.798413	-0.687030	0.101896	-0.717409	0.054146
35936	-9.605570	-2.462755	-0.859652	-0.686875	0.101424	-0.717596	0.054514
35937	-9.646714	-2.129017	-0.729958	-0.686857	0.100646	-0.717672	0.055180
35938	-9.510002	-1.901629	-0.640480	-0.686878	0.100303	-0.717684	0.055388
35939	-9.471634	-1.956682	-0.505517	-0.686923	0.100498	-0.717642	0.055019
35940	-9.556538	-2.279402	-0.614327	-0.686996	0.100785	-0.717570	0.054515
35941	-9.693390	-2.076461	-0.704546	-0.687158	0.100876	-0.717428	0.054175
35942	-9.634397	-2.016402	-0.588245	-0.687392	0.101050	-0.717211	0.053761
35943	-9.458556	-2.243407	-0.660377	-0.687645	0.101158	-0.716977	0.053443
35944	-9.425807	-2.136823	-0.392582	-0.687915	0.101068	-0.716740	0.053307
35945	-9.461383	-2.027534	-0.282473	-0.688177	0.101108	-0.716505	0.053015
35946	-9.530034	-1.962730	-0.300150	-0.688364	0.101365	-0.716328	0.052489
35947	-9.442072	-2.095782	-0.277385	-0.688488	0.101599	-0.716209	0.052023
35948	-9.376211	-2.038965	-0.139262	-0.688551	0.101484	-0.716170	0.051952
35949	-9.400475	-1.843571	0.064830	-0.688484	0.101467	-0.716245	0.051841
35950	-9.457321	-1.932523	-0.055685	-0.688259	0.101705	-0.716451	0.051524
35951	-9.595511	-2.103098	-0.305914	-0.687968	0.101904	-0.716711	0.051397
35952	-9.600402	-2.060294	-0.544576	-0.687691	0.101755	-0.716979	0.051648
35953	-9.510095	-2.032836	-0.657494	-0.687455	0.101343	-0.717225	0.052177
35954	-9.463947	-1.959443	-0.414795	-0.687227	0.100872	-0.717462	0.052849
35955	-9.428907	-2.055422	-0.470843	-0.686963	0.100498	-0.717721	0.053461
35956	-9.507929	-2.046574	-0.396177	-0.686683	0.100054	-0.717994	0.054218
35957	-9.649194	-1.937113	-0.438645	-0.686421	0.099705	-0.718237	0.054964
35958	-9.763805	-1.947437	-0.774553	-0.686193	0.099501	-0.718428	0.055678
35959	-9.635978	-2.153003	-0.821929	-0.686071	0.099110	-0.718527	0.056600
35960	-9.569678	-2.188289	-0.838511	-0.686057	0.098461	-0.718529	0.057858
35961	-9.623314	-2.040934	-0.837462	-0.686148	0.097755	-0.718430	0.059179
35962	-9.578567	-1.966016	-0.775229	-0.686331	0.097254	-0.718227	0.060348
35963	-9.516074	-2.145507	-0.748873	-0.686566	0.096898	-0.717963	0.061375
35964	-9.553405	-2.154513	-0.530301	-0.686860	0.096475	-0.717645	0.062465
35965	-9.579755	-2.249225	-0.413609	-0.687174	0.095983	-0.717309	0.063622
35966	-9.526904	-2.142442	-0.338749	-0.687471	0.095396	-0.716988	0.064893
35967	-9.404562	-2.086326	-0.275414	-0.687723	0.094859	-0.716702	0.066155
35968	-9.471451	-2.059573	-0.075033	-0.687902	0.094360	-0.716478	0.067425
35969	-9.489360	-2.245924	-0.176195	-0.688017	0.094113	-0.716292	0.068566
35970	-9.550765	-2.182702	-0.074395	-0.688046	0.093555	-0.716191	0.070078
35971	-9.597939	-2.005855	-0.025890	-0.687978	0.093027	-0.716166	0.071676
35972	-9.623179	-2.102744	-0.108609	-0.687830	0.092482	-0.716208	0.073373
35973	-9.395669	-2.181262	-0.251411	-0.687584	0.091984	-0.716331	0.075079
35974	-9.439296	-2.294633	-0.150295	-0.687257	0.091084	-0.716535	0.077201
35975	-9.414327	-2.066347	-0.040857	-0.686820	0.090473	-0.716823	0.079107
35976	-9.476336	-2.248571	-0.072410	-0.686266	0.090035	-0.717205	0.080934
35977	-9.535790	-2.255498	-0.120161	-0.685656	0.089616	-0.717634	0.082748
35978	-9.573368	-2.060341	-0.172086	-0.684986	0.089458	-0.718107	0.084343
35979	-9.621173	-2.214136	-0.324613	-0.684249	0.089667	-0.718634	0.085605
35980	-9.526168	-2.386034	-0.579032	-0.683499	0.089828	-0.719164	0.086964
35981	-9.389273	-2.446657	-0.614483	-0.682775	0.089688	-0.719666	0.088626
35982	-9.424954	-2.457728	-0.566981	-0.682069	0.089537	-0.720151	0.090263
35983	-9.573606	-2.351873	-0.554749	-0.681409	0.089400	-0.720582	0.091934
35984	-9.626947	-2.277827	-0.770932	-0.680813	0.089771	-0.720960	0.093013
35985	-9.562522	-2.550539	-0.907701	-0.680291	0.090409	-0.721269	0.093816
35986	-9.456306	-2.657755	-0.869299	-0.679879	0.090871	-0.721481	0.094723
35987	-9.527812	-2.684598	-0.790067	-0.679604	0.091218	-0.721577	0.095629
35988	-9.539064	-2.552069	-0.798915	-0.679445	0.091637	-0.721567	0.096424
35989	-9.441567	-2.581810	-0.828133	-0.679351	0.092176	-0.721504	0.097046
35990	-9.386573	-2.580772	-0.674071	-0.679342	0.092670	-0.721364	0.097681
35991	-9.376817	-2.496028	-0.510104	-0.679342	0.093343	-0.721217	0.098123
35992	-9.444338	-2.575666	-0.545712	-0.679358	0.094317	-0.721062	0.098218
35993	-9.405971	-2.840431	-0.646606	-0.679390	0.095350	-0.720901	0.098179
35994	-9.515227	-2.808415	-0.734206	-0.679481	0.096195	-0.720691	0.098265
