// Start Time: Unknown
// Update Rate: 60.0Hz
// Filter Profile: human (46.1)
// Option Flags: AHS Disabled ICC Disabled 
// Firmware Version: 4.3.5
PacketCounter	Acc_X	Acc_Y	Acc_Z	Quat_q0	Quat_q1	Quat_q2	Quat_q3
34999	-9.448788	-0.871060	-2.147927	0.606659	0.074944	0.782220	-0.120336
35000	-9.466827	-0.961275	-2.216730	0.606748	0.074460	0.782249	-0.119998
35001	-9.506956	-1.018887	-2.268159	0.606779	0.073964	0.782325	-0.119652
35002	-9.491818	-1.014038	-2.249124	0.606828	0.073435	0.782388	-0.119313
35003	-9.448302	-0.956334	-2.244631	0.606853	0.072941	0.782459	-0.119023
35004	-9.449472	-0.832899	-2.203686	0.606844	0.072458	0.782552	-0.118755
35005	-9.498801	-0.755592	-2.265019	0.606900	0.071902	0.782623	-0.118339
35006	-9.558510	-0.815709	-2.322451	0.607002	0.071369	0.782657	-0.117912
35007	-9.514491	-0.903945	-2.309181	0.607074	0.070750	0.782719	-0.117501
35008	-9.489769	-0.875497	-2.228097	0.607083	0.070191	0.782824	-0.117094
35009	-9.556708	-0.935884	-2.227352	0.607130	0.069563	0.782917	-0.116597
35010	-9.582878	-0.932229	-2.250714	0.607437	0.068644	0.782872	-0.115846
35011	-9.508476	-0.847658	-2.358268	0.607769	0.067639	0.782825	-0.115010
35012	-9.409252	-0.822834	-2.230427	0.608030	0.066794	0.782791	-0.114352
35013	-9.317876	-1.050169	-2.257223	0.608270	0.065992	0.782765	-0.113719
35014	-9.258140	-1.228889	-2.351009	0.608382	0.065234	0.782833	-0.113090
35015	-9.298346	-1.311115	-2.494904	0.608411	0.064469	0.782958	-0.112505
35016	-9.366901	-1.235285	-2.563770	0.608318	0.063663	0.783181	-0.111912
35017	-9.340784	-1.131067	-2.529068	0.608120	0.063052	0.783438	-0.111529
35018	-9.384732	-1.118079	-2.537535	0.607851	0.062765	0.783674	-0.111498
35019	-9.476073	-1.176602	-2.426288	0.607635	0.062888	0.783774	-0.111905
35020	-9.485479	-1.173415	-2.434529	0.607382	0.063093	0.783883	-0.112397
35021	-9.493272	-1.032911	-2.383375	0.607102	0.063371	0.783997	-0.112958
35022	-9.466160	-0.834297	-2.266051	0.606852	0.063641	0.784087	-0.113524
35023	-9.465137	-0.697109	-2.242412	0.606668	0.063578	0.784198	-0.113779
35024	-9.513920	-0.791930	-2.421354	0.606562	0.063257	0.784301	-0.113813
35025	-9.518070	-0.985397	-2.476873	0.606554	0.062640	0.784404	-0.113487
35026	-9.455596	-1.129280	-2.421336	0.606631	0.062126	0.784416	-0.113270
35027	-9.338701	-1.110849	-2.383420	0.606696	0.061864	0.784397	-0.113199
35028	-9.386910	-1.077480	-2.389184	0.606610	0.061822	0.784446	-0.113348
35029	-9.511027	-0.998813	-2.320205	0.606440	0.061735	0.784555	-0.113544
35030	-9.523884	-0.958968	-2.303639	0.606250	0.061388	0.784730	-0.113543
35031	-9.578567	-0.928372	-2.254733	0.606055	0.060751	0.784978	-0.113210
35032	-9.491971	-0.900621	-2.267488	0.605868	0.059846	0.785280	-0.112595
35033	-9.547783	-0.940941	-2.210592	0.605726	0.058977	0.785543	-0.111978
35034	-9.560591	-1.063172	-2.173482	0.605707	0.058110	0.785727	-0.111246
35035	-9.485551	-1.175565	-2.277660	0.605711	0.057349	0.785882	-0.110520
35036	-9.456336	-1.310656	-2.363865	0.605679	0.056664	0.786049	-0.109858
35037	-9.415721	-1.366642	-2.426113	0.605566	0.056035	0.786257	-0.109311
35038	-9.429594	-1.308274	-2.381939	0.605362	0.055582	0.786480	-0.109073
35039	-9.386919	-1.161909	-2.219529	0.605187	0.055203	0.786669	-0.108877
35040	-9.417342	-1.016755	-2.206279	0.604979	0.054910	0.786869	-0.108732
35041	-9.434510	-0.860380	-2.206215	0.604716	0.054666	0.787120	-0.108499
35042	-9.511628	-0.907842	-2.251066	0.604418	0.054441	0.787395	-0.108277
35043	-9.554792	-0.946449	-2.269009	0.604224	0.054119	0.787612	-0.107943
35044	-9.529078	-0.982499	-2.261946	0.604073	0.053695	0.787819	-0.107488
35045	-9.476076	-1.061080	-2.348696	0.603978	0.053329	0.787974	-0.107063
35046	-9.388408	-1.107065	-2.457004	0.603879	0.053254	0.788077	-0.106908
35047	-9.358905	-0.974837	-2.651547	0.603742	0.053494	0.788129	-0.107173
35048	-9.391362	-0.825412	-2.667342	0.603523	0.053962	0.788184	-0.107771
35049	-9.452581	-0.760386	-2.450595	0.603307	0.054197	0.788273	-0.108212
35050	-9.411246	-0.811063	-2.449839	0.603172	0.054089	0.788371	-0.108302
35051	-9.459819	-0.802415	-2.409220	0.603035	0.053750	0.788513	-0.108198
35052	-9.500290	-0.991280	-2.421090	0.602954	0.053299	0.788630	-0.108020
35053	-9.454026	-1.081289	-2.413335	0.602883	0.052922	0.788734	-0.107843
35054	-9.475888	-1.187591	-2.458061	0.602864	0.052595	0.788790	-0.107697
35055	-9.454778	-1.249182	-2.522466	0.602887	0.052424	0.788788	-0.107668
35056	-9.347014	-1.251111	-2.546138	0.602933	0.052402	0.788744	-0.107745
35057	-9.350987	-1.275269	-2.621354	0.602970	0.052509	0.788683	-0.107927
35058	-9.303799	-1.296556	-2.585136	0.602988	0.052739	0.788621	-0.108170
35059	-9.324259	-1.383703	-2.643506	0.602951	0.053141	0.788565	-0.108587
35060	-9.370298	-1.370220	-2.645493	0.602811	0.053655	0.788573	-0.109053
35061	-9.367078	-1.372007	-2.520568	0.602641	0.054220	0.788597	-0.109542
35062	-9.399420	-1.288733	-2.434831	0.602419	0.054797	0.788661	-0.110010
35063	-9.483891	-1.242514	-2.472761	0.602248	0.055322	0.788691	-0.110468
35064	-9.426925	-1.091051	-2.426671	0.602049	0.055845	0.788741	-0.110938
35065	-9.440209	-0.936597	-2.437769	0.601854	0.056345	0.788790	-0.111386
35066	-9.445876	-0.832325	-2.377916	0.601651	0.056836	0.788854	-0.111784
35067	-9.453551	-0.843955	-2.382521	0.601482	0.057303	0.788905	-0.112089
35068	-9.501228	-0.885758	-2.350168	0.601305	0.057791	0.788953	-0.112454
35069	-9.488406	-0.948283	-2.355336	0.601208	0.058166	0.788955	-0.112764
35070	-9.452937	-0.955442	-2.358586	0.601118	0.058484	0.788955	-0.113079
35071	-9.463705	-0.947412	-2.364083	0.601066	0.058801	0.788935	-0.113332
35072	-9.452803	-0.966355	-2.419841	0.601084	0.059005	0.788880	-0.113513
35073	-9.444514	-1.003572	-2.457604	0.601120	0.059123	0.788832	-0.113593
35074	-9.398583	-1.067683	-2.494114	0.601136	0.059310	0.788783	-0.113747
35075	-9.408587	-1.113821	-2.505324	0.601178	0.059587	0.788688	-0.114044
35076	-9.416452	-1.103602	-2.553701	0.601232	0.059908	0.788571	-0.114404
35077	-9.411251	-1.023615	-2.512504	0.601283	0.060256	0.788442	-0.114833
35078	-9.379327	-0.923269	-2.496398	0.601331	0.060492	0.788349	-0.115094
35079	-9.382321	-0.914925	-2.558781	0.601398	0.060701	0.788244	-0.115356
35080	-9.404611	-0.938006	-2.545504	0.601451	0.060780	0.788172	-0.115535
35081	-9.452005	-1.008289	-2.598215	0.601475	0.060753	0.788136	-0.115670
35082	-9.466537	-1.081789	-2.513667	0.601554	0.060496	0.788102	-0.115620
35083	-9.380504	-1.184125	-2.483089	0.601653	0.060253	0.788057	-0.115543
35084	-9.358958	-1.152548	-2.431416	0.601686	0.060137	0.788035	-0.115580
35085	-9.343578	-1.087038	-2.480874	0.601727	0.060094	0.787994	-0.115666
35086	-9.388768	-1.050458	-2.532086	0.601747	0.060095	0.787961	-0.115783
35087	-9.364550	-1.050442	-2.538676	0.601760	0.059946	0.787959	-0.115810
35088	-9.393185	-1.090845	-2.496857	0.601727	0.059712	0.788007	-0.115779
35089	-9.395974	-1.145440	-2.492374	0.601648	0.059474	0.788089	-0.115747
35090	-9.385414	-1.140397	-2.460837	0.601555	0.059209	0.788190	-0.115681
35091	-9.443795	-1.176219	-2.432522	0.601481	0.058914	0.788282	-0.115589
35092	-9.457646	-1.172478	-2.393299	0.601434	0.058627	0.788358	-0.115464
35093	-9.412555	-1.096467	-2.405242	0.601377	0.058373	0.788426	-0.115422
35094	-9.443877	-1.028849	-2.348745	0.601333	0.058212	0.788469	-0.115445
35095	-9.478594	-1.024118	-2.347544	0.601280	0.058028	0.788527	-0.115410
35096	-9.422684	-0.967214	-2.415214	0.601251	0.057697	0.788589	-0.115304
35097	-9.423303	-0.975006	-2.510274	0.601214	0.057232	0.788692	-0.115030
35098	-9.450308	-1.029904	-2.498957	0.601237	0.056571	0.788792	-0.114549
35099	-9.424748	-1.155614	-2.506503	0.601272	0.055864	0.788882	-0.114088
35100	-9.423804	-1.234275	-2.465885	0.601320	0.055329	0.788929	-0.113771
35101	-9.447948	-1.226708	-2.397424	0.601355	0.055059	0.788939	-0.113644
35102	-9.483781	-1.293818	-2.385635	0.601401	0.054889	0.788925	-0.113588
35103	-9.434678	-1.256909	-2.386983	0.601476	0.054890	0.788857	-0.113658
35104	-9.449250	-1.141376	-2.373819	0.601491	0.054892	0.788826	-0.113794
35105	-9.413487	-1.097551	-2.506430	0.601544	0.054836	0.788782	-0.113847
35106	-9.438838	-1.144962	-2.570680	0.601594	0.054714	0.788750	-0.113857
35107	-9.394180	-1.145144	-2.538068	0.601643	0.054592	0.788728	-0.113813
35108	-9.401561	-1.161843	-2.506163	0.601697	0.054537	0.788698	-0.113761
35109	-9.421617	-1.276215	-2.481515	0.601768	0.054646	0.788629	-0.113816
35110	-9.453175	-1.333387	-2.420440	0.601816	0.054915	0.788536	-0.114075
35111	-9.490424	-1.311691	-2.386155	0.601888	0.055286	0.788407	-0.114406
35112	-9.471501	-1.235580	-2.384568	0.602029	0.055660	0.788221	-0.114763
35113	-9.445707	-1.153150	-2.474767	0.602163	0.056006	0.788053	-0.115045
35114	-9.458168	-1.094669	-2.435034	0.602294	0.056289	0.787904	-0.115246
35115	-9.432988	-1.073279	-2.455258	0.602460	0.056571	0.787729	-0.115429
35116	-9.461725	-1.115117	-2.376154	0.602629	0.056855	0.787556	-0.115589
35117	-9.467970	-1.111641	-2.357483	0.602810	0.057144	0.787370	-0.115769
35118	-9.406730	-1.062469	-2.368155	0.602999	0.057318	0.787201	-0.115853
35119	-9.415750	-1.000120	-2.374406	0.603169	0.057462	0.787051	-0.115910
35120	-9.469626	-0.938347	-2.412519	0.603330	0.057497	0.786932	-0.115867
35121	-9.560419	-0.915586	-2.348365	0.603572	0.057353	0.786790	-0.115640
35122	-9.529928	-0.960834	-2.278052	0.603916	0.057056	0.786601	-0.115277
35123	-9.449264	-0.995178	-2.300809	0.604228	0.056677	0.786447	-0.114880
35124	-9.460803	-1.049495	-2.369473	0.604520	0.056238	0.786316	-0.114456
35125	-9.405877	-1.142720	-2.348367	0.604824	0.055616	0.786219	-0.113816
35126	-9.331291	-1.281499	-2.363175	0.605051	0.054984	0.786179	-0.113189
35127	-9.262533	-1.214656	-2.408132	0.605192	0.054517	0.786170	-0.112727
35128	-9.290330	-1.116857	-2.445282	0.605189	0.054265	0.786228	-0.112458
35129	-9.429538	-1.055500	-2.424684	0.605113	0.054098	0.786327	-0.112259
35130	-9.492888	-0.999608	-2.362640	0.605028	0.053865	0.786430	-0.112108
35131	-9.484812	-0.972829	-2.334888	0.604970	0.053441	0.786549	-0.111788
35132	-9.494076	-0.979899	-2.371375	0.604913	0.052987	0.786673	-0.111437
35133	-9.423720	-1.016598	-2.329809	0.604888	0.052463	0.786787	-0.111014
35134	-9.440665	-1.112823	-2.326511	0.604872	0.051962	0.786892	-0.110594
35135	-9.478328	-1.196871	-2.299916	0.604915	0.051518	0.786947	-0.110175
35136	-9.480904	-1.224352	-2.344879	0.604968	0.051120	0.786982	-0.109812
35137	-9.447345	-1.273649	-2.420987	0.605027	0.050885	0.786981	-0.109607
35138	-9.431762	-1.283073	-2.429603	0.605052	0.050833	0.786972	-0.109556
35139	-9.432399	-1.243503	-2.449523	0.605072	0.050810	0.786965	-0.109510
35140	-9.440437	-1.230412	-2.500027	0.605106	0.050781	0.786954	-0.109418
35141	-9.459365	-1.246972	-2.534238	0.605214	0.050754	0.786894	-0.109259
35142	-9.409965	-1.284979	-2.494367	0.605342	0.050805	0.786803	-0.109186
35143	-9.382431	-1.243728	-2.533484	0.605413	0.050988	0.786727	-0.109253
35144	-9.420290	-1.142862	-2.540054	0.605466	0.051314	0.786635	-0.109467
35145	-9.431556	-1.123421	-2.481018	0.605540	0.051643	0.786529	-0.109664
35146	-9.457064	-1.098792	-2.380366	0.605639	0.051866	0.786423	-0.109773
35147	-9.437032	-1.098719	-2.338697	0.605773	0.052027	0.786304	-0.109809
35148	-9.421017	-1.024231	-2.291400	0.605887	0.052266	0.786183	-0.109935
35149	-9.421357	-0.999246	-2.337649	0.605976	0.052555	0.786066	-0.110146
35150	-9.428450	-0.991673	-2.353348	0.606053	0.052833	0.785960	-0.110344
35151	-9.446502	-0.975623	-2.374057	0.606147	0.052936	0.785873	-0.110395
35152	-9.435506	-0.885055	-2.285826	0.606181	0.052967	0.785845	-0.110392
35153	-9.463919	-0.860846	-2.313744	0.606170	0.052907	0.785867	-0.110327
35154	-9.510417	-0.957039	-2.287178	0.606177	0.052773	0.785887	-0.110211
35155	-9.520098	-1.152916	-2.251214	0.606223	0.052557	0.785890	-0.110035
35156	-9.449767	-1.116658	-2.215094	0.606313	0.052327	0.785864	-0.109841
35157	-9.477974	-1.068534	-2.291184	0.606411	0.052115	0.785830	-0.109643
35158	-9.469520	-1.032083	-2.337376	0.606510	0.051995	0.785776	-0.109539
35159	-9.487572	-1.065347	-2.400062	0.606568	0.051924	0.785743	-0.109486
35160	-9.472638	-1.099514	-2.358527	0.606610	0.051868	0.785708	-0.109529
35161	-9.463218	-1.141941	-2.364118	0.606713	0.051747	0.785650	-0.109430
35162	-9.449499	-1.185295	-2.382338	0.606874	0.051653	0.785541	-0.109370
35163	-9.429815	-1.147830	-2.360314	0.607025	0.051732	0.785403	-0.109478
35164	-9.387628	-1.078775	-2.288079	0.607117	0.051887	0.785295	-0.109671
35165	-9.385120	-0.987994	-2.311770	0.607092	0.052101	0.785268	-0.109900
35166	-9.431488	-0.935059	-2.334597	0.606985	0.052289	0.785306	-0.110133
35167	-9.526083	-0.997675	-2.314783	0.606874	0.052296	0.785380	-0.110216
35168	-9.561621	-1.039683	-2.214722	0.606850	0.052108	0.785420	-0.110148
35169	-9.525173	-1.013155	-2.205689	0.606911	0.051826	0.785417	-0.109965
35170	-9.481776	-1.032578	-2.296291	0.607019	0.051596	0.785383	-0.109727
35171	-9.457036	-1.132616	-2.352333	0.607081	0.051491	0.785360	-0.109598
35172	-9.408001	-1.231677	-2.416343	0.607105	0.051517	0.785330	-0.109665
35173	-9.353201	-1.186491	-2.371148	0.607101	0.051686	0.785294	-0.109869
35174	-9.365557	-1.124947	-2.366801	0.607046	0.051934	0.785281	-0.110148
35175	-9.427743	-0.974122	-2.360035	0.606964	0.052103	0.785303	-0.110359
35176	-9.520771	-0.978347	-2.377637	0.606844	0.052159	0.785389	-0.110380
35177	-9.515640	-1.042535	-2.323441	0.606815	0.052081	0.785424	-0.110332
35178	-9.459615	-1.099814	-2.328907	0.606829	0.052074	0.785411	-0.110345
35179	-9.456307	-1.135394	-2.353926	0.606838	0.052218	0.785375	-0.110489
35180	-9.452354	-1.098341	-2.386969	0.606858	0.052453	0.785313	-0.110706
35181	-9.454869	-1.117250	-2.368110	0.606903	0.052627	0.785239	-0.110898
35182	-9.433729	-1.095205	-2.377299	0.606966	0.052636	0.785189	-0.110907
35183	-9.428636	-1.086168	-2.328534	0.607011	0.052621	0.785159	-0.110877
35184	-9.423874	-1.063381	-2.390809	0.607051	0.052674	0.785125	-0.110873
35185	-9.395244	-1.150220	-2.432058	0.607046	0.052765	0.785121	-0.110888
35186	-9.438145	-1.231952	-2.389612	0.607042	0.052884	0.785114	-0.110901
35187	-9.420943	-1.245971	-2.366288	0.607030	0.052991	0.785109	-0.110951
35188	-9.393387	-1.191447	-2.379555	0.606983	0.053075	0.785128	-0.111030
35189	-9.460051	-1.125706	-2.380171	0.606917	0.053154	0.785166	-0.111092
35190	-9.489925	-1.070896	-2.351548	0.606872	0.053241	0.785197	-0.111079
35191	-9.487830	-1.138383	-2.389628	0.606854	0.053459	0.785193	-0.111097
35192	-9.451885	-1.197065	-2.400111	0.606880	0.053877	0.785111	-0.111334
35193	-9.438711	-1.237566	-2.279200	0.606885	0.054417	0.785014	-0.111724
35194	-9.415309	-1.209270	-2.194150	0.606903	0.055078	0.784879	-0.112245
35195	-9.449707	-1.106342	-2.246889	0.606913	0.055850	0.784722	-0.112910
35196	-9.438069	-0.865830	-2.208894	0.606932	0.056599	0.784565	-0.113524
35197	-9.473872	-0.758035	-2.295225	0.606939	0.057192	0.784452	-0.113972
35198	-9.523739	-0.832999	-2.268718	0.606962	0.057683	0.784346	-0.114325
35199	-9.423319	-0.889618	-2.240191	0.607009	0.058055	0.784235	-0.114650
35200	-9.403312	-0.939818	-2.239775	0.607032	0.058472	0.784144	-0.114940
35201	-9.419711	-1.017008	-2.248551	0.607020	0.058868	0.784080	-0.115239
35202	-9.418999	-1.071100	-2.254940	0.607019	0.059228	0.784006	-0.115559
35203	-9.477336	-0.993952	-2.252898	0.606987	0.059712	0.783921	-0.116055
35204	-9.442357	-0.836673	-2.278375	0.606929	0.060132	0.783872	-0.116469
35205	-9.467170	-0.823192	-2.242187	0.606860	0.060432	0.783861	-0.116752
35206	-9.450375	-0.953669	-2.327196	0.606846	0.060564	0.783848	-0.116845
35207	-9.385169	-1.081239	-2.427917	0.606783	0.060513	0.783899	-0.116852
35208	-9.352201	-1.129949	-2.365328	0.606655	0.060464	0.783997	-0.116889
35209	-9.428397	-1.095054	-2.353865	0.606443	0.060369	0.784174	-0.116847
35210	-9.496783	-1.159084	-2.311360	0.606230	0.060175	0.784373	-0.116718
35211	-9.465043	-1.264513	-2.213819	0.606001	0.059952	0.784588	-0.116578
35212	-9.493911	-1.261035	-2.230778	0.605767	0.059841	0.784778	-0.116572
35213	-9.497336	-1.210652	-2.354658	0.605540	0.059839	0.784947	-0.116613
35214	-9.507763	-1.225782	-2.314290	0.605348	0.059964	0.785068	-0.116733
35215	-9.499227	-1.198426	-2.288050	0.605174	0.060181	0.785161	-0.116896
35216	-9.530479	-1.227213	-2.312767	0.605083	0.060422	0.785192	-0.117034
35217	-9.463893	-1.216260	-2.355331	0.604983	0.060715	0.785205	-0.117313
35218	-9.398657	-1.086223	-2.322254	0.604819	0.061200	0.785226	-0.117765
35219	-9.406833	-0.983634	-2.389970	0.604610	0.061679	0.785292	-0.118147
35220	-9.440105	-1.031174	-2.397824	0.604425	0.062089	0.785358	-0.118441
35221	-9.465765	-1.088986	-2.354428	0.604233	0.062483	0.785432	-0.118725
35222	-9.480660	-1.078516	-2.348890	0.604043	0.062888	0.785499	-0.119029
35223	-9.485535	-1.060762	-2.309835	0.603832	0.063285	0.785577	-0.119375
35224	-9.465312	-1.019555	-2.328180	0.603644	0.063762	0.785622	-0.119774
35225	-9.353093	-0.970498	-2.362517	0.603456	0.064238	0.785671	-0.120151
35226	-9.419022	-0.954590	-2.407633	0.603205	0.064686	0.785781	-0.120445
35227	-9.438629	-0.992233	-2.429519	0.602943	0.065007	0.785920	-0.120680
35228	-9.463828	-1.011939	-2.409839	0.602667	0.065232	0.786088	-0.120844
35229	-9.423591	-1.043500	-2.381104	0.602428	0.065374	0.786243	-0.120952
35230	-9.430789	-1.055510	-2.387447	0.602188	0.065488	0.786409	-0.121005
35231	-9.414933	-1.062063	-2.434128	0.601915	0.065644	0.786591	-0.121094
35232	-9.469762	-1.143156	-2.493533	0.601690	0.065792	0.786740	-0.121165
35233	-9.477636	-1.243342	-2.516295	0.601521	0.065913	0.786851	-0.121215
35234	-9.416075	-1.253165	-2.496871	0.601341	0.066090	0.786948	-0.121380
35235	-9.382411	-1.240898	-2.505957	0.601171	0.066424	0.787002	-0.121692
35236	-9.382626	-1.187557	-2.501623	0.600988	0.066901	0.787036	-0.122110
35237	-9.373235	-1.138274	-2.524550	0.600822	0.067364	0.787068	-0.122471
35238	-9.399538	-1.170115	-2.562190	0.600681	0.067798	0.787088	-0.122794
35239	-9.346917	-1.153908	-2.563392	0.600559	0.068259	0.787079	-0.123195
35240	-9.316713	-1.067636	-2.569090	0.600360	0.068812	0.787100	-0.123723
35241	-9.332628	-1.056035	-2.595539	0.600138	0.069327	0.787130	-0.124312
35242	-9.373900	-1.016859	-2.525798	0.599937	0.069670	0.787183	-0.124758
35243	-9.408541	-0.907646	-2.482193	0.599735	0.069754	0.787287	-0.125023
35244	-9.365479	-0.784272	-2.414063	0.599547	0.069647	0.787423	-0.125132
35245	-9.367163	-0.649606	-2.317740	0.599291	0.069429	0.787624	-0.125211
35246	-9.424005	-0.585496	-2.419924	0.599011	0.068915	0.787905	-0.125074
35247	-9.478705	-0.617810	-2.474512	0.598729	0.068011	0.788262	-0.124665
35248	-9.478485	-0.720567	-2.387145	0.598529	0.066793	0.788621	-0.124008
35249	-9.413679	-0.932445	-2.400123	0.598371	0.065377	0.788994	-0.123153
35250	-9.453807	-1.211350	-2.425960	0.598207	0.063897	0.789389	-0.122190
35251	-9.514309	-1.388616	-2.413850	0.598056	0.062608	0.789731	-0.121384
35252	-9.560619	-1.559153	-2.381205	0.597973	0.061527	0.790000	-0.120592
35253	-9.623133	-1.767585	-2.377893	0.597984	0.060770	0.790147	-0.119960
35254	-9.547930	-1.954799	-2.465488	0.598105	0.060447	0.790131	-0.119625
35255	-9.493191	-2.029956	-2.619789	0.598290	0.060553	0.789978	-0.119654
35256	-9.464686	-1.880048	-2.687991	0.598472	0.061075	0.789741	-0.120043
35257	-9.404361	-1.628335	-2.742023	0.598715	0.061940	0.789397	-0.120648
35258	-9.387270	-1.423667	-2.739670	0.599003	0.063109	0.788961	-0.121462
35259	-9.354788	-1.255099	-2.662795	0.599284	0.064442	0.788497	-0.122387
35260	-9.367820	-1.071305	-2.590229	0.599529	0.065812	0.788042	-0.123384
35261	-9.347471	-0.912114	-2.503847	0.599733	0.067102	0.787635	-0.124290
35262	-9.423897	-0.909394	-2.506214	0.599946	0.068253	0.787257	-0.125030
35263	-9.450876	-0.945411	-2.468409	0.600173	0.069346	0.786871	-0.125767
35264	-9.430212	-0.911970	-2.378256	0.600395	0.070382	0.786488	-0.126525
35265	-9.512523	-0.890504	-2.338313	0.600663	0.071250	0.786109	-0.127127
35266	-9.520926	-0.868528	-2.287414	0.600987	0.071833	0.785746	-0.127505
35267	-9.411462	-0.841502	-2.227940	0.601287	0.072150	0.785469	-0.127623
35268	-9.349085	-0.832679	-2.183408	0.601594	0.072178	0.785262	-0.127428
35269	-9.449074	-1.053169	-2.328812	0.601916	0.071933	0.785125	-0.126889
35270	-9.389790	-1.359746	-2.372010	0.602253	0.071565	0.785005	-0.126243
35271	-9.294657	-1.324767	-2.481753	0.602422	0.071490	0.784944	-0.125859
35272	-9.372793	-1.374796	-2.449335	0.602551	0.071667	0.784851	-0.125718
35273	-9.399952	-1.338242	-2.383674	0.602605	0.071905	0.784791	-0.125698
35274	-9.388778	-1.254906	-2.361269	0.602622	0.072186	0.784733	-0.125817
35275	-9.412994	-1.042758	-2.265583	0.602587	0.072391	0.784734	-0.125860
35276	-9.367097	-0.857869	-2.236494	0.602546	0.072438	0.784789	-0.125690
35277	-9.392456	-0.759589	-2.281179	0.602452	0.072302	0.784936	-0.125294
35278	-9.472616	-0.824724	-2.269560	0.602364	0.072067	0.785104	-0.124804
35279	-9.519822	-0.944552	-2.331114	0.602318	0.071660	0.785275	-0.124180
35280	-9.476732	-1.117023	-2.335515	0.602296	0.071342	0.785402	-0.123671
35281	-9.306238	-1.160244	-2.396570	0.602257	0.071089	0.785527	-0.123207
35282	-9.318433	-1.089743	-2.431803	0.602189	0.070900	0.785663	-0.122780
35283	-9.416215	-1.007586	-2.516182	0.602042	0.070583	0.785871	-0.122356
35284	-9.449405	-0.854940	-2.496787	0.601918	0.070072	0.786094	-0.121822
35285	-9.397624	-0.803660	-2.446190	0.601770	0.069348	0.786386	-0.121082
35286	-9.327635	-0.862155	-2.324137	0.601628	0.068520	0.786712	-0.120139
35287	-9.323810	-0.983112	-2.373889	0.601412	0.067659	0.787109	-0.119103
35288	-9.377773	-1.113857	-2.444873	0.601133	0.066857	0.787534	-0.118148
35289	-9.512068	-1.222746	-2.518705	0.600778	0.066064	0.787996	-0.117320
35290	-9.626687	-1.317357	-2.525545	0.600494	0.065265	0.788396	-0.116529
35291	-9.570473	-1.426445	-2.372310	0.600339	0.064656	0.788658	-0.115891
35292	-9.444372	-1.391595	-2.338475	0.600272	0.064334	0.788813	-0.115363
35293	-9.431265	-1.334508	-2.408281	0.600248	0.064269	0.788897	-0.114950
35294	-9.460348	-1.270313	-2.587467	0.600194	0.064339	0.788979	-0.114630
35295	-9.402452	-1.223653	-2.686006	0.600131	0.064362	0.789076	-0.114282
35296	-9.427292	-1.246342	-2.599249	0.600064	0.064460	0.789154	-0.114036
35297	-9.408306	-1.306851	-2.458813	0.600047	0.064617	0.789196	-0.113745
35298	-9.394478	-1.263270	-2.555641	0.600008	0.064860	0.789251	-0.113429
35299	-9.332827	-1.230923	-2.524323	0.599945	0.065095	0.789344	-0.112981
35300	-9.281554	-1.169816	-2.675545	0.599787	0.065396	0.789496	-0.112584
35301	-9.263055	-1.045479	-2.693187	0.599516	0.065797	0.789695	-0.112393
35302	-9.340009	-0.920330	-2.591140	0.599093	0.066241	0.789992	-0.112310
35303	-9.449078	-0.863163	-2.492745	0.598631	0.066658	0.790317	-0.112231
35304	-9.559088	-0.801557	-2.427314	0.598185	0.067134	0.790622	-0.112184
35305	-9.645454	-0.780527	-2.313867	0.597862	0.067570	0.790850	-0.112034
35306	-9.658101	-0.817381	-2.160838	0.597721	0.067930	0.790970	-0.111725
35307	-9.570093	-0.811603	-2.226488	0.597671	0.068295	0.791019	-0.111418
35308	-9.516289	-0.760498	-2.310167	0.597629	0.068739	0.791034	-0.111259
35309	-9.480338	-0.686794	-2.481929	0.597615	0.069283	0.791004	-0.111216
35310	-9.383024	-0.694559	-2.665426	0.597606	0.069740	0.790992	-0.111061
35311	-9.340383	-0.787275	-2.713396	0.597613	0.070143	0.790976	-0.110889
35312	-9.348361	-0.862712	-2.751292	0.597574	0.070543	0.790978	-0.110830
35313	-9.314829	-0.848925	-2.725177	0.597572	0.070991	0.790939	-0.110829
35314	-9.365245	-0.883898	-2.689891	0.597550	0.071423	0.790912	-0.110863
35315	-9.422151	-0.889667	-2.551472	0.597515	0.071897	0.790874	-0.111020
35316	-9.440737	-0.785399	-2.511510	0.597495	0.072365	0.790812	-0.111263
35317	-9.461250	-0.661436	-2.474666	0.597529	0.072852	0.790704	-0.111529
35318	-9.390620	-0.636831	-2.497674	0.597592	0.073301	0.790579	-0.111785
35319	-9.346721	-0.589405	-2.550440	0.597595	0.073809	0.790478	-0.112144
35320	-9.369186	-0.555756	-2.531997	0.597535	0.074264	0.790427	-0.112526
35321	-9.429490	-0.599703	-2.562416	0.597486	0.074619	0.790380	-0.112877
35322	-9.413204	-0.615922	-2.538068	0.597453	0.074738	0.790364	-0.113087
35323	-9.428298	-0.665040	-2.503868	0.597434	0.074722	0.790363	-0.113204
35324	-9.410532	-0.643764	-2.501364	0.597426	0.074654	0.790361	-0.113307
35325	-9.456653	-0.625942	-2.537313	0.597403	0.074657	0.790349	-0.113511
35326	-9.519553	-0.627199	-2.449362	0.597411	0.074624	0.790320	-0.113692
35327	-9.525865	-0.723907	-2.385803	0.597524	0.074601	0.790211	-0.113869
35328	-9.472661	-0.840014	-2.390764	0.597619	0.074590	0.790112	-0.114064
35329	-9.452634	-0.856322	-2.409647	0.597685	0.074609	0.790020	-0.114341
35330	-9.440749	-0.842908	-2.484130	0.597770	0.074575	0.789922	-0.114593
35331	-9.380472	-0.815714	-2.512103	0.597831	0.074461	0.789860	-0.114783
35332	-9.338660	-0.795539	-2.515007	0.597856	0.074301	0.789833	-0.114939
35333	-9.396401	-0.821568	-2.594728	0.597839	0.074045	0.789854	-0.115049
35334	-9.465006	-0.881822	-2.626057	0.597819	0.073665	0.789893	-0.115129
35335	-9.433259	-0.954380	-2.555161	0.597878	0.073165	0.789906	-0.115054
35336	-9.400554	-0.988440	-2.505045	0.597989	0.072639	0.789880	-0.114987
35337	-9.334740	-0.976554	-2.608454	0.598048	0.072224	0.789873	-0.114990
35338	-9.342316	-1.009062	-2.636588	0.598097	0.071918	0.789849	-0.115087
35339	-9.349851	-0.987568	-2.658053	0.598121	0.071729	0.789816	-0.115311
35340	-9.403466	-1.046757	-2.634786	0.598182	0.071556	0.789749	-0.115560
35341	-9.368919	-1.047259	-2.573042	0.598265	0.071304	0.789685	-0.115725
35342	-9.377333	-1.021985	-2.626838	0.598276	0.071006	0.789685	-0.115848
35343	-9.370402	-0.982810	-2.568543	0.598244	0.070727	0.789716	-0.115979
35344	-9.389241	-0.990667	-2.575333	0.598195	0.070541	0.789750	-0.116113
35345	-9.424445	-1.037799	-2.612756	0.598166	0.070408	0.789756	-0.116298
35346	-9.442441	-1.157877	-2.599003	0.598195	0.070253	0.789724	-0.116457
35347	-9.414302	-1.201054	-2.595580	0.598294	0.070117	0.789640	-0.116608
35348	-9.429345	-1.197891	-2.552116	0.598329	0.070122	0.789570	-0.116896
35349	-9.378572	-1.114946	-2.513883	0.598386	0.070329	0.789446	-0.117314
35350	-9.400442	-1.143110	-2.467170	0.598392	0.070657	0.789342	-0.117785
35351	-9.424231	-1.150389	-2.425117	0.598391	0.071021	0.789243	-0.118238
35352	-9.377628	-1.143071	-2.502188	0.598404	0.071271	0.789158	-0.118588
35353	-9.380969	-1.108043	-2.476602	0.598372	0.071547	0.789111	-0.118894
35354	-9.438788	-1.055692	-2.395917	0.598309	0.071829	0.789084	-0.119218
35355	-9.420283	-1.036994	-2.361627	0.598224	0.072035	0.789097	-0.119431
35356	-9.470327	-0.977715	-2.408094	0.598080	0.072188	0.789169	-0.119587
35357	-9.534992	-1.007021	-2.365594	0.598011	0.072189	0.789220	-0.119598
35358	-9.464197	-1.012610	-2.276696	0.598024	0.072068	0.789241	-0.119465
35359	-9.470773	-1.043201	-2.274697	0.597983	0.071919	0.789323	-0.119219
35360	-9.463510	-1.009803	-2.280798	0.597870	0.071740	0.789459	-0.118988
35361	-9.464417	-0.946966	-2.343943	0.597724	0.071495	0.789634	-0.118712
35362	-9.524654	-0.973021	-2.349939	0.597639	0.071162	0.789792	-0.118288
35363	-9.536599	-0.996117	-2.369035	0.597633	0.070780	0.789907	-0.117778
35364	-9.501703	-1.104953	-2.418580	0.597641	0.070397	0.790023	-0.117188
35365	-9.349464	-1.155840	-2.451296	0.597627	0.070057	0.790139	-0.116680
35366	-9.289971	-1.071074	-2.604744	0.597551	0.069758	0.790289	-0.116231
35367	-9.341533	-0.987382	-2.657498	0.597450	0.069361	0.790474	-0.115728
35368	-9.413480	-0.986748	-2.641557	0.597323	0.068915	0.790699	-0.115114
35369	-9.439549	-1.001688	-2.622936	0.597174	0.068427	0.790948	-0.114464
35370	-9.401655	-1.067885	-2.572252	0.597074	0.067997	0.791145	-0.113878
35371	-9.326049	-1.123717	-2.539991	0.597003	0.067558	0.791323	-0.113272
35372	-9.332157	-1.097299	-2.535228	0.596885	0.067240	0.791516	-0.112739
35373	-9.322021	-0.984875	-2.587134	0.596670	0.066921	0.791778	-0.112223
35374	-9.351254	-0.863097	-2.625452	0.596387	0.066515	0.792106	-0.111653
35375	-9.387396	-0.761874	-2.601533	0.596044	0.066063	0.792485	-0.111058
35376	-9.443586	-0.757144	-2.570763	0.595706	0.065475	0.792879	-0.110406
35377	-9.464562	-0.814730	-2.548877	0.595408	0.064771	0.793264	-0.109665
35378	-9.544456	-0.923865	-2.493041	0.595186	0.063961	0.793624	-0.108735
35379	-9.497580	-1.028803	-2.485067	0.594975	0.063157	0.793974	-0.107801
35380	-9.538674	-1.040538	-2.554055	0.594822	0.062555	0.794230	-0.107104
35381	-9.499329	-0.976756	-2.537805	0.594780	0.062150	0.794368	-0.106557
35382	-9.381557	-0.921919	-2.613622	0.594839	0.061881	0.794406	-0.106101
35383	-9.205332	-0.917737	-2.769312	0.594867	0.061715	0.794448	-0.105717
35384	-9.158370	-0.887945	-2.947990	0.594696	0.061535	0.794636	-0.105371
35385	-9.058137	-0.836729	-3.035029	0.594422	0.061149	0.794939	-0.104859
35386	-9.081958	-0.809520	-3.073982	0.594030	0.060484	0.795378	-0.104138
35387	-9.227579	-0.831489	-3.029524	0.593531	0.059602	0.795939	-0.103197
35388	-9.437454	-1.095301	-3.010981	0.593060	0.058552	0.796515	-0.102060
35389	-9.361692	-1.484638	-2.836167	0.592740	0.057605	0.796949	-0.101059
35390	-9.099583	-1.523612	-2.745845	0.592292	0.057075	0.797398	-0.100443
35391	-9.144780	-1.176794	-2.741924	0.591801	0.057028	0.797774	-0.100380
35392	-9.416132	-0.733569	-2.648054	0.591181	0.056967	0.798243	-0.100337
35393	-9.581074	-0.464579	-2.650935	0.590610	0.056715	0.798712	-0.100116
35394	-9.609379	-0.411446	-2.508509	0.590190	0.056292	0.799098	-0.099745
35395	-9.585287	-0.459771	-2.313371	0.589961	0.055536	0.799418	-0.098955
35396	-9.533345	-0.594650	-2.489194	0.589853	0.054528	0.799705	-0.097831
35397	-9.491721	-0.756241	-2.775676	0.589788	0.053388	0.799979	-0.096610
35398	-9.458216	-0.819577	-2.839676	0.589756	0.052174	0.800236	-0.095327
35399	-9.426887	-1.020089	-2.840969	0.589792	0.051085	0.800428	-0.094078
35400	-9.298034	-1.209284	-2.899566	0.589829	0.050478	0.800530	-0.093304
35401	-9.282223	-1.350319	-2.974439	0.589812	0.050577	0.800558	-0.093121
35402	-9.255369	-1.297008	-2.858326	0.589794	0.051221	0.800477	-0.093573
35403	-9.250365	-1.009852	-2.838614	0.589704	0.052148	0.800397	-0.094304
35404	-9.321754	-0.729997	-2.881127	0.589595	0.053149	0.800308	-0.095179
35405	-9.408602	-0.457526	-2.819663	0.589508	0.053991	0.800226	-0.095940
35406	-9.458670	-0.370693	-2.691001	0.589491	0.054513	0.800140	-0.096461
35407	-9.293339	-0.280641	-2.542527	0.589442	0.054672	0.800140	-0.096669
35408	-9.489554	-0.211110	-2.644813	0.589347	0.054551	0.800218	-0.096667
35409	-9.573144	-0.381466	-2.800910	0.589370	0.054160	0.800254	-0.096456
35410	-9.587990	-0.686259	-2.785225	0.589552	0.053488	0.800226	-0.095943
35411	-9.433438	-1.036163	-2.695282	0.589934	0.052653	0.800079	-0.095283
35412	-9.301164	-1.156128	-2.669811	0.590381	0.051895	0.799866	-0.094724
35413	-9.228166	-1.154623	-2.775722	0.590748	0.051357	0.799671	-0.094367
35414	-9.169116	-1.188663	-3.041456	0.591091	0.050993	0.799467	-0.094152
35415	-9.099167	-1.249150	-3.205873	0.591377	0.050703	0.799283	-0.094068
35416	-9.160688	-1.201675	-3.118611	0.591578	0.050513	0.799154	-0.094006
35417	-9.223506	-1.108472	-2.864305	0.591773	0.050367	0.799024	-0.093955
35418	-9.289375	-1.065420	-2.732348	0.591904	0.050402	0.798909	-0.094099
35419	-9.357685	-0.937375	-2.659760	0.591893	0.050627	0.798863	-0.094428
35420	-9.367805	-0.831848	-2.706936	0.591805	0.050896	0.798871	-0.094772
35421	-9.474600	-0.791801	-2.706586	0.591705	0.051020	0.798910	-0.095001
35422	-9.506665	-0.823509	-2.606254	0.591677	0.051026	0.798922	-0.095069
35423	-9.457017	-0.843743	-2.489813	0.591753	0.050930	0.798880	-0.095004
35424	-9.455150	-0.911774	-2.526638	0.591869	0.050892	0.798804	-0.094942
35425	-9.423798	-0.973859	-2.616212	0.591889	0.051031	0.798771	-0.095016
35426	-9.383778	-1.019142	-2.736914	0.591892	0.051216	0.798738	-0.095171
35427	-9.291419	-1.006227	-2.781557	0.591868	0.051328	0.798738	-0.095266
35428	-9.293968	-0.931513	-2.775451	0.591840	0.051433	0.798746	-0.095310
35429	-9.261022	-0.906634	-2.845618	0.591753	0.051610	0.798786	-0.095425
35430	-9.350119	-1.036262	-2.883093	0.591611	0.051913	0.798849	-0.095614
35431	-9.364730	-1.079280	-2.886349	0.591475	0.052265	0.798905	-0.095798
35432	-9.369766	-1.186650	-2.766998	0.591401	0.052672	0.798904	-0.096036
35433	-9.403692	-1.096282	-2.712259	0.591296	0.053147	0.798913	-0.096346
35434	-9.472762	-1.036208	-2.761763	0.591244	0.053757	0.798858	-0.096784
35435	-9.489800	-0.966088	-2.774615	0.591283	0.054390	0.798725	-0.097287
35436	-9.454512	-0.934435	-2.792224	0.591398	0.054984	0.798539	-0.097776
35437	-9.426229	-0.738728	-2.767783	0.591588	0.055486	0.798315	-0.098170
35438	-9.346743	-0.619408	-2.728994	0.591848	0.055932	0.798054	-0.098470
35439	-9.278823	-0.627306	-2.757726	0.592080	0.056355	0.797822	-0.098722
35440	-9.312625	-0.752354	-2.733272	0.592228	0.056667	0.797663	-0.098938
35441	-9.373607	-0.849045	-2.646229	0.592275	0.056878	0.797594	-0.099090
35442	-9.444299	-0.894842	-2.492967	0.592225	0.057053	0.797583	-0.099379
35443	-9.539712	-0.721106	-2.457076	0.592192	0.057269	0.797548	-0.099733
35444	-9.552730	-0.596072	-2.381789	0.592296	0.057365	0.797439	-0.099923
35445	-9.477727	-0.607880	-2.552586	0.592500	0.057380	0.797278	-0.099994
35446	-9.299385	-0.735070	-2.591019	0.592545	0.057492	0.797223	-0.100108
35447	-9.314737	-0.729473	-2.550933	0.592431	0.057512	0.797311	-0.100067
35448	-9.383473	-0.729163	-2.331428	0.592082	0.056981	0.797683	-0.099467
35449	-9.530731	-0.744581	-2.352724	0.591440	0.056610	0.798224	-0.099156
35450	-9.600414	-0.613523	-2.161681	0.590772	0.056222	0.798792	-0.098789
35451	-9.549856	-0.356511	-2.048272	0.590300	0.055824	0.799229	-0.098297
35452	-9.260611	-0.512489	-2.500019	0.589782	0.055594	0.799711	-0.097615
35453	-9.435176	-0.656089	-2.695393	0.588922	0.055873	0.800374	-0.097210
35454	-9.352986	-0.951917	-2.888370	0.588007	0.055881	0.801139	-0.096448
35455	-9.426229	-1.056645	-2.537289	0.586879	0.055560	0.802136	-0.095204
35456	-9.310950	-1.119042	-2.911028	0.585978	0.054888	0.803023	-0.093653
35457	-9.387293	-0.938269	-2.814508	0.585167	0.054410	0.803770	-0.092590
35458	-9.235685	-1.295543	-3.335735	0.584732	0.053731	0.804277	-0.091330
35459	-9.176499	-1.489314	-3.070411	0.584140	0.052841	0.804927	-0.089895
35460	-8.947327	-1.509211	-3.135601	0.583750	0.052416	0.805330	-0.089065
35461	-8.955416	-1.399911	-3.357028	0.582958	0.052984	0.805833	-0.089370
35462	-9.103267	-1.072666	-3.330167	0.581999	0.053798	0.806400	-0.090008
35463	-9.281687	-0.870604	-3.493830	0.581262	0.054462	0.806841	-0.090418
35464	-9.292408	-0.949635	-3.410557	0.580663	0.054708	0.807284	-0.090167
35465	-9.351855	-0.872786	-2.980553	0.580124	0.054994	0.807678	-0.089935
35466	-9.258204	-0.804536	-3.183626	0.579801	0.055431	0.807881	-0.089926
35467	-9.276224	-0.673584	-3.101743	0.579500	0.055965	0.808042	-0.090093
35468	-9.167306	-0.661597	-3.460527	0.579476	0.056198	0.808057	-0.089957
35469	-9.081920	-0.563000	-3.231343	0.579289	0.056287	0.808206	-0.089774
35470	-9.073145	-0.685269	-3.377549	0.579155	0.056364	0.808315	-0.089605
35471	-9.074483	-0.781466	-3.340542	0.578861	0.056500	0.808525	-0.089531
35472	-9.243955	-0.807572	-3.302680	0.578704	0.056659	0.808631	-0.089487
35473	-9.289897	-0.746558	-3.238670	0.578451	0.056639	0.808828	-0.089349
35474	-9.211993	-0.729485	-3.325871	0.578280	0.056377	0.809011	-0.088973
35475	-9.276761	-0.564412	-3.057094	0.578185	0.055971	0.809167	-0.088413
35476	-9.261947	-0.574190	-3.228532	0.578144	0.055702	0.809256	-0.088044
35477	-9.150726	-0.703418	-3.263022	0.578237	0.055420	0.809254	-0.087629
35478	-9.177982	-0.793994	-3.247654	0.578283	0.055125	0.809288	-0.087194
35479	-9.202563	-0.895161	-3.373971	0.578386	0.054783	0.809275	-0.086843
35480	-9.239801	-0.815333	-3.253954	0.578440	0.054380	0.809310	-0.086411
35481	-9.244603	-0.589050	-3.152377	0.578514	0.054019	0.809319	-0.086061
35482	-9.199924	-0.545442	-3.248753	0.578616	0.053639	0.809303	-0.085763
35483	-9.258643	-0.590972	-3.171977	0.578653	0.053188	0.809344	-0.085401
35484	-9.297515	-0.876519	-3.173788	0.578744	0.052703	0.809355	-0.084981
35485	-9.422667	-0.940360	-3.121190	0.579008	0.052167	0.809256	-0.084458
35486	-9.409599	-0.895066	-3.111564	0.579516	0.051839	0.808934	-0.084262
35487	-9.162180	-0.884812	-3.251126	0.580032	0.051752	0.808562	-0.084334
35488	-9.131392	-0.672025	-3.230722	0.580542	0.051693	0.808188	-0.084447
35489	-9.074781	-0.700457	-3.304870	0.580871	0.051653	0.807946	-0.084517
35490	-9.161509	-0.814453	-3.161259	0.581247	0.051280	0.807728	-0.084246
35491	-9.260387	-0.779304	-3.149944	0.581574	0.050858	0.807545	-0.084005
35492	-9.299255	-0.709962	-2.991078	0.581851	0.050370	0.807401	-0.083767
35493	-9.379761	-0.634781	-3.152070	0.582213	0.049653	0.807228	-0.083342
35494	-9.367933	-0.965551	-3.124019	0.582519	0.048982	0.807104	-0.082796
35495	-9.494083	-1.236635	-2.967074	0.583020	0.048277	0.806856	-0.082103
35496	-9.274026	-1.349407	-3.028183	0.583654	0.048177	0.806419	-0.081945
35497	-9.165833	-1.211392	-3.091189	0.584257	0.048767	0.805904	-0.082366
35498	-9.003881	-0.865511	-3.106400	0.584648	0.049624	0.805494	-0.083094
35499	-9.182216	-0.493206	-3.093279	0.584895	0.050391	0.805193	-0.083800
35500	-9.426277	-0.481403	-3.074291	0.585132	0.050784	0.804958	-0.084167
35501	-9.541828	-0.676178	-2.967812	0.585370	0.050629	0.804811	-0.084012
35502	-9.402387	-0.702265	-2.710479	0.585830	0.050211	0.804548	-0.083574
35503	-9.313436	-0.713506	-2.788572	0.586371	0.049981	0.804202	-0.083244
35504	-9.316815	-0.651379	-2.972053	0.586967	0.049887	0.803799	-0.083002
35505	-9.359870	-0.719746	-2.920990	0.587468	0.049848	0.803443	-0.082921
35506	-9.415810	-0.724984	-2.770485	0.588039	0.049843	0.803028	-0.082892
35507	-9.378996	-0.515660	-2.555790	0.588631	0.049766	0.802603	-0.082854
35508	-9.271487	-0.333910	-2.751087	0.589380	0.049721	0.802051	-0.082903
35509	-9.294221	-0.346382	-2.978862	0.589925	0.049716	0.801635	-0.083052
35510	-9.442687	-0.521232	-2.846475	0.590573	0.049290	0.801213	-0.082777
35511	-9.335068	-0.710466	-2.677203	0.591149	0.048548	0.800894	-0.082188
35512	-9.194986	-0.679680	-2.612682	0.591750	0.047939	0.800534	-0.081727
35513	-9.129587	-0.576382	-2.823033	0.592033	0.047769	0.800328	-0.081800
35514	-9.286729	-0.406586	-2.910123	0.592110	0.047710	0.800234	-0.082196
35515	-9.355555	-0.377567	-2.826126	0.592227	0.047536	0.800121	-0.082541
35516	-9.469412	-0.571925	-2.659983	0.592328	0.047079	0.800073	-0.082549
35517	-9.451374	-0.564285	-2.320989	0.592462	0.046469	0.800026	-0.082390
35518	-9.408782	-0.539626	-2.444786	0.592685	0.045989	0.799887	-0.082400
35519	-9.464336	-0.656454	-2.703669	0.592764	0.045665	0.799829	-0.082578
35520	-9.468567	-0.842435	-2.624638	0.592766	0.045352	0.799823	-0.082798
35521	-9.460619	-0.991660	-2.591425	0.592858	0.044990	0.799752	-0.083014
35522	-9.441363	-0.955177	-2.506111	0.592970	0.044776	0.799650	-0.083310
35523	-9.383835	-0.645912	-2.445426	0.593107	0.044699	0.799504	-0.083788
35524	-9.307394	-0.557997	-2.656388	0.593228	0.044608	0.799372	-0.084232
35525	-9.318462	-0.679180	-2.884097	0.593201	0.044287	0.799386	-0.084458
35526	-9.410930	-0.918703	-2.663558	0.593124	0.043722	0.799473	-0.084467
35527	-9.441264	-1.064204	-2.587112	0.593036	0.042974	0.799612	-0.084159
35528	-9.471359	-1.014588	-2.465185	0.592959	0.042384	0.799714	-0.084028
35529	-9.460102	-1.049659	-2.634407	0.592829	0.042067	0.799821	-0.084086
35530	-9.368414	-1.020148	-2.683957	0.592711	0.041952	0.799890	-0.084316
35531	-9.311658	-1.036850	-2.741335	0.592656	0.041982	0.799897	-0.084626
35532	-9.316375	-1.073864	-2.835240	0.592605	0.041914	0.799919	-0.084803
35533	-9.318597	-0.996484	-2.859753	0.592542	0.041868	0.799951	-0.084971
35534	-9.382825	-0.945637	-2.796990	0.592385	0.041829	0.800050	-0.085148
35535	-9.418104	-0.940234	-2.704767	0.592229	0.041768	0.800159	-0.085242
35536	-9.410434	-0.911028	-2.707781	0.592090	0.041905	0.800221	-0.085556
35537	-9.478024	-0.919729	-2.703101	0.592049	0.042039	0.800218	-0.085802
35538	-9.429832	-1.045737	-2.813579	0.592158	0.042203	0.800109	-0.085982
35539	-9.358950	-1.115194	-2.916709	0.592398	0.042355	0.799911	-0.086104
35540	-9.299093	-1.128746	-2.982258	0.592458	0.042659	0.799818	-0.086405
35541	-9.379543	-0.991402	-2.818269	0.592493	0.043016	0.799729	-0.086804
35542	-9.388346	-0.922697	-2.760378	0.592715	0.043342	0.799521	-0.087037
35543	-9.400326	-0.847653	-2.907798	0.592863	0.043649	0.799381	-0.087172
35544	-9.298274	-0.900656	-2.920947	0.593117	0.043977	0.799160	-0.087299
35545	-9.173840	-0.991903	-2.919153	0.593471	0.044375	0.798850	-0.087535
35546	-9.109878	-1.154960	-3.089245	0.593799	0.044926	0.798529	-0.087953
35547	-9.149955	-1.216527	-3.198519	0.594080	0.045518	0.798231	-0.088454
35548	-9.288098	-1.139139	-3.063241	0.594139	0.045923	0.798130	-0.088759
35549	-9.344815	-1.046502	-2.729114	0.594209	0.046275	0.798035	-0.088967
35550	-9.313320	-0.876829	-2.668630	0.594256	0.046717	0.797942	-0.089255
35551	-9.290197	-0.814903	-2.695390	0.594261	0.047449	0.797831	-0.089819
35552	-9.351630	-0.794710	-2.656433	0.594199	0.048174	0.797766	-0.090424
35553	-9.391136	-0.686959	-2.682804	0.594107	0.048848	0.797734	-0.090948
35554	-9.425726	-0.583222	-2.598489	0.593971	0.049248	0.797780	-0.091219
35555	-9.442664	-0.605889	-2.604304	0.593896	0.049609	0.797785	-0.091466
35556	-9.470706	-0.628552	-2.456585	0.593779	0.049991	0.797815	-0.091750
35557	-9.482923	-0.599064	-2.465676	0.593730	0.050331	0.797801	-0.092008
35558	-9.536690	-0.702056	-2.490773	0.593670	0.050719	0.797786	-0.092310
35559	-9.466511	-0.764860	-2.536561	0.593636	0.050826	0.797800	-0.092351
35560	-9.437833	-0.803896	-2.539021	0.593496	0.050966	0.797885	-0.092438
35561	-9.428529	-0.791739	-2.539419	0.593419	0.051041	0.797938	-0.092439
35562	-9.479336	-0.767262	-2.562627	0.593377	0.051273	0.797938	-0.092572
35563	-9.443362	-0.831304	-2.666380	0.593456	0.051613	0.797829	-0.092813
35564	-9.386117	-0.851624	-2.907816	0.593466	0.052087	0.797748	-0.093183
35565	-9.332396	-0.850943	-2.933483	0.593452	0.052558	0.797684	-0.093558
35566	-9.289749	-0.891721	-2.881342	0.593342	0.052941	0.797709	-0.093817
35567	-9.222596	-0.822864	-2.818309	0.593242	0.053347	0.797727	-0.094079
35568	-9.200429	-0.887126	-2.976573	0.593165	0.053858	0.797704	-0.094461
35569	-9.324699	-0.921496	-2.988074	0.593119	0.054337	0.797660	-0.094844
35570	-9.387003	-0.896563	-2.856762	0.593060	0.054855	0.797618	-0.095270
35571	-9.423015	-0.836894	-2.719982	0.593008	0.055281	0.797579	-0.095671
35572	-9.502242	-0.780355	-2.708100	0.593098	0.055600	0.797447	-0.096034
35573	-9.411256	-0.813574	-2.822824	0.593275	0.055683	0.797288	-0.096208
35574	-9.362003	-0.778609	-2.818812	0.593479	0.055773	0.797110	-0.096372
35575	-9.452041	-0.840515	-2.696667	0.593741	0.055811	0.796922	-0.096290
35576	-9.453892	-0.951674	-2.675398	0.594071	0.055869	0.796675	-0.096265
35577	-9.386233	-0.970384	-2.637512	0.594480	0.056003	0.796353	-0.096326
35578	-9.519216	-0.940999	-2.647629	0.594964	0.056040	0.795991	-0.096308
35579	-9.556310	-0.939797	-2.822007	0.595435	0.056158	0.795629	-0.096318
35580	-9.480582	-0.897513	-2.612075	0.595994	0.056307	0.795207	-0.096267
35581	-9.429661	-0.907843	-2.654316	0.596659	0.056422	0.794712	-0.096167
35582	-9.397685	-0.940237	-2.823259	0.597479	0.056463	0.794109	-0.096027
35583	-9.342003	-0.976400	-2.965229	0.598303	0.056540	0.793502	-0.095871
35584	-9.387839	-0.966391	-2.898472	0.599149	0.056619	0.792879	-0.095700
35585	-9.186313	-0.922472	-2.825031	0.599973	0.056709	0.792279	-0.095446
35586	-9.176949	-0.862229	-2.745152	0.600844	0.056674	0.791660	-0.095124
35587	-9.132490	-0.967909	-2.992582	0.601614	0.056721	0.791090	-0.094977
35588	-9.283241	-0.940271	-2.752252	0.602051	0.056785	0.790765	-0.094868
35589	-9.319136	-0.920107	-2.553982	0.602424	0.056596	0.790529	-0.094581
35590	-9.318606	-0.873932	-2.474702	0.602642	0.056434	0.790402	-0.094352
35591	-9.367373	-0.696808	-2.401513	0.602724	0.056383	0.790355	-0.094257
35592	-9.490420	-0.683896	-2.334514	0.602856	0.056397	0.790279	-0.094036
35593	-9.575066	-0.787805	-2.300695	0.603001	0.056569	0.790161	-0.094003
35594	-9.568633	-0.857306	-2.224494	0.603017	0.056819	0.790117	-0.094115
35595	-9.569302	-0.776747	-2.122759	0.603149	0.057142	0.789971	-0.094298
35596	-9.543595	-0.774506	-2.264876	0.603384	0.057321	0.789773	-0.094342
35597	-9.528404	-0.778119	-2.439131	0.603707	0.057375	0.789530	-0.094276
35598	-9.458054	-0.688209	-2.387750	0.603926	0.057382	0.789382	-0.094113
35599	-9.529775	-0.594280	-2.109174	0.603971	0.057308	0.789390	-0.093798
35600	-9.565575	-0.626321	-2.053075	0.604139	0.057094	0.789332	-0.093333
35601	-9.480687	-0.697251	-2.245336	0.604313	0.056989	0.789253	-0.092942
35602	-9.461868	-0.690772	-2.237161	0.604359	0.057061	0.789223	-0.092851
35603	-9.442594	-0.720874	-2.116507	0.604362	0.057193	0.789212	-0.092847
35604	-9.589573	-0.650004	-2.066041	0.604448	0.057194	0.789154	-0.092773
35605	-9.595851	-0.561701	-2.247763	0.604625	0.057254	0.789020	-0.092723
35606	-9.662862	-0.436193	-2.093209	0.604924	0.057282	0.788802	-0.092612
35607	-9.471657	-0.608345	-2.434497	0.605230	0.057269	0.788581	-0.092501
35608	-9.453157	-0.653437	-2.336790	0.605506	0.057317	0.788369	-0.092471
35609	-9.362688	-0.834618	-2.605190	0.605598	0.057463	0.788271	-0.092618
35610	-9.405913	-0.759634	-2.503474	0.605569	0.057632	0.788262	-0.092778
35611	-9.421083	-0.654871	-2.365245	0.605661	0.057506	0.788218	-0.092633
35612	-9.350016	-0.611190	-2.532543	0.605690	0.057325	0.788229	-0.092464
35613	-9.379939	-0.580717	-2.453677	0.605637	0.057265	0.788267	-0.092521
35614	-9.329232	-0.754461	-2.572243	0.605542	0.057157	0.788340	-0.092588
35615	-9.382432	-0.880006	-2.594526	0.605314	0.057089	0.788509	-0.092679
35616	-9.375278	-0.874939	-2.552747	0.605019	0.056990	0.788733	-0.092755
35617	-9.463805	-0.741177	-2.373238	0.604783	0.056871	0.788909	-0.092879
35618	-9.447038	-0.686339	-2.347946	0.604649	0.056764	0.789004	-0.093005
35619	-9.447457	-0.787565	-2.573065	0.604509	0.056590	0.789115	-0.093077
35620	-9.456029	-0.798111	-2.344410	0.604339	0.056502	0.789229	-0.093266
35621	-9.329141	-0.784231	-2.369438	0.604136	0.056236	0.789404	-0.093267
35622	-9.273151	-0.733554	-2.660401	0.603792	0.056119	0.789654	-0.093449
35623	-9.445715	-0.738362	-2.638463	0.603208	0.055954	0.790089	-0.093642
35624	-9.431148	-0.699089	-2.372117	0.602672	0.055435	0.790558	-0.093442
35625	-9.468273	-0.773096	-2.202575	0.602210	0.054852	0.790984	-0.093162
35626	-9.415122	-0.867927	-2.358220	0.601718	0.054250	0.791443	-0.092792
35627	-9.476286	-0.866800	-2.442481	0.601138	0.053865	0.791923	-0.092675
35628	-9.374080	-0.945606	-2.584538	0.600563	0.053515	0.792385	-0.092665
35629	-9.322807	-0.868808	-2.639987	0.599837	0.053177	0.792959	-0.092651
35630	-9.323010	-0.681165	-2.559886	0.598866	0.052802	0.793720	-0.092625
35631	-9.438227	-0.631178	-2.350246	0.597990	0.052274	0.794435	-0.092453
35632	-9.522859	-0.672493	-2.414974	0.597190	0.051785	0.795086	-0.092301
35633	-9.574449	-0.697245	-2.391155	0.596335	0.051236	0.795791	-0.092062
35634	-9.616690	-0.775005	-2.310350	0.595574	0.050757	0.796422	-0.091801
35635	-9.675632	-0.838774	-2.343087	0.595065	0.050345	0.796859	-0.091538
35636	-9.474717	-0.902921	-2.540983	0.594678	0.049988	0.797196	-0.091308
35637	-9.445675	-0.915320	-2.711646	0.594382	0.049766	0.797443	-0.091199
35638	-9.534216	-0.830048	-2.717810	0.593915	0.049763	0.797788	-0.091233
35639	-9.488358	-0.862797	-2.833423	0.593589	0.049716	0.798053	-0.091064
35640	-9.408671	-0.968668	-2.766990	0.593392	0.049771	0.798219	-0.090859
35641	-9.279314	-1.071113	-2.929752	0.593418	0.049651	0.798246	-0.090518
35642	-9.429307	-1.037570	-2.988738	0.593562	0.049581	0.798159	-0.090377
35643	-9.577622	-0.988298	-2.935627	0.593793	0.049440	0.798026	-0.090104
35644	-9.449236	-1.023246	-2.845683	0.594097	0.049100	0.797879	-0.089592
35645	-9.311355	-0.893283	-2.784583	0.594486	0.048732	0.797665	-0.089117
35646	-9.158469	-0.947735	-3.216036	0.594860	0.048339	0.797466	-0.088618
35647	-9.173003	-1.121577	-3.415922	0.595102	0.048193	0.797311	-0.088467
35648	-8.927404	-1.057240	-3.043520	0.595217	0.048046	0.797244	-0.088375
35649	-8.909304	-0.620452	-2.862314	0.595196	0.047925	0.797279	-0.088269
35650	-8.841730	-0.519061	-3.305681	0.595064	0.047854	0.797379	-0.088290
35651	-9.146711	-0.647135	-3.396469	0.594729	0.047803	0.797587	-0.088699
35652	-9.368018	-0.522084	-3.203445	0.594344	0.047397	0.797866	-0.088987
35653	-9.566318	-0.544051	-3.018377	0.594031	0.046441	0.798170	-0.088854
35654	-9.755299	-0.484985	-2.707380	0.594094	0.045228	0.798235	-0.088473
35655	-9.811699	-0.783865	-2.710297	0.594444	0.044046	0.798069	-0.088217
35656	-9.791378	-0.735737	-2.599792	0.595182	0.043337	0.797544	-0.088338
35657	-9.770994	-0.506750	-2.467305	0.596046	0.043365	0.796815	-0.089081
35658	-9.491630	-0.331041	-2.601331	0.597414	0.043575	0.795674	-0.089999
35659	-9.528711	-0.207348	-2.480422	0.598771	0.044229	0.794428	-0.091661
35660	-9.741172	-0.063000	-2.500851	0.600334	0.044967	0.792970	-0.093675
35661	-9.819803	0.146645	-2.424592	0.602297	0.045422	0.791218	-0.095652
35662	-9.734213	0.263097	-2.435062	0.604014	0.045916	0.789611	-0.097844
35663	-9.962653	0.602602	-2.000783	0.606262	0.045975	0.787653	-0.099677
35664	-10.114092	0.560912	-1.839444	0.609027	0.046042	0.785273	-0.101549
35665	-10.374661	0.320615	-1.453135	0.612563	0.046324	0.782238	-0.103562
35666	-10.702805	0.283996	-0.868399	0.617047	0.046684	0.778403	-0.105649
35667	-11.210039	0.142297	-0.470188	0.622997	0.047237	0.773290	-0.108009
35668	-11.674854	-0.044604	0.145286	0.630519	0.048534	0.766653	-0.111058
35669	-12.340371	-0.271360	0.584164	0.639731	0.050188	0.758448	-0.113938
35670	-13.685241	-0.885750	0.922075	0.650657	0.051550	0.748656	-0.116196
35671	-15.356838	-1.355281	1.420063	0.663605	0.052274	0.736895	-0.117821
35672	-15.321369	-1.537430	2.678448	0.679937	0.052032	0.721836	-0.118029
35673	-14.442667	-2.059784	3.227375	0.699795	0.049130	0.703092	-0.116337
35674	-13.419227	-3.093346	3.144752	0.722017	0.042999	0.680939	-0.114734
35675	-12.307764	-4.216311	1.777257	0.743202	0.037545	0.657832	-0.116184
35676	-12.285627	-3.696131	1.386460	0.759973	0.037153	0.637103	-0.123128
35677	-12.249278	-2.766358	1.334376	0.776047	0.036847	0.616219	-0.129103
35678	-10.905569	-2.331968	-0.379826	0.792099	0.035970	0.594587	-0.133234
35679	-10.089926	-1.579725	-0.350336	0.806054	0.036083	0.574650	-0.136938
35680	-9.791180	-0.197298	0.709705	0.818729	0.036597	0.555508	-0.140550
35681	-10.158020	1.063196	2.721897	0.830349	0.036685	0.537263	-0.143260
35682	-10.656851	1.701311	4.146359	0.842044	0.032417	0.519209	-0.142598
35683	-10.463995	0.804695	4.410875	0.853320	0.025278	0.501486	-0.140419
35684	-10.243299	0.684896	5.435328	0.864101	0.014126	0.484139	-0.136890
35685	-9.791238	0.148398	5.040682	0.874376	0.000355	0.466701	-0.132880
35686	-9.037747	-1.286927	3.805604	0.884196	-0.012252	0.448460	-0.130114
35687	-8.674820	-2.246540	4.386763	0.893405	-0.023885	0.429769	-0.128667
35688	-8.243294	-2.722553	5.610368	0.902304	-0.036057	0.410413	-0.126915
35689	-7.733862	-2.217013	6.376368	0.910807	-0.045020	0.390603	-0.125831
35690	-7.009251	-2.059407	4.788838	0.918536	-0.053549	0.371390	-0.124475
35691	-6.674253	-1.184876	6.811209	0.925503	-0.059958	0.352957	-0.123575
35692	-6.913027	-1.798585	5.869414	0.931988	-0.066789	0.334759	-0.121960
35693	-7.798610	-1.432437	7.297630	0.938415	-0.073970	0.315439	-0.120021
35694	-7.717731	-2.552406	6.936757	0.944852	-0.083099	0.294318	-0.117160
35695	-6.580075	-2.183004	8.498130	0.950870	-0.091908	0.272485	-0.114679
35696	-4.892876	-2.161904	7.862149	0.956144	-0.100923	0.250789	-0.112728
35697	-3.823660	-2.379524	7.758015	0.960743	-0.108513	0.229716	-0.111486
35698	-4.341889	-3.367202	6.961227	0.964856	-0.116564	0.208270	-0.109952
35699	-3.978188	-3.582593	7.157570	0.968804	-0.123100	0.185866	-0.108257
35700	-3.614567	-3.224131	7.033038	0.972346	-0.129090	0.163117	-0.106173
35701	-2.827480	-2.640092	7.131801	0.975538	-0.133503	0.140283	-0.104036
35702	-2.352513	-2.167008	6.692242	0.978140	-0.138094	0.117927	-0.101315
35703	-1.793582	-1.789484	6.762680	0.980131	-0.143148	0.096130	-0.098033
35704	-1.416529	-2.041806	6.140657	0.981455	-0.148763	0.075430	-0.094481
35705	-1.512630	-2.963862	5.861288	0.982294	-0.153922	0.055779	-0.091083
35706	-0.717497	-3.665978	5.563264	0.982884	-0.157622	0.036881	-0.087941
35707	0.450830	-3.093221	5.720048	0.983241	-0.160127	0.019720	-0.084903
35708	1.045752	-2.622208	5.387356	0.983318	-0.162202	0.004922	-0.082177
35709	1.781500	-2.381666	4.671237	0.983251	-0.163643	-0.007651	-0.079881
35710	2.497340	-2.746522	5.665285	0.983208	-0.164201	-0.017308	-0.077718
35711	2.682216	-3.175590	4.723453	0.983093	-0.165046	-0.024319	-0.075483
35712	3.124523	-2.918110	4.733895	0.983123	-0.165196	-0.028601	-0.073217
35713	3.807101	-2.481138	5.022252	0.983280	-0.164837	-0.029921	-0.071378
35714	3.169874	-2.954076	5.644751	0.983560	-0.164386	-0.027564	-0.069483
35715	2.753676	-3.434080	4.934565	0.983983	-0.163450	-0.022803	-0.067397
35716	2.707553	-2.768332	5.072970	0.984504	-0.161946	-0.016003	-0.065341
35717	2.056652	-2.477710	6.260883	0.985027	-0.160111	-0.006578	-0.063582
35718	1.649882	-3.171568	6.055205	0.985382	-0.158563	0.005474	-0.062043
35719	0.963102	-3.094581	6.034760	0.985640	-0.156402	0.019313	-0.060663
35720	0.373744	-3.058256	6.167560	0.985590	-0.154508	0.034465	-0.059596
35721	-0.304486	-3.550228	6.633183	0.985382	-0.151166	0.051573	-0.059249
35722	-1.209320	-3.623052	6.220494	0.984842	-0.147481	0.069279	-0.059459
35723	-1.234957	-3.580044	7.242574	0.984052	-0.142360	0.087974	-0.060294
35724	-1.531453	-3.902018	6.810138	0.982907	-0.136358	0.107464	-0.061244
35725	-1.156850	-3.528737	5.955545	0.981103	-0.131398	0.127535	-0.062502
35726	-1.287409	-2.435786	6.585382	0.978881	-0.124174	0.148977	-0.064650
35727	-1.734115	-1.868060	6.068178	0.975712	-0.116975	0.172417	-0.067638
35728	-3.666735	-1.958487	6.127263	0.971665	-0.109655	0.197115	-0.070629
35729	-5.086759	-2.745143	6.662049	0.966799	-0.103371	0.222029	-0.072925
35730	-5.899440	-3.249874	4.152345	0.961467	-0.099049	0.245333	-0.074713
35731	-6.057886	-3.420360	5.887986	0.955706	-0.091974	0.268624	-0.077506
35732	-5.976217	-2.065025	8.170983	0.949080	-0.084711	0.292646	-0.080182
35733	-6.447991	-1.928624	5.420201	0.941858	-0.073669	0.316892	-0.083994
35734	-7.553798	-0.498817	4.859874	0.933307	-0.065953	0.342076	-0.087013
35735	-9.474928	-0.967166	6.403458	0.923921	-0.055082	0.367533	-0.090853
35736	-10.983251	-2.057457	5.562965	0.914900	-0.049534	0.389894	-0.092127
35737	-9.738698	-2.528254	6.480018	0.905851	-0.045879	0.410678	-0.093123
35738	-8.239210	-0.473003	6.883288	0.895975	-0.042621	0.431771	-0.094794
35739	-8.787793	-1.213864	4.570382	0.884670	-0.033275	0.454418	-0.098769
35740	-11.466049	-0.532570	5.697184	0.872324	-0.027516	0.477805	-0.099980
35741	-12.181238	-2.780046	2.563081	0.861632	-0.027912	0.497199	-0.097999
35742	-11.581254	-3.224294	4.010505	0.850880	-0.023226	0.515372	-0.099274
35743	-11.261754	-2.456175	5.196757	0.840036	-0.015745	0.532734	-0.101417
35744	-10.003181	-1.918680	7.096181	0.829254	-0.010650	0.549444	-0.101661
35745	-10.313707	-3.330894	3.833893	0.816951	-0.008535	0.567660	-0.101389
35746	-12.582914	-0.806174	4.339927	0.802528	-0.007345	0.587841	-0.101676
35747	-13.460272	-0.868417	2.195774	0.791058	-0.006268	0.603116	-0.102175
35748	-11.275196	-1.541151	2.203388	0.781365	-0.003450	0.615348	-0.103943
35749	-9.929352	-3.159878	2.714239	0.772661	-0.002858	0.626270	-0.103794
35750	-9.829506	-3.321799	3.015594	0.763093	0.001934	0.637562	-0.105829
35751	-11.012484	-3.482415	4.033886	0.752329	0.007924	0.650109	-0.106286
35752	-10.066892	-3.916379	2.739122	0.742378	0.012755	0.661559	-0.105128
35753	-9.143152	-3.459662	-0.447326	0.732117	0.021664	0.672205	-0.108055
35754	-9.219580	-1.062200	-1.309001	0.720483	0.036066	0.682589	-0.116945
35755	-10.776600	0.496127	0.821819	0.709346	0.049890	0.691705	-0.126029
35756	-11.276087	1.054806	1.545901	0.700021	0.060367	0.699068	-0.132777
35757	-11.515949	1.876514	1.072104	0.690045	0.067781	0.707361	-0.137420
35758	-11.949563	2.608328	0.424305	0.680386	0.071794	0.716024	-0.138672
35759	-11.094241	2.441811	-1.258848	0.671497	0.073563	0.724473	-0.137180
35760	-11.210324	1.301976	-1.038003	0.662583	0.074563	0.733062	-0.134333
35761	-10.712155	0.114069	-0.827356	0.655105	0.075023	0.740194	-0.131613
35762	-9.176350	-0.854758	-1.561067	0.647845	0.075702	0.746761	-0.130054
35763	-8.899700	-1.028730	-2.661948	0.639293	0.076602	0.754141	-0.129259
35764	-9.251354	-1.098409	-3.830824	0.629871	0.077760	0.761819	-0.129795
35765	-10.550525	-0.205303	-3.455324	0.618817	0.078834	0.770576	-0.130624
35766	-12.225255	-0.063626	-0.967936	0.608611	0.079065	0.778672	-0.130429
35767	-12.847855	-0.713950	1.021083	0.601427	0.077725	0.784667	-0.128615
35768	-12.726499	-0.573375	2.175421	0.596498	0.075739	0.789080	-0.125723
35769	-12.605241	-0.609154	1.982958	0.593906	0.073312	0.791969	-0.121191
35770	-12.386273	-0.920983	1.035617	0.593153	0.071188	0.793460	-0.116288
35771	-12.075406	-1.382332	0.398000	0.594177	0.070637	0.793199	-0.113136
35772	-11.194827	-1.771844	-0.109328	0.596749	0.071397	0.791473	-0.111189
35773	-10.322556	-1.203187	-0.646457	0.599772	0.073413	0.789096	-0.110507
35774	-9.514557	-0.343399	-1.261521	0.602644	0.076506	0.786552	-0.110922
35775	-9.217939	0.262104	-2.012286	0.605345	0.079869	0.784039	-0.111632
35776	-9.304312	0.389783	-2.030239	0.607781	0.081796	0.782084	-0.110710
35777	-9.435179	0.667207	-1.995706	0.610642	0.081542	0.780266	-0.107943
35778	-9.831525	0.568332	-2.326316	0.613644	0.079580	0.778687	-0.103705
35779	-9.857927	0.084094	-2.336521	0.616936	0.076861	0.776963	-0.099045
35780	-9.717221	-0.555088	-2.023831	0.620388	0.074671	0.774910	-0.095171
35781	-9.872153	-1.190807	-1.863427	0.624334	0.073544	0.772206	-0.092180
35782	-9.628479	-1.451239	-1.214092	0.628207	0.072424	0.769664	-0.087908
35783	-9.849324	-1.248280	-0.361260	0.633160	0.071406	0.766223	-0.083133
35784	-9.842518	-0.743672	-0.600494	0.638207	0.071733	0.762377	-0.079544
35785	-10.285618	0.189397	0.317803	0.643590	0.073335	0.757954	-0.076941
35786	-9.790253	0.050137	-0.663207	0.651330	0.073899	0.751674	-0.072763
35787	-8.797563	-0.815322	-1.115995	0.658752	0.074527	0.745591	-0.067715
35788	-8.797498	-1.174976	0.342896	0.666031	0.074873	0.739541	-0.062255
35789	-8.834464	-1.192634	-0.834117	0.673597	0.072505	0.733452	-0.055301
35790	-9.008994	0.209376	-2.236252	0.679903	0.070992	0.728141	-0.050036
35791	-8.891271	-0.555887	-3.527759	0.684494	0.070575	0.724210	-0.044797
35792	-8.534810	-1.593900	-4.209345	0.687336	0.070851	0.721732	-0.040636
35793	-8.875615	-0.507372	-2.660453	0.688096	0.070329	0.721299	-0.036118
35794	-10.547668	0.535731	-1.709135	0.687664	0.070185	0.721969	-0.030880
35795	-11.324668	-0.102505	-2.152486	0.687704	0.069048	0.722272	-0.024873
35796	-10.547260	-0.376850	-1.830061	0.687769	0.067938	0.722488	-0.019204
35797	-10.077446	-1.911488	-2.831720	0.686442	0.068820	0.723764	-0.015032
35798	-9.589970	-2.423801	-2.919648	0.683469	0.073280	0.726154	-0.014156
35799	-10.359127	-0.667161	-2.582100	0.680283	0.076421	0.728853	-0.012207
35800	-10.317981	0.948550	-1.934543	0.676575	0.079838	0.731937	-0.011849
35801	-10.064975	2.665418	-1.055719	0.673829	0.081317	0.734322	-0.010640
35802	-9.193900	3.126774	-1.441484	0.671755	0.081680	0.736210	-0.008332
35803	-9.282468	3.314815	-0.670575	0.669439	0.082257	0.738275	-0.005867
35804	-9.279589	2.070686	-0.932047	0.667256	0.083184	0.740164	-0.002885
35805	-9.463015	1.524408	-1.163732	0.665211	0.084962	0.741805	-0.000812
35806	-9.307127	0.631177	-1.454253	0.662617	0.088377	0.743726	-0.000712
35807	-9.366316	0.366238	-1.543968	0.659571	0.093793	0.745761	-0.003134
35808	-9.613904	1.534814	-1.182660	0.655855	0.100947	0.748070	-0.007496
35809	-9.780381	1.954097	-1.264677	0.652597	0.107930	0.749889	-0.011610
35810	-10.437351	1.635706	-0.991274	0.649524	0.114312	0.751546	-0.015192
35811	-10.612824	1.245552	-1.380778	0.647534	0.119087	0.752472	-0.017401
35812	-9.848142	1.220829	-1.802908	0.645664	0.123997	0.753239	-0.019312
35813	-9.305191	1.939191	-1.926922	0.643853	0.129648	0.753795	-0.020954
35814	-9.285072	2.383512	-1.775095	0.641606	0.135736	0.754618	-0.021682
35815	-10.101309	2.607235	-1.181484	0.639106	0.141831	0.755620	-0.021596
35816	-10.862655	1.136475	-1.299634	0.637950	0.147053	0.755628	-0.020513
35817	-10.308275	1.057226	-1.418202	0.636522	0.153179	0.755590	-0.021449
35818	-9.737553	2.594404	-1.703053	0.635147	0.160074	0.755256	-0.023511
35819	-9.371997	4.504308	-0.763135	0.633356	0.166372	0.755363	-0.024649
35820	-8.606950	4.504043	-1.663698	0.632436	0.171036	0.755124	-0.023654
35821	-7.954525	4.143298	-1.337601	0.631521	0.174103	0.755264	-0.021082
35822	-8.777796	2.842506	-1.182879	0.630936	0.175717	0.755481	-0.017063
35823	-10.001189	2.142491	-0.858387	0.630763	0.176008	0.755643	-0.012795
35824	-10.298582	0.863205	-1.442770	0.631115	0.175130	0.755619	-0.007930
35825	-9.827940	-0.434892	-1.644463	0.631571	0.175217	0.755242	-0.005108
35826	-9.546698	0.743596	-1.585007	0.631280	0.178285	0.754762	-0.005851
35827	-9.416594	2.247745	-1.962288	0.630741	0.181779	0.754366	-0.007357
35828	-9.224144	3.278639	-1.476594	0.630437	0.184727	0.753893	-0.008404
35829	-8.778639	3.302003	-1.443661	0.630597	0.186877	0.753221	-0.009067
35830	-8.833518	3.176647	-1.428917	0.631319	0.187573	0.752454	-0.008081
35831	-8.756988	2.873879	-1.651998	0.632212	0.186902	0.751887	-0.006387
35832	-8.852011	2.023171	-2.394849	0.633357	0.186146	0.751122	-0.004833
35833	-8.314401	2.289786	-2.417381	0.634297	0.186119	0.750339	-0.004247
35834	-8.035092	2.698604	-2.878387	0.634950	0.186361	0.749730	-0.003598
35835	-7.892710	2.376691	-3.231879	0.635365	0.186453	0.749361	-0.002319
35836	-7.566276	2.150606	-3.468350	0.635164	0.186509	0.749521	-0.000288
35837	-7.080118	1.700959	-3.767593	0.634418	0.186363	0.750184	0.002463
35838	-7.718097	1.933128	-3.194258	0.633142	0.185612	0.751427	0.006105
35839	-10.537959	1.992676	-2.171092	0.631770	0.184248	0.752881	0.009500
35840	-11.561174	2.198169	-1.545147	0.631244	0.181513	0.753940	0.012603
35841	-10.394057	1.419788	-2.275020	0.631094	0.178545	0.754721	0.015419
35842	-8.739038	1.473240	-3.000342	0.630246	0.177037	0.755759	0.016629
35843	-8.200103	2.257340	-3.173953	0.629130	0.175698	0.756972	0.017833
35844	-9.000253	3.638484	-2.947817	0.627660	0.173847	0.758586	0.019152
35845	-10.265359	2.694640	-2.780495	0.627209	0.169442	0.759846	0.023062
35846	-10.251648	1.637786	-2.367128	0.627050	0.165015	0.760839	0.026499
35847	-9.359165	0.643098	-2.501417	0.627195	0.161931	0.761291	0.029003
35848	-9.103728	0.746220	-2.205611	0.626475	0.161430	0.761999	0.028751
35849	-9.686781	2.059456	-2.445360	0.625095	0.161803	0.763121	0.026888
35850	-9.732070	3.043614	-2.598978	0.623818	0.161783	0.764238	0.024863
35851	-8.767438	3.232238	-2.498645	0.622947	0.161105	0.765125	0.023783
35852	-8.506195	3.190676	-2.419827	0.621696	0.160630	0.766264	0.023053
35853	-9.296849	3.181710	-2.202478	0.620775	0.159629	0.767224	0.022889
35854	-9.781448	3.287841	-1.869717	0.619939	0.157517	0.768328	0.023166
35855	-9.225434	2.946496	-2.468045	0.618871	0.155193	0.769656	0.023310
35856	-8.759213	2.568950	-2.582609	0.617576	0.152819	0.771168	0.023361
35857	-8.754192	1.638318	-2.686174	0.616279	0.151128	0.772551	0.022930
35858	-9.314507	2.363714	-2.313401	0.614399	0.150760	0.774170	0.021143
35859	-10.146706	2.356268	-2.163855	0.612860	0.149603	0.775640	0.020081
35860	-9.783562	1.606002	-2.350813	0.611606	0.148622	0.776867	0.018082
35861	-8.893854	1.901891	-2.212893	0.609925	0.148799	0.778211	0.015437
35862	-8.345108	1.672686	-2.001748	0.608280	0.150654	0.779200	0.012087
35863	-8.780646	2.718823	-1.888208	0.606093	0.152890	0.780517	0.008348
35864	-9.801441	2.689475	-2.382389	0.604299	0.153353	0.781844	0.004997
35865	-10.058863	3.213064	-2.493945	0.602843	0.152317	0.783184	0.001609
35866	-9.182004	4.299911	-2.701177	0.601806	0.150181	0.784395	-0.000591
35867	-8.543964	3.494593	-2.369607	0.601383	0.147053	0.785311	0.000048
35868	-7.936668	1.994903	-2.622755	0.600711	0.144510	0.786296	0.000944
35869	-9.222397	1.493968	-2.503409	0.598857	0.142353	0.788102	0.001008
35870	-9.970576	1.796269	-2.552475	0.597203	0.138972	0.789959	0.000513
35871	-9.879764	1.365110	-2.635419	0.596097	0.134362	0.791590	0.000299
35872	-8.999152	0.282653	-3.202574	0.595575	0.130372	0.792650	-0.000236
35873	-8.377452	1.480757	-3.047117	0.593322	0.129280	0.794512	-0.002349
35874	-8.404379	2.090794	-2.870492	0.590641	0.130127	0.796350	-0.006130
35875	-9.153872	2.704672	-2.653106	0.587472	0.129863	0.798701	-0.009480
35876	-9.283820	3.534391	-2.875231	0.584917	0.127632	0.800897	-0.012098
35877	-9.618484	3.653210	-2.914730	0.583525	0.122259	0.802746	-0.012280
35878	-9.992213	2.248756	-3.375941	0.583416	0.114017	0.804082	-0.008847
35879	-9.496310	0.674967	-3.622675	0.583950	0.105765	0.804856	-0.004819
35880	-8.879894	-0.249661	-3.417437	0.583970	0.099601	0.805638	-0.002325
35881	-8.631748	-0.263217	-3.224608	0.583524	0.096289	0.806363	-0.002599
35882	-8.294357	0.411709	-3.017187	0.582584	0.094673	0.807223	-0.004919
35883	-8.595784	1.545687	-3.225208	0.580769	0.093265	0.808664	-0.008443
35884	-10.323665	2.288866	-2.663966	0.579155	0.090511	0.810096	-0.011477
35885	-10.299044	2.328766	-2.285942	0.578719	0.086132	0.810864	-0.012858
35886	-10.468896	1.452854	-2.450065	0.579071	0.081280	0.811116	-0.012678
35887	-9.834611	0.495152	-2.543728	0.580348	0.077322	0.810589	-0.012770
35888	-9.137018	0.057957	-3.209138	0.581446	0.074962	0.809998	-0.014280
35889	-8.532450	0.422159	-3.901711	0.582080	0.073603	0.809605	-0.017474
35890	-8.439726	1.226489	-3.963066	0.582157	0.072401	0.809561	-0.021507
35891	-8.536261	1.346055	-3.725512	0.582277	0.070608	0.809532	-0.025008
35892	-8.902926	0.986482	-3.516867	0.582170	0.068600	0.809678	-0.028185
35893	-9.451351	0.750198	-3.073915	0.582347	0.066510	0.809620	-0.031048
35894	-9.636627	0.446860	-2.626719	0.582799	0.064528	0.809353	-0.033591
35895	-9.498116	-0.096587	-2.937970	0.583814	0.062983	0.808628	-0.036273
35896	-9.638875	-0.330709	-3.010002	0.585037	0.062406	0.807618	-0.039875
35897	-9.549250	-1.060542	-3.048447	0.586551	0.062526	0.806322	-0.043516
35898	-10.038086	-1.620809	-2.638544	0.588108	0.063798	0.804869	-0.047371
35899	-10.146457	-2.090759	-2.183578	0.590451	0.066557	0.802629	-0.052187
35900	-9.916607	-1.998666	-2.336432	0.592940	0.070359	0.800090	-0.057692
35901	-9.899980	-1.654049	-2.261888	0.595777	0.074738	0.797126	-0.063676
35902	-9.462293	-1.459039	-2.326465	0.598828	0.079294	0.793881	-0.069784
35903	-9.293775	-0.950498	-2.169519	0.601750	0.083767	0.790664	-0.075695
35904	-9.313191	-0.699571	-1.904024	0.604359	0.087566	0.787764	-0.080689
35905	-9.241768	-0.512946	-1.830548	0.606829	0.090817	0.785044	-0.084946
35906	-9.295564	-0.574081	-1.860269	0.608960	0.093379	0.782708	-0.088415
35907	-9.157924	-0.725100	-1.929134	0.610674	0.095501	0.780748	-0.091592
35908	-9.492210	-0.822854	-1.863873	0.611670	0.097043	0.779475	-0.094132
35909	-9.628159	-1.054566	-1.560151	0.612641	0.097790	0.778424	-0.095735
35910	-9.259218	-0.715631	-1.707424	0.613221	0.098078	0.777764	-0.097076
35911	-9.436080	-0.463559	-2.120435	0.613186	0.098551	0.777551	-0.098519
35912	-9.720887	-0.396223	-1.915580	0.612746	0.098847	0.777707	-0.099713
35913	-9.208608	-0.397061	-1.854103	0.612507	0.098512	0.777864	-0.100291
35914	-9.199461	-0.267211	-2.034165	0.611706	0.098178	0.778472	-0.100782
35915	-9.485877	-0.302710	-2.268447	0.610767	0.097440	0.779281	-0.100947
35916	-9.583771	-0.303094	-2.311084	0.609886	0.096386	0.780107	-0.100906
35917	-9.595755	-0.431970	-2.171712	0.609090	0.095195	0.780894	-0.100759
35918	-9.741113	-0.546963	-2.202330	0.608507	0.093929	0.781557	-0.100330
35919	-9.983208	-0.784644	-2.268850	0.607963	0.092998	0.782155	-0.099831
35920	-9.840810	-1.011153	-2.000083	0.607735	0.092415	0.782452	-0.099436
35921	-9.735081	-1.173385	-1.874135	0.607630	0.092556	0.782485	-0.099685
35922	-9.524667	-0.990866	-2.075736	0.607628	0.093309	0.782290	-0.100522
35923	-9.333591	-0.551848	-2.639328	0.607165	0.094538	0.782308	-0.102022
35924	-9.541280	-0.134694	-2.318295	0.606573	0.095786	0.782406	-0.103610
35925	-9.611279	0.108088	-2.243509	0.606466	0.096137	0.782377	-0.104132
35926	-9.644235	-0.164509	-2.401044	0.606500	0.096350	0.782285	-0.104430
35927	-9.450052	-0.515901	-2.320252	0.606541	0.096617	0.782157	-0.104893
35928	-9.249132	-0.737773	-2.265827	0.606449	0.097080	0.782056	-0.105756
35929	-9.262490	-0.724183	-2.400792	0.606251	0.097583	0.782014	-0.106731
35930	-9.298684	-0.707632	-2.879410	0.605933	0.097944	0.782087	-0.107667
35931	-9.549830	-0.729728	-2.907564	0.605259	0.098372	0.782448	-0.108440
35932	-9.589496	-0.764401	-2.532809	0.604624	0.098932	0.782774	-0.109125
35933	-9.472020	-0.680889	-2.142772	0.604230	0.099409	0.782951	-0.109602
35934	-9.473721	-0.727204	-2.329136	0.603881	0.100494	0.782932	-0.110665
35935	-9.518725	-0.767079	-2.688606	0.603494	0.101820	0.782859	-0.112071
35936	-9.384502	-0.687070	-2.827770	0.602881	0.103066	0.782979	-0.113388
35937	-9.307351	-0.555526	-2.670589	0.602182	0.104076	0.783213	-0.114553
35938	-9.206544	-0.404969	-2.527032	0.601567	0.104747	0.783450	-0.115544
35939	-9.209425	-0.409162	-2.891733	0.600949	0.105161	0.783750	-0.116349
35940	-9.427641	-0.333093	-2.720684	0.599943	0.105399	0.784405	-0.116907
35941	-9.553513	-0.430730	-2.542140	0.599092	0.105122	0.785108	-0.116805
35942	-9.431541	-0.544483	-2.413173	0.598293	0.104831	0.785757	-0.116796
35943	-9.335838	-0.734888	-2.609034	0.597455	0.104799	0.786344	-0.117166
35944	-9.280190	-0.822496	-2.683629	0.596689	0.104845	0.786839	-0.117706
35945	-9.436418	-0.813840	-2.649792	0.595963	0.104811	0.787315	-0.118230
35946	-9.528979	-0.644338	-2.664924	0.595298	0.104657	0.787792	-0.118534
35947	-9.577252	-0.515345	-2.602591	0.594828	0.104510	0.788146	-0.118671
35948	-9.524952	-0.542191	-2.620401	0.594433	0.104476	0.788427	-0.118814
35949	-9.648852	-0.582840	-2.471152	0.594259	0.104400	0.788557	-0.118887
35950	-9.657077	-0.640542	-2.685495	0.594347	0.104476	0.788464	-0.118997
35951	-9.649489	-0.603848	-2.751739	0.594510	0.104910	0.788251	-0.119219
35952	-9.542728	-0.644311	-2.597031	0.594838	0.105406	0.787899	-0.119469
35953	-9.319555	-0.730154	-2.703662	0.595356	0.106114	0.787345	-0.119911
35954	-9.250641	-0.777531	-2.922032	0.595866	0.106984	0.786729	-0.120644
35955	-9.340497	-0.701601	-2.974585	0.596254	0.108037	0.786143	-0.121611
35956	-9.460058	-0.449182	-2.538520	0.596786	0.108821	0.785539	-0.122201
35957	-9.562559	-0.351142	-2.325849	0.597447	0.109597	0.784840	-0.122765
35958	-9.456658	-0.357915	-2.472623	0.598201	0.110447	0.784045	-0.123410
35959	-9.253924	-0.501161	-2.837117	0.598823	0.111484	0.783269	-0.124384
35960	-9.217233	-0.652022	-2.895936	0.599004	0.112760	0.782752	-0.125613
35961	-9.181367	-0.658873	-2.598029	0.599198	0.113797	0.782271	-0.126745
35962	-9.183481	-0.663841	-2.589276	0.599255	0.114807	0.781880	-0.127971
35963	-9.217023	-0.602760	-2.677894	0.599217	0.115809	0.781537	-0.129334
35964	-9.379448	-0.645823	-2.736888	0.599086	0.116710	0.781279	-0.130680
35965	-9.483966	-0.627574	-2.520965	0.598898	0.117673	0.781034	-0.132138
35966	-9.589276	-0.510353	-2.271383	0.598660	0.118542	0.780869	-0.133407
35967	-9.510140	-0.452366	-2.130910	0.598634	0.119269	0.780581	-0.134558
35968	-9.565533	-0.489919	-2.182776	0.598745	0.120046	0.780165	-0.135775
35969	-9.664834	-0.646013	-2.290343	0.599021	0.120819	0.779600	-0.137116
35970	-9.698506	-0.745009	-2.419716	0.599396	0.121705	0.778915	-0.138580
35971	-9.725030	-0.635197	-2.237175	0.599732	0.122836	0.778199	-0.140142
35972	-9.751058	-0.600471	-2.093307	0.600232	0.124125	0.777321	-0.141731
35973	-9.574188	-0.625089	-2.048275	0.600949	0.125503	0.776229	-0.143452
35974	-9.531282	-0.712032	-2.073191	0.601780	0.126994	0.774967	-0.145464
35975	-9.587892	-0.616872	-2.026737	0.602654	0.128703	0.773558	-0.147822
35976	-9.637894	-0.486819	-1.906715	0.603669	0.130149	0.772089	-0.150082
35977	-9.673026	-0.454970	-1.939478	0.604931	0.131423	0.770461	-0.152236
35978	-9.558417	-0.440442	-2.337587	0.606089	0.132825	0.768881	-0.154384
35979	-9.677753	-0.307793	-2.244306	0.606793	0.134583	0.767592	-0.156501
35980	-9.637322	-0.412823	-1.984007	0.607744	0.135790	0.766293	-0.158125
35981	-9.355582	-0.624753	-1.912196	0.608807	0.136750	0.764955	-0.159675
35982	-9.300964	-0.886401	-1.975727	0.609827	0.137761	0.763606	-0.161368
35983	-9.419538	-0.881906	-2.014246	0.610690	0.139000	0.762235	-0.163506
35984	-9.471486	-0.716698	-1.981288	0.611455	0.139986	0.761004	-0.165530
35985	-9.494569	-0.715804	-2.140623	0.612301	0.140605	0.759825	-0.167284
35986	-9.412417	-0.805267	-2.286853	0.612790	0.141066	0.759018	-0.168759
35987	-9.599297	-0.850460	-2.249503	0.612914	0.141443	0.758575	-0.169985
35988	-9.573854	-0.738456	-2.117521	0.612954	0.141336	0.758257	-0.171341
35989	-9.670557	-0.982547	-1.762753	0.613425	0.141734	0.757381	-0.173194
35990	-8.969761	-1.102588	-2.081958	0.613395	0.141438	0.757312	-0.173842
35991	-9.567773	-0.829915	-1.615207	0.613828	0.141024	0.756909	-0.174399
35992	-9.576365	-1.086042	-2.037805	0.613676	0.140674	0.756978	-0.174922
35993	-9.648578	-1.043513	-1.947027	0.613787	0.140409	0.756781	-0.175595
35994	-9.683580	-0.997261	-1.878562	0.613649	0.140167	0.756795	-0.176210
