// Start Time: Unknown
// Update Rate: 60.0Hz
// Filter Profile: human (46.1)
// Option Flags: AHS Disabled ICC Disabled 
// Firmware Version: 4.3.5
PacketCounter	Acc_X	Acc_Y	Acc_Z	Quat_q0	Quat_q1	Quat_q2	Quat_q3
34999	-0.696048	9.572197	-0.587152	-0.178927	-0.241310	0.687410	0.661227
35000	-0.735071	9.685914	-0.620328	-0.180689	-0.242962	0.686773	0.660805
35001	-0.716810	9.696012	-0.595510	-0.182443	-0.244703	0.686119	0.660360
35002	-0.692069	9.813132	-0.566329	-0.184073	-0.246532	0.685469	0.659903
35003	-0.765123	9.853286	-0.533494	-0.185613	-0.248350	0.684763	0.659522
35004	-0.714452	9.771939	-0.551179	-0.187052	-0.250172	0.684022	0.659196
35005	-0.615775	9.872917	-0.565982	-0.188523	-0.252066	0.683285	0.658819
35006	-0.612678	9.809725	-0.633966	-0.190138	-0.254070	0.682513	0.658386
35007	-0.553110	9.840176	-0.609644	-0.191966	-0.256046	0.681753	0.657878
35008	-0.722207	9.947264	-0.690941	-0.193961	-0.258028	0.680944	0.657355
35009	-0.816417	9.996450	-0.685164	-0.195775	-0.259963	0.680109	0.656919
35010	-0.741071	9.949514	-0.691685	-0.197372	-0.261874	0.679292	0.656527
35011	-0.557527	9.800962	-0.632543	-0.198890	-0.263827	0.678448	0.656160
35012	-0.498494	9.595702	-0.584226	-0.200426	-0.265876	0.677628	0.655713
35013	-0.611716	9.524638	-0.581191	-0.201929	-0.268047	0.676874	0.655147
35014	-0.706680	9.616248	-0.623869	-0.203295	-0.270326	0.676181	0.654503
35015	-0.646633	9.643498	-0.572170	-0.204561	-0.272718	0.675440	0.653881
35016	-0.512429	9.584326	-0.565425	-0.205928	-0.275420	0.674648	0.653137
35017	-0.510135	9.548865	-0.621630	-0.207519	-0.278570	0.673835	0.652136
35018	-0.624475	9.634847	-0.598155	-0.209271	-0.282249	0.673018	0.650837
35019	-0.182195	9.984039	-0.387356	-0.211333	-0.286446	0.672034	0.649351
35020	0.170052	9.876284	-0.340861	-0.214451	-0.291479	0.670666	0.647501
35021	-0.015702	9.643295	-0.330380	-0.218360	-0.297673	0.669016	0.645079
35022	-0.118031	9.579082	-0.441786	-0.222664	-0.305017	0.667150	0.642103
35023	-0.100772	9.878355	-0.526093	-0.227442	-0.313330	0.664944	0.638705
35024	0.093093	10.125689	-0.649643	-0.232856	-0.322519	0.662163	0.635058
35025	0.215688	10.067209	-0.789059	-0.239171	-0.332552	0.658668	0.631160
35026	-0.125382	9.836841	-0.972205	-0.246134	-0.343466	0.654487	0.626974
35027	-0.741340	9.522059	-1.060432	-0.253136	-0.355124	0.649769	0.622583
35028	-1.297386	9.392305	-1.134472	-0.259640	-0.367121	0.644830	0.618064
35029	-1.576214	9.513708	-1.162975	-0.265428	-0.379053	0.639896	0.613514
35030	-1.553001	9.755167	-1.198633	-0.270885	-0.390456	0.634935	0.609116
35031	-1.533354	9.689913	-1.294212	-0.276231	-0.401219	0.630027	0.604802
35032	-1.623331	9.641710	-1.416559	-0.281575	-0.411352	0.625198	0.600527
35033	-1.815466	9.587169	-1.503509	-0.286750	-0.420857	0.620532	0.596317
35034	-1.930022	9.589344	-1.594441	-0.291746	-0.429696	0.615998	0.592277
35035	-2.177346	9.610564	-1.616293	-0.296437	-0.437854	0.611615	0.588503
35036	-2.427069	9.608089	-1.696291	-0.300714	-0.445240	0.607480	0.585064
35037	-2.404907	9.527928	-1.776350	-0.304388	-0.451858	0.603645	0.582053
35038	-2.177518	9.230582	-1.847126	-0.307578	-0.457879	0.600229	0.579196
35039	-1.802517	9.073083	-1.890604	-0.310565	-0.463486	0.597245	0.576219
35040	-1.675108	9.141534	-1.893238	-0.313585	-0.468836	0.594680	0.572898
35041	-1.486642	9.358489	-1.812274	-0.316807	-0.473885	0.592287	0.569441
35042	-1.358137	9.267352	-1.806081	-0.320399	-0.478905	0.589851	0.565748
35043	-1.645309	9.162414	-1.859624	-0.324081	-0.484071	0.587346	0.561847
35044	-1.646575	9.232441	-1.852777	-0.327599	-0.489285	0.584962	0.557762
35045	-1.513036	9.503151	-1.922655	-0.331221	-0.494413	0.582585	0.553573
35046	-1.641651	9.760760	-2.023201	-0.335145	-0.499242	0.580134	0.549436
35047	-1.816873	9.899107	-1.962035	-0.339205	-0.503631	0.577512	0.545687
35048	-1.858264	9.952608	-1.966306	-0.343474	-0.507399	0.574712	0.542474
35049	-1.934112	9.850090	-2.023028	-0.347879	-0.510517	0.571822	0.539790
35050	-1.845189	9.826449	-1.980213	-0.352333	-0.513064	0.568994	0.537469
35051	-1.922409	10.019599	-1.720568	-0.356800	-0.514992	0.566108	0.535723
35052	-1.786179	10.199633	-1.483096	-0.361251	-0.516266	0.563151	0.534628
35053	-1.766420	10.028654	-1.376850	-0.365564	-0.516972	0.560066	0.534255
35054	-1.716192	9.587507	-1.373183	-0.369401	-0.517284	0.557170	0.534342
35055	-1.879768	9.236195	-1.293600	-0.372432	-0.517522	0.554718	0.534559
35056	-1.918793	9.417917	-1.072306	-0.374552	-0.517684	0.552708	0.535003
35057	-1.901394	9.563446	-0.925740	-0.376207	-0.517605	0.551101	0.535575
35058	-1.682261	9.697403	-0.893600	-0.377706	-0.517223	0.549816	0.536209
35059	-1.598454	9.560473	-0.995010	-0.379219	-0.516609	0.548735	0.536841
35060	-1.523399	9.100563	-1.143846	-0.380453	-0.516082	0.547977	0.537249
35061	-1.351467	8.907501	-1.194478	-0.381157	-0.515932	0.547713	0.537164
35062	-1.278496	8.945200	-1.193653	-0.381424	-0.516224	0.547956	0.536445
35063	-1.280765	9.132784	-1.153542	-0.381392	-0.516725	0.548619	0.535307
35064	-1.318517	9.360012	-1.164722	-0.381009	-0.517451	0.549616	0.533852
35065	-1.258156	9.497866	-1.274243	-0.380515	-0.518142	0.550805	0.532307
35066	-1.328741	9.544669	-1.397801	-0.379856	-0.518859	0.552050	0.530788
35067	-1.412573	9.589942	-1.541391	-0.378896	-0.519573	0.553318	0.529453
35068	-1.385515	9.672509	-1.643379	-0.377632	-0.520275	0.554558	0.528370
35069	-1.440975	9.906046	-1.642452	-0.376199	-0.520830	0.555683	0.527662
35070	-1.409808	9.974910	-1.646133	-0.374876	-0.521023	0.556640	0.527404
35071	-1.366334	9.933222	-1.655236	-0.373823	-0.520888	0.557394	0.527489
35072	-1.326285	9.629680	-1.694147	-0.372986	-0.520543	0.557960	0.527823
35073	-1.315714	9.426094	-1.726821	-0.372096	-0.520208	0.558494	0.528216
35074	-1.343981	9.506002	-1.721800	-0.371031	-0.519950	0.559085	0.528595
35075	-1.343183	9.647684	-1.688521	-0.369959	-0.519737	0.559669	0.528936
35076	-1.304512	9.719763	-1.601879	-0.369050	-0.519412	0.560155	0.529377
35077	-1.276614	9.691253	-1.586440	-0.368329	-0.519060	0.560553	0.529803
35078	-1.234544	9.496918	-1.595574	-0.367776	-0.518741	0.560893	0.530139
35079	-1.343539	9.541304	-1.619686	-0.367283	-0.518587	0.561184	0.530324
35080	-1.364970	9.449598	-1.670290	-0.366698	-0.518587	0.561444	0.530454
35081	-1.450289	9.506234	-1.667423	-0.365966	-0.518747	0.561718	0.530513
35082	-1.392149	9.563367	-1.655458	-0.365249	-0.518928	0.562025	0.530505
35083	-1.310078	9.730939	-1.635952	-0.364696	-0.519024	0.562300	0.530500
35084	-1.316752	9.771157	-1.627009	-0.364519	-0.518990	0.562524	0.530418
35085	-1.389678	9.625785	-1.615443	-0.364461	-0.518930	0.562665	0.530365
35086	-1.453434	9.487982	-1.619705	-0.364474	-0.518851	0.562772	0.530320
35087	-1.379920	9.506594	-1.615071	-0.364320	-0.518853	0.562943	0.530243
35088	-1.346114	9.484750	-1.586783	-0.364222	-0.518845	0.563136	0.530113
35089	-1.354423	9.436719	-1.654363	-0.364170	-0.518914	0.563452	0.529746
35090	-1.392234	9.485576	-1.626215	-0.364047	-0.519050	0.563788	0.529339
35091	-1.402311	9.633123	-1.619957	-0.363922	-0.519218	0.564156	0.528868
35092	-1.443619	9.717648	-1.592407	-0.363823	-0.519333	0.564420	0.528541
35093	-1.406043	9.743858	-1.570553	-0.363810	-0.519389	0.564569	0.528337
35094	-1.362981	9.538094	-1.625653	-0.363890	-0.519469	0.564664	0.528101
35095	-1.330957	9.331286	-1.700064	-0.363867	-0.519712	0.564785	0.527748
35096	-1.342072	9.364239	-1.678562	-0.363748	-0.520124	0.565066	0.527123
35097	-1.385002	9.447583	-1.657189	-0.363547	-0.520610	0.565398	0.526426
35098	-1.411513	9.574083	-1.637693	-0.363301	-0.521118	0.565801	0.525660
35099	-1.375752	9.658055	-1.604550	-0.363064	-0.521551	0.566179	0.524985
35100	-1.356469	9.621699	-1.650896	-0.362923	-0.521899	0.566532	0.524357
35101	-1.297986	9.570677	-1.682244	-0.362775	-0.522243	0.566867	0.523754
35102	-1.395505	9.571905	-1.685265	-0.362594	-0.522624	0.567216	0.523122
35103	-1.344950	9.699689	-1.649363	-0.362309	-0.522995	0.567534	0.522603
35104	-1.408065	9.662170	-1.658873	-0.361978	-0.523337	0.567773	0.522229
35105	-1.323515	9.529435	-1.677529	-0.361561	-0.523676	0.567982	0.521951
35106	-1.259247	9.364816	-1.767768	-0.361087	-0.524070	0.568266	0.521576
35107	-1.312260	9.405452	-1.778601	-0.360513	-0.524524	0.568631	0.521118
35108	-1.396796	9.550871	-1.779691	-0.359840	-0.524975	0.569040	0.520681
35109	-1.458493	9.692349	-1.758601	-0.359127	-0.525318	0.569502	0.520324
35110	-1.420184	9.638851	-1.758876	-0.358399	-0.525473	0.569948	0.520180
35111	-1.468350	9.523519	-1.858941	-0.357462	-0.525513	0.570458	0.520225
35112	-1.431238	9.409548	-1.925992	-0.356285	-0.525523	0.571030	0.520396
35113	-1.372441	9.513317	-1.973600	-0.354957	-0.525485	0.571693	0.520613
35114	-1.247880	9.593662	-1.950673	-0.353706	-0.525328	0.572451	0.520790
35115	-1.271838	9.691273	-1.945602	-0.352631	-0.525047	0.573164	0.521017
35116	-1.351831	9.598076	-1.974439	-0.351686	-0.524743	0.573731	0.521340
35117	-1.333668	9.555967	-2.004542	-0.350592	-0.524605	0.574030	0.521885
35118	-1.144616	9.355000	-2.044499	-0.349568	-0.524654	0.574160	0.522380
35119	-1.171603	9.464491	-2.086667	-0.348604	-0.524953	0.574186	0.522695
35120	-1.171031	9.565122	-2.072778	-0.347970	-0.525386	0.574114	0.522762
35121	-1.445463	9.741979	-2.076681	-0.347551	-0.525915	0.573831	0.522818
35122	-1.392739	9.830233	-2.075465	-0.347374	-0.526443	0.573332	0.522953
35123	-1.557131	9.658769	-2.038868	-0.347432	-0.526996	0.572641	0.523115
35124	-1.432331	9.443322	-2.025632	-0.347663	-0.527537	0.571917	0.523208
35125	-1.411112	9.217383	-2.044293	-0.348083	-0.528144	0.571261	0.523032
35126	-1.430612	9.155273	-2.052035	-0.348620	-0.528868	0.570744	0.522508
35127	-1.583982	9.259836	-2.019820	-0.349058	-0.529703	0.570349	0.521800
35128	-1.550336	9.454315	-2.012269	-0.349504	-0.530519	0.569957	0.521100
35129	-1.553768	9.573494	-1.977094	-0.349896	-0.531348	0.569547	0.520440
35130	-1.516599	9.647995	-2.008861	-0.350356	-0.532093	0.569030	0.519935
35131	-1.565179	9.655817	-1.957717	-0.350888	-0.532770	0.568410	0.519562
35132	-1.611696	9.416538	-1.971984	-0.351375	-0.533376	0.567817	0.519258
35133	-1.538986	9.297601	-1.969624	-0.351791	-0.533945	0.567432	0.518813
35134	-1.505765	9.252215	-1.964442	-0.352101	-0.534465	0.567326	0.518183
35135	-1.551404	9.348257	-1.963864	-0.352228	-0.534950	0.567486	0.517420
35136	-1.450596	9.446577	-1.955077	-0.352256	-0.535344	0.567852	0.516592
35137	-1.412507	9.429525	-1.974041	-0.352246	-0.535639	0.568315	0.515783
35138	-1.433891	9.284760	-2.046361	-0.351965	-0.535973	0.568879	0.515004
35139	-1.395489	9.204446	-2.138940	-0.351415	-0.536395	0.569563	0.514185
35140	-1.488997	9.266912	-2.198058	-0.350487	-0.536905	0.570285	0.513485
35141	-1.416536	9.294817	-2.308261	-0.349250	-0.537524	0.571041	0.512840
35142	-1.380161	9.426512	-2.411467	-0.347873	-0.538191	0.571811	0.512217
35143	-1.392793	9.507714	-2.435084	-0.346561	-0.538851	0.572491	0.511654
35144	-1.504707	9.474648	-2.520938	-0.345282	-0.539505	0.573006	0.511252
35145	-1.526224	9.487568	-2.589722	-0.343968	-0.540151	0.573440	0.510970
35146	-1.548354	9.441981	-2.626274	-0.342681	-0.540775	0.573716	0.510865
35147	-1.504622	9.452278	-2.656108	-0.341489	-0.541339	0.573932	0.510822
35148	-1.666218	9.553378	-2.619593	-0.340472	-0.541739	0.574078	0.510914
35149	-1.930821	9.609749	-2.558640	-0.339567	-0.541824	0.574164	0.511328
35150	-2.051615	9.567160	-2.525946	-0.338647	-0.541520	0.574267	0.512144
35151	-1.960353	9.502442	-2.462845	-0.337650	-0.540821	0.574403	0.513388
35152	-1.818029	9.291895	-2.444987	-0.336590	-0.539942	0.574587	0.514801
35153	-1.723443	9.195538	-2.459468	-0.335492	-0.538972	0.574900	0.516182
35154	-1.705227	9.309335	-2.428840	-0.334406	-0.538011	0.575296	0.517447
35155	-1.720238	9.373085	-2.348799	-0.333306	-0.537075	0.575698	0.518681
35156	-1.682833	9.337658	-2.326791	-0.332218	-0.536227	0.576011	0.519907
35157	-1.667376	9.298089	-2.340941	-0.331226	-0.535462	0.576279	0.521029
35158	-1.618899	9.343584	-2.276297	-0.330231	-0.534863	0.576471	0.522064
35159	-1.457207	9.387941	-2.258828	-0.329447	-0.534384	0.576610	0.522896
35160	-1.419459	9.490309	-2.243519	-0.328933	-0.534115	0.576604	0.523500
35161	-1.464240	9.419739	-2.243201	-0.328635	-0.534119	0.576430	0.523875
35162	-1.702427	9.542367	-2.106675	-0.328346	-0.534340	0.576028	0.524272
35163	-1.864837	9.448020	-2.032114	-0.328024	-0.534676	0.575402	0.524818
35164	-1.944582	9.432151	-2.044096	-0.327605	-0.535103	0.574645	0.525474
35165	-1.829570	9.243797	-2.137014	-0.327172	-0.535642	0.573852	0.526061
35166	-1.820006	9.099070	-2.158469	-0.326784	-0.536309	0.573184	0.526350
35167	-1.843441	9.087587	-2.190349	-0.326424	-0.537096	0.572701	0.526298
35168	-1.965829	9.311570	-2.177556	-0.326106	-0.537848	0.572445	0.526004
35169	-2.148495	9.449503	-2.154356	-0.325780	-0.538448	0.572328	0.525721
35170	-2.138269	9.436023	-2.171153	-0.325428	-0.538796	0.572339	0.525570
35171	-2.015953	9.455274	-2.197735	-0.325018	-0.538912	0.572516	0.525511
35172	-1.914428	9.456473	-2.168639	-0.324657	-0.538779	0.572836	0.525522
35173	-1.823074	9.360251	-2.142415	-0.324356	-0.538503	0.573212	0.525581
35174	-1.769393	9.247358	-2.114012	-0.324014	-0.538278	0.573539	0.525666
35175	-1.696629	9.102366	-2.183535	-0.323559	-0.538310	0.573755	0.525678
35176	-1.679886	9.122938	-2.281017	-0.322933	-0.538619	0.573971	0.525510
35177	-1.715271	9.235780	-2.289358	-0.322258	-0.539152	0.574144	0.525189
35178	-1.760836	9.362176	-2.358413	-0.321599	-0.539805	0.574264	0.524792
35179	-1.870075	9.504855	-2.413999	-0.321019	-0.540443	0.574356	0.524389
35180	-1.986228	9.596280	-2.393558	-0.320573	-0.540894	0.574396	0.524153
35181	-2.014479	9.495070	-2.373171	-0.320217	-0.541155	0.574374	0.524125
35182	-2.023448	9.321591	-2.423937	-0.319930	-0.541245	0.574318	0.524269
35183	-2.049312	9.341484	-2.436998	-0.319590	-0.541221	0.574327	0.524491
35184	-2.108484	9.389147	-2.417677	-0.319259	-0.541029	0.574362	0.524852
35185	-2.112182	9.392106	-2.362883	-0.318887	-0.540726	0.574350	0.525402
35186	-2.116909	9.338600	-2.359771	-0.318481	-0.540330	0.574291	0.526122
35187	-2.045355	9.313020	-2.371402	-0.318024	-0.539933	0.574195	0.526910
35188	-1.979673	9.354677	-2.350726	-0.317636	-0.539531	0.574136	0.527618
35189	-1.955580	9.423980	-2.267269	-0.317472	-0.539109	0.573968	0.528331
35190	-2.022840	9.442882	-2.238311	-0.317509	-0.538682	0.573703	0.529032
35191	-2.026370	9.293493	-2.263701	-0.317673	-0.538290	0.573340	0.529724
35192	-2.051663	9.196209	-2.270048	-0.317853	-0.538008	0.573029	0.530240
35193	-2.055492	9.211763	-2.231741	-0.318107	-0.537748	0.572822	0.530575
35194	-2.151653	9.182600	-2.240549	-0.318406	-0.537457	0.572784	0.530732
35195	-2.138699	9.246556	-2.245525	-0.318666	-0.537099	0.572900	0.530813
35196	-2.092945	9.321394	-2.235294	-0.318971	-0.536657	0.573128	0.530830
35197	-1.977216	9.399325	-2.231507	-0.319394	-0.536117	0.573412	0.530815
35198	-1.933467	9.364610	-2.251376	-0.320006	-0.535521	0.573725	0.530709
35199	-1.834320	9.360190	-2.308443	-0.320743	-0.534912	0.573997	0.530584
35200	-1.727220	9.219560	-2.316356	-0.321654	-0.534370	0.574235	0.530323
35201	-1.760238	9.422393	-2.345660	-0.322628	-0.533910	0.574415	0.529999
35202	-1.796325	9.403335	-2.335201	-0.323624	-0.533485	0.574450	0.529782
35203	-1.689461	9.304142	-2.360513	-0.324465	-0.533148	0.574382	0.529680
35204	-1.594875	9.275116	-2.388657	-0.325189	-0.532950	0.574270	0.529557
35205	-1.596589	9.416516	-2.350957	-0.325852	-0.532912	0.574127	0.529341
35206	-1.748269	9.620605	-2.236160	-0.326571	-0.532931	0.573831	0.529201
35207	-1.786649	9.500247	-2.159459	-0.327296	-0.532885	0.573332	0.529340
35208	-1.629578	9.351140	-2.229436	-0.327954	-0.532933	0.572710	0.529557
35209	-1.549047	9.248006	-2.268953	-0.328674	-0.533150	0.572057	0.529599
35210	-1.645364	9.166386	-2.287013	-0.329432	-0.533542	0.571451	0.529387
35211	-1.896812	9.266066	-2.240065	-0.330061	-0.534016	0.570936	0.529073
35212	-2.034328	9.384545	-2.184524	-0.330530	-0.534463	0.570421	0.528885
35213	-1.829403	9.299218	-2.253547	-0.330896	-0.534812	0.569971	0.528788
35214	-1.654293	9.422453	-2.260758	-0.331397	-0.535147	0.569636	0.528497
35215	-1.697819	9.545485	-2.225192	-0.332241	-0.535373	0.569340	0.528057
35216	-1.893171	9.617311	-2.109319	-0.333268	-0.535488	0.569000	0.527659
35217	-1.963661	9.530038	-1.991196	-0.334317	-0.535461	0.568485	0.527577
35218	-1.846068	9.437386	-2.060610	-0.335250	-0.535394	0.567939	0.527642
35219	-1.663507	9.329316	-2.046171	-0.336295	-0.535243	0.567510	0.527591
35220	-1.805163	9.306399	-1.935945	-0.337360	-0.535030	0.567289	0.527366
35221	-1.765878	9.338191	-1.918209	-0.338382	-0.534720	0.567198	0.527122
35222	-1.564260	9.253283	-2.016996	-0.339322	-0.534428	0.567281	0.526725
35223	-1.484073	9.383964	-2.011230	-0.340307	-0.534192	0.567519	0.526073
35224	-1.638053	9.544506	-1.950114	-0.341343	-0.533958	0.567756	0.525382
35225	-1.809510	9.746282	-1.891928	-0.342276	-0.533609	0.567906	0.524968
35226	-1.718813	9.686595	-1.873511	-0.343158	-0.533074	0.567881	0.524962
35227	-1.497027	9.489936	-1.861453	-0.344015	-0.532501	0.567726	0.525151
35228	-1.358040	9.241899	-1.955835	-0.344809	-0.532131	0.567548	0.525197
35229	-1.336593	9.168178	-1.960293	-0.345524	-0.532027	0.567462	0.524926
35230	-1.430692	9.322703	-1.915700	-0.346176	-0.532131	0.567488	0.524363
35231	-1.540339	9.625186	-1.910959	-0.346818	-0.532346	0.567440	0.523773
35232	-1.657095	9.777380	-1.903668	-0.347524	-0.532467	0.567241	0.523395
35233	-1.655786	9.689020	-1.924757	-0.348208	-0.532488	0.566910	0.523279
35234	-1.590933	9.438811	-1.972244	-0.348847	-0.532450	0.566551	0.523281
35235	-1.420289	9.312197	-2.006492	-0.349407	-0.532438	0.566296	0.523196
35236	-1.384389	9.328919	-2.019097	-0.350000	-0.532476	0.566166	0.522901
35237	-1.382598	9.324155	-1.999515	-0.350650	-0.532546	0.566094	0.522472
35238	-1.468372	9.485313	-2.023118	-0.351271	-0.532735	0.566009	0.521954
35239	-1.450262	9.493440	-1.992903	-0.351906	-0.532978	0.565815	0.521488
35240	-1.497415	9.634059	-2.015194	-0.352522	-0.533296	0.565490	0.521099
35241	-1.452768	9.482695	-2.051914	-0.353173	-0.533705	0.564994	0.520778
35242	-1.551659	9.402982	-2.081511	-0.353722	-0.534215	0.564380	0.520548
35243	-1.336821	9.199867	-2.110848	-0.354137	-0.534897	0.563779	0.520216
35244	-1.241348	9.207433	-2.146735	-0.354496	-0.535925	0.563141	0.519605
35245	-1.187466	9.426313	-2.175013	-0.354929	-0.537304	0.562384	0.518703
35246	-1.392993	9.561383	-2.173736	-0.355544	-0.539020	0.561317	0.517657
35247	-1.609757	9.605054	-2.151053	-0.356292	-0.540845	0.559996	0.516669
35248	-1.821503	9.787771	-2.054184	-0.357183	-0.542632	0.558404	0.515903
35249	-2.034335	9.862934	-2.016668	-0.358205	-0.544143	0.556608	0.515543
35250	-2.080581	9.853529	-1.926745	-0.359410	-0.545290	0.554683	0.515568
35251	-2.074999	9.767052	-1.944509	-0.360810	-0.546056	0.552738	0.515868
35252	-2.081587	9.596661	-1.824251	-0.362435	-0.546449	0.550870	0.516310
35253	-2.103613	9.492508	-1.797902	-0.364202	-0.546491	0.549193	0.516809
35254	-2.138068	9.508139	-1.741023	-0.365985	-0.546144	0.547725	0.517473
35255	-2.020542	9.437646	-1.673713	-0.367708	-0.545403	0.546531	0.518295
35256	-1.877925	9.407108	-1.664978	-0.369264	-0.544334	0.545682	0.519207
35257	-1.636392	9.425798	-1.556090	-0.370737	-0.542996	0.545107	0.520160
35258	-1.523207	9.413390	-1.485245	-0.372030	-0.541593	0.544789	0.521033
35259	-1.420096	9.392038	-1.401514	-0.373056	-0.540229	0.544571	0.521944
35260	-1.379027	9.383162	-1.374393	-0.373660	-0.539079	0.544437	0.522839
35261	-1.328710	9.446377	-1.361658	-0.373880	-0.538142	0.544288	0.523802
35262	-1.297086	9.620356	-1.335291	-0.373781	-0.537366	0.544188	0.524771
35263	-1.408752	9.696205	-1.305619	-0.373547	-0.536566	0.544126	0.525820
35264	-1.477097	9.792274	-1.241038	-0.373152	-0.535712	0.544090	0.527007
35265	-1.479890	9.804029	-1.175876	-0.372604	-0.534740	0.544088	0.528382
35266	-1.554187	9.720999	-1.153453	-0.371924	-0.533632	0.544210	0.529854
35267	-1.633936	9.456616	-1.129305	-0.370952	-0.532398	0.544598	0.531375
35268	-1.635214	9.268248	-1.059022	-0.369569	-0.531085	0.545419	0.532809
35269	-1.487460	9.169196	-1.080996	-0.367788	-0.529821	0.546709	0.533977
35270	-1.453520	9.191100	-1.120475	-0.365756	-0.528649	0.548422	0.534777
35271	-1.432361	9.255172	-1.222387	-0.363509	-0.527601	0.550510	0.535199
35272	-1.448711	9.407149	-1.264137	-0.361059	-0.526697	0.552831	0.535354
35273	-1.370678	9.632498	-1.308589	-0.358653	-0.525872	0.555235	0.535295
35274	-1.314725	9.776202	-1.329902	-0.356427	-0.525152	0.557522	0.535112
35275	-1.219645	9.828084	-1.371744	-0.354602	-0.524523	0.559559	0.534815
35276	-1.284314	9.699185	-1.429239	-0.353186	-0.523999	0.561332	0.534408
35277	-1.299265	9.533975	-1.523860	-0.352058	-0.523593	0.562930	0.533868
35278	-1.227769	9.435044	-1.598750	-0.351140	-0.523351	0.564462	0.533092
35279	-1.177508	9.424249	-1.699350	-0.350420	-0.523218	0.565985	0.532080
35280	-1.134679	9.496153	-1.823273	-0.349852	-0.523280	0.567512	0.530765
35281	-1.249316	9.721410	-1.829690	-0.349462	-0.523396	0.568852	0.529472
35282	-1.432803	10.037954	-1.769736	-0.349096	-0.523511	0.569954	0.528413
35283	-1.426759	10.256205	-1.659842	-0.348809	-0.523433	0.570615	0.527967
35284	-1.319211	10.136615	-1.565692	-0.348693	-0.523162	0.570787	0.528126
35285	-1.029426	9.733000	-1.565028	-0.348823	-0.522793	0.570652	0.528551
35286	-1.037645	9.297053	-1.593519	-0.349123	-0.522543	0.570445	0.528824
35287	-1.275432	9.286137	-1.472811	-0.349249	-0.522650	0.570155	0.528947
35288	-1.468144	9.427872	-1.430443	-0.349083	-0.523099	0.569716	0.529087
35289	-1.745154	9.215111	-1.478832	-0.348559	-0.523789	0.569196	0.529309
35290	-1.917522	8.942620	-1.637246	-0.347451	-0.524674	0.568985	0.529387
35291	-1.700275	8.865253	-1.862606	-0.345906	-0.525626	0.569421	0.528985
35292	-1.705105	9.060840	-1.983126	-0.344253	-0.526580	0.570503	0.527949
35293	-1.731635	9.390651	-2.114908	-0.342753	-0.527401	0.571973	0.526513
35294	-1.763471	9.527331	-2.185863	-0.341474	-0.528114	0.573538	0.524924
35295	-1.693457	9.473968	-2.317762	-0.340445	-0.528568	0.575204	0.523311
35296	-1.619921	9.221502	-2.520199	-0.339575	-0.528942	0.576993	0.521525
35297	-1.635431	9.183717	-2.642025	-0.338723	-0.529250	0.578982	0.519559
35298	-1.674291	9.443349	-2.746100	-0.337842	-0.529607	0.580921	0.517600
35299	-1.836163	9.680458	-2.710693	-0.336951	-0.529961	0.582600	0.515929
35300	-1.783788	9.929258	-2.671055	-0.336238	-0.530126	0.583880	0.514776
35301	-1.787498	9.853940	-2.631638	-0.335931	-0.530002	0.584740	0.514127
35302	-1.741776	9.586800	-2.606358	-0.335903	-0.529680	0.585297	0.513844
35303	-1.545558	9.421873	-2.565008	-0.336095	-0.529279	0.585685	0.513689
35304	-1.538718	9.294346	-2.501083	-0.336499	-0.528980	0.585896	0.513492
35305	-1.574107	9.398144	-2.439953	-0.336957	-0.528836	0.585941	0.513289
35306	-1.611412	9.477497	-2.398479	-0.337586	-0.528611	0.585966	0.513078
35307	-1.542349	9.366596	-2.344573	-0.338373	-0.528297	0.585989	0.512857
35308	-1.643582	9.267463	-2.355381	-0.339143	-0.528051	0.586034	0.512550
35309	-1.736809	9.265653	-2.332293	-0.339730	-0.527860	0.586114	0.512267
35310	-1.778172	9.206815	-2.292654	-0.340130	-0.527678	0.586302	0.511975
35311	-1.785879	9.260763	-2.321621	-0.340320	-0.527391	0.586681	0.511709
35312	-1.511211	9.231475	-2.401467	-0.340476	-0.527113	0.587173	0.511328
35313	-1.583004	9.190218	-2.449452	-0.340648	-0.526988	0.587686	0.510752
35314	-1.593954	9.221168	-2.545309	-0.340696	-0.527075	0.588265	0.509964
35315	-1.667926	9.311763	-2.536902	-0.340765	-0.527293	0.588855	0.509010
35316	-1.654423	9.404309	-2.584289	-0.340918	-0.527478	0.589462	0.508012
35317	-1.609235	9.482814	-2.586001	-0.341317	-0.527536	0.590059	0.506989
35318	-1.589044	9.487546	-2.634041	-0.341988	-0.527429	0.590625	0.505989
35319	-1.577953	9.373159	-2.686191	-0.342868	-0.527181	0.591179	0.505004
35320	-1.564667	9.356540	-2.717845	-0.343818	-0.526817	0.591753	0.504065
35321	-1.633186	9.328869	-2.672283	-0.344694	-0.526370	0.592366	0.503213
35322	-1.351901	9.432127	-2.653790	-0.345647	-0.525742	0.593024	0.502440
35323	-1.249156	9.360791	-2.655663	-0.346790	-0.524972	0.593754	0.501595
35324	-1.245157	9.531107	-2.692834	-0.348095	-0.524109	0.594452	0.500766
35325	-1.363177	9.414248	-2.683536	-0.349366	-0.523157	0.595098	0.500109
35326	-1.335721	9.375029	-2.623018	-0.350366	-0.522229	0.595710	0.499650
35327	-1.128383	9.228203	-2.598495	-0.351082	-0.521391	0.596331	0.499281
35328	-0.904166	9.397438	-2.567090	-0.351844	-0.520594	0.596961	0.498824
35329	-0.863847	9.431109	-2.560841	-0.352778	-0.519840	0.597510	0.498293
35330	-1.016488	9.350275	-2.540592	-0.353692	-0.519304	0.597863	0.497780
35331	-1.034541	9.343392	-2.488278	-0.354424	-0.518979	0.598035	0.497391
35332	-0.990759	9.390874	-2.553840	-0.354895	-0.518856	0.598113	0.497090
35333	-0.845792	9.519286	-2.530209	-0.355312	-0.518866	0.598067	0.496838
35334	-0.812800	9.544883	-2.519962	-0.355775	-0.518988	0.597892	0.496590
35335	-0.762727	9.619203	-2.496394	-0.356373	-0.519142	0.597565	0.496393
35336	-0.686942	9.503373	-2.453284	-0.357167	-0.519307	0.597112	0.496195
35337	-0.530070	9.380682	-2.443218	-0.358231	-0.519424	0.596699	0.495803
35338	-0.584355	9.508496	-2.458478	-0.359457	-0.519593	0.596327	0.495185
35339	-0.605417	9.459027	-2.414358	-0.360709	-0.519795	0.595878	0.494602
35340	-0.665864	9.278877	-2.344121	-0.361864	-0.520125	0.595346	0.494052
35341	-0.670048	9.263890	-2.316869	-0.362806	-0.520474	0.594964	0.493454
35342	-0.466590	9.498186	-2.301046	-0.363709	-0.520677	0.594759	0.492822
35343	-0.442859	9.583061	-2.305521	-0.364687	-0.520794	0.594595	0.492172
35344	-0.456700	9.649988	-2.322637	-0.365587	-0.520918	0.594383	0.491630
35345	-0.406547	9.598304	-2.300963	-0.366489	-0.521060	0.594008	0.491261
35346	-0.318189	9.521128	-2.323745	-0.367354	-0.521227	0.593585	0.490948
35347	-0.197956	9.557784	-2.331028	-0.368347	-0.521381	0.593173	0.490538
35348	-0.347223	9.603509	-2.337540	-0.369487	-0.521503	0.592764	0.490046
35349	-0.502678	9.523936	-2.349690	-0.370507	-0.521603	0.592366	0.489651
35350	-0.416527	9.599647	-2.265085	-0.371368	-0.521612	0.592004	0.489426
35351	-0.337416	9.626469	-2.221651	-0.372237	-0.521446	0.591700	0.489311
35352	-0.351843	9.389511	-2.261665	-0.373079	-0.521157	0.591466	0.489260
35353	-0.429546	9.435965	-2.238368	-0.373589	-0.520949	0.591350	0.489232
35354	-0.382213	9.520916	-2.231937	-0.373794	-0.520793	0.591280	0.489326
35355	-0.384684	9.834714	-2.179669	-0.373840	-0.520657	0.591118	0.489632
35356	-0.412710	9.843726	-2.144205	-0.373794	-0.520484	0.590776	0.490263
35357	-0.239107	9.622309	-2.122934	-0.373718	-0.520364	0.590240	0.491094
35358	-0.321313	9.416931	-2.102794	-0.373541	-0.520451	0.589626	0.491872
35359	-0.417996	9.324021	-2.093673	-0.373133	-0.520837	0.588968	0.492562
35360	-0.516601	9.517512	-2.045121	-0.372598	-0.521404	0.588293	0.493172
35361	-0.600204	9.655916	-2.018285	-0.372122	-0.521937	0.587625	0.493765
35362	-0.702304	9.572536	-2.035486	-0.371754	-0.522348	0.586966	0.494392
35363	-0.772921	9.356239	-2.115662	-0.371237	-0.522741	0.586399	0.495037
35364	-0.726098	9.396080	-2.185222	-0.370561	-0.523183	0.585944	0.495615
35365	-0.731175	9.448796	-2.158442	-0.369705	-0.523689	0.585565	0.496167
35366	-0.580344	9.561039	-2.150124	-0.369001	-0.524114	0.585184	0.496692
35367	-0.667966	9.654883	-2.205993	-0.368482	-0.524476	0.584829	0.497113
35368	-0.781446	9.660078	-2.206572	-0.368114	-0.524772	0.584418	0.497556
35369	-0.967505	9.443745	-2.196416	-0.367650	-0.525036	0.584062	0.498039
35370	-0.938796	9.341236	-2.204909	-0.366974	-0.525196	0.583929	0.498523
35371	-0.911263	9.316025	-2.204880	-0.366159	-0.525248	0.584067	0.498905
35372	-0.914849	9.433233	-2.216773	-0.365222	-0.525271	0.584448	0.499123
35373	-0.962563	9.484410	-2.191983	-0.364266	-0.525233	0.584902	0.499329
35374	-0.966945	9.607553	-2.192764	-0.363297	-0.525127	0.585309	0.499671
35375	-1.024666	9.381524	-2.297973	-0.362253	-0.525046	0.585698	0.500057
35376	-1.013219	9.341747	-2.365496	-0.361089	-0.525011	0.586103	0.500462
35377	-1.054854	9.325973	-2.357820	-0.359829	-0.525046	0.586633	0.500711
35378	-1.155392	9.260063	-2.388804	-0.358498	-0.525030	0.587323	0.500873
35379	-1.210302	9.432940	-2.431864	-0.357047	-0.524981	0.588217	0.500912
35380	-1.040756	9.452671	-2.483637	-0.355697	-0.524792	0.589205	0.500910
35381	-0.876749	9.537706	-2.568116	-0.354601	-0.524524	0.590200	0.500797
35382	-0.881496	9.410835	-2.673954	-0.353733	-0.524328	0.591088	0.500568
35383	-0.913020	9.370020	-2.693133	-0.352929	-0.524295	0.591816	0.500309
35384	-0.953781	9.279611	-2.754430	-0.352108	-0.524502	0.592329	0.500063
35385	-0.993810	9.381599	-2.777472	-0.351246	-0.524866	0.592666	0.499889
35386	-0.922612	9.677757	-2.778368	-0.350608	-0.525214	0.592827	0.499780
35387	-0.964266	9.546658	-2.843447	-0.350312	-0.525472	0.592853	0.499686
35388	-1.081820	9.460991	-2.821729	-0.350151	-0.525646	0.592794	0.499686
35389	-1.047736	9.278987	-2.727361	-0.350049	-0.525827	0.592703	0.499675
35390	-1.168224	9.516343	-2.580371	-0.350030	-0.525962	0.592435	0.499863
35391	-1.276169	9.703471	-2.530415	-0.350092	-0.525969	0.591911	0.500434
35392	-1.329087	9.742910	-2.487889	-0.350207	-0.525780	0.591214	0.501374
35393	-1.120892	9.580756	-2.381466	-0.350514	-0.525313	0.590466	0.502530
35394	-1.017987	9.356645	-2.323805	-0.351081	-0.524637	0.589870	0.503539
35395	-1.161771	9.214055	-2.213131	-0.351804	-0.523799	0.589484	0.504358
35396	-1.521828	9.413044	-2.154564	-0.352171	-0.523006	0.589288	0.505153
35397	-1.485938	9.792904	-1.994356	-0.352185	-0.522073	0.589162	0.506255
35398	-1.358526	9.734897	-1.935221	-0.352144	-0.520911	0.588973	0.507698
35399	-1.173033	9.558662	-1.857978	-0.352039	-0.519640	0.588791	0.509281
35400	-1.218451	9.347623	-1.846823	-0.351745	-0.518514	0.588613	0.510836
35401	-1.202901	9.237911	-1.846477	-0.351171	-0.517607	0.588416	0.512375
35402	-1.415282	9.249605	-1.726674	-0.350176	-0.517060	0.588231	0.513819
35403	-1.363738	9.567851	-1.654119	-0.348945	-0.516772	0.587965	0.515249
35404	-1.304565	9.682512	-1.584973	-0.347875	-0.516525	0.587570	0.516669
35405	-1.205759	9.576833	-1.619794	-0.347171	-0.516247	0.587147	0.517898
35406	-1.463829	9.206194	-1.725263	-0.346647	-0.516078	0.586776	0.518838
35407	-1.630534	9.596391	-1.749254	-0.345810	-0.516129	0.586545	0.519606
35408	-1.459205	9.617392	-1.730790	-0.345000	-0.516158	0.586269	0.520428
35409	-1.288886	9.908511	-1.752053	-0.344499	-0.516170	0.585941	0.521116
35410	-1.163507	9.757077	-1.803269	-0.344478	-0.516158	0.585500	0.521637
35411	-1.170320	9.698805	-1.813504	-0.344823	-0.516176	0.585021	0.521929
35412	-1.152388	9.785384	-1.739861	-0.345401	-0.516194	0.584501	0.522112
35413	-1.292250	9.628437	-1.704624	-0.346115	-0.516211	0.583932	0.522259
35414	-1.353509	9.563497	-1.685632	-0.346738	-0.516222	0.583429	0.522396
35415	-1.363781	9.278232	-1.662154	-0.347193	-0.516193	0.583057	0.522539
35416	-1.398410	9.153174	-1.717658	-0.347270	-0.516264	0.582923	0.522567
35417	-1.338285	9.190749	-1.809314	-0.346919	-0.516475	0.583038	0.522463
35418	-1.305947	9.243572	-1.854330	-0.346312	-0.516719	0.583394	0.522227
35419	-1.336791	9.317361	-1.938590	-0.345536	-0.517016	0.583914	0.521865
35420	-1.298621	9.415956	-1.998334	-0.344661	-0.517317	0.584592	0.521387
35421	-1.292890	9.417208	-2.086602	-0.343812	-0.517609	0.585367	0.520787
35422	-1.159394	9.301705	-2.206981	-0.343033	-0.517926	0.586246	0.519997
35423	-1.158332	9.241761	-2.242758	-0.342370	-0.518305	0.587256	0.518916
35424	-1.231656	9.280457	-2.320169	-0.341777	-0.518729	0.588338	0.517656
35425	-1.297434	9.330576	-2.404541	-0.341108	-0.519217	0.589419	0.516377
35426	-1.211684	9.420934	-2.441312	-0.340510	-0.519687	0.590435	0.515136
35427	-1.195275	9.623894	-2.471412	-0.340078	-0.520138	0.591254	0.514025
35428	-1.238927	9.581875	-2.484472	-0.339925	-0.520491	0.591852	0.513080
35429	-1.412765	9.443337	-2.476035	-0.339949	-0.520759	0.592297	0.512278
35430	-1.533519	9.232719	-2.569491	-0.339985	-0.520904	0.592778	0.511550
35431	-1.461692	9.067456	-2.678781	-0.339895	-0.520993	0.593477	0.510708
35432	-1.320145	9.129272	-2.796279	-0.339744	-0.521104	0.594394	0.509628
35433	-1.192009	9.452373	-2.918234	-0.339760	-0.521172	0.595529	0.508220
35434	-1.268509	9.806270	-2.917935	-0.340102	-0.521139	0.596554	0.506821
35435	-1.258469	10.213052	-2.892441	-0.340777	-0.520911	0.597242	0.505791
35436	-1.088034	10.054020	-2.781312	-0.341969	-0.520404	0.597446	0.505267
35437	-0.984577	9.866781	-2.695404	-0.343686	-0.519680	0.597265	0.505062
35438	-1.062548	9.602834	-2.614810	-0.345715	-0.518852	0.596847	0.505022
35439	-1.235431	9.723781	-2.529690	-0.347875	-0.517814	0.596328	0.505217
35440	-1.373550	9.806503	-2.395448	-0.350073	-0.516403	0.595690	0.505896
35441	-1.211117	9.744907	-2.340463	-0.352335	-0.514506	0.595027	0.507037
35442	-0.958775	9.792435	-2.233890	-0.354862	-0.512138	0.594277	0.508549
35443	-0.809630	9.805100	-2.193779	-0.357915	-0.509357	0.593467	0.510146
35444	-0.851264	9.769043	-2.077687	-0.361527	-0.506101	0.592540	0.511915
35445	-0.845411	9.664561	-2.126774	-0.365647	-0.502482	0.591597	0.513641
35446	-1.144344	9.643985	-2.091706	-0.370085	-0.498506	0.590492	0.515604
35447	-0.956020	9.312506	-2.217851	-0.374386	-0.494333	0.589159	0.518036
35448	-0.318201	9.196462	-2.182050	-0.378604	-0.490322	0.587558	0.520595
35449	-0.182298	9.356709	-1.937901	-0.383238	-0.486492	0.585405	0.523216
35450	-0.238227	9.688527	-1.635705	-0.388457	-0.482637	0.582566	0.526099
35451	0.100981	9.708654	-1.409232	-0.394338	-0.478579	0.578831	0.529542
35452	0.191705	9.751805	-1.394349	-0.401009	-0.474377	0.574358	0.533170
35453	-0.284987	8.951718	-1.381675	-0.408034	-0.469959	0.569555	0.536892
35454	-0.790989	8.066567	-1.334348	-0.414511	-0.465467	0.565366	0.540262
35455	-1.126579	8.047876	-1.009754	-0.419470	-0.461169	0.562107	0.543511
35456	-0.719317	9.200233	-0.516154	-0.423384	-0.456780	0.559617	0.546742
35457	-0.072353	11.405665	-0.158836	-0.427375	-0.451766	0.556930	0.550533
35458	0.709753	10.797342	0.073528	-0.432231	-0.446155	0.552865	0.555394
35459	1.081992	8.573105	0.216137	-0.437343	-0.441225	0.548223	0.559913
35460	-0.211615	7.883744	0.469287	-0.441803	-0.437880	0.544526	0.562639
35461	-1.056285	9.501113	0.945130	-0.444607	-0.435185	0.542106	0.564854
35462	-0.492898	10.313660	1.016768	-0.446745	-0.432372	0.540135	0.567211
35463	0.371381	10.261344	1.053428	-0.448872	-0.429552	0.538190	0.569517
35464	0.440787	9.012434	0.946109	-0.451367	-0.427266	0.536465	0.570892
35465	-0.277050	9.913064	1.017675	-0.453460	-0.425710	0.535456	0.571342
35466	-0.068742	10.174682	1.069066	-0.454978	-0.424413	0.534588	0.571912
35467	0.520224	10.684162	1.144624	-0.456446	-0.423481	0.533555	0.572399
35468	0.655923	10.324937	1.305316	-0.457930	-0.423114	0.531972	0.572957
35469	0.534449	9.852481	1.471713	-0.459278	-0.423366	0.530102	0.573426
35470	0.282558	9.523890	1.656555	-0.460326	-0.424153	0.528362	0.573610
35471	-0.395370	9.614940	1.672177	-0.460676	-0.425404	0.527208	0.573464
35472	-0.719803	10.248249	1.708297	-0.460243	-0.426497	0.526788	0.573386
35473	-0.088374	10.038126	1.679577	-0.459307	-0.427391	0.526898	0.573369
35474	0.458150	9.584457	1.576602	-0.458355	-0.428650	0.527299	0.572823
35475	0.173292	9.471277	1.468949	-0.457074	-0.430686	0.528108	0.571573
35476	-0.274977	9.866522	1.359244	-0.455089	-0.433409	0.529321	0.569974
35477	-0.139738	10.247217	1.346218	-0.452176	-0.436649	0.530819	0.568423
35478	0.200067	10.621625	1.341684	-0.448835	-0.440429	0.531989	0.567061
35479	0.287545	10.565558	1.245845	-0.445527	-0.444544	0.532629	0.565856
35480	0.064622	9.795660	0.991365	-0.442516	-0.448807	0.533056	0.564450
35481	-0.557990	9.280137	0.576050	-0.439512	-0.453062	0.534064	0.562441
35482	-1.063975	9.045631	0.214037	-0.435902	-0.457217	0.536034	0.560009
35483	-0.733274	9.353268	-0.117007	-0.431508	-0.461345	0.538836	0.557330
35484	-0.039666	10.137281	-0.377984	-0.427153	-0.465411	0.541821	0.554403
35485	0.235162	10.038127	-0.500791	-0.423646	-0.469384	0.544367	0.551241
35486	-0.529053	9.263414	-0.588044	-0.420501	-0.473390	0.546631	0.547974
35487	-1.159373	9.326636	-0.783840	-0.416647	-0.477532	0.548993	0.544954
35488	-1.188020	9.362163	-0.963815	-0.412004	-0.481550	0.551437	0.542476
35489	-0.690412	9.864703	-1.146900	-0.407231	-0.485265	0.553868	0.540287
35490	-0.501936	9.767673	-1.271416	-0.403040	-0.488598	0.556005	0.538228
35491	-0.864311	9.553349	-1.357682	-0.399422	-0.491642	0.558016	0.536067
35492	-1.280022	8.926501	-1.467338	-0.395691	-0.494501	0.560167	0.533957
35493	-1.122859	9.286269	-1.618020	-0.391538	-0.497320	0.562655	0.531780
35494	-0.557383	9.969949	-1.866560	-0.387814	-0.499775	0.565069	0.529643
35495	-0.403589	9.862150	-1.956563	-0.385044	-0.501920	0.567137	0.527421
35496	-1.228198	9.194354	-1.912137	-0.382634	-0.504019	0.568920	0.525249
35497	-2.161300	8.702323	-1.887309	-0.379204	-0.506222	0.570807	0.523568
35498	-1.802928	9.489397	-2.001110	-0.374569	-0.508256	0.573058	0.522474
35499	-0.590699	9.983052	-2.139518	-0.370393	-0.509686	0.575328	0.521562
35500	-0.138599	10.178628	-2.257037	-0.367706	-0.510724	0.577339	0.520224
35501	-0.689022	9.551588	-2.154605	-0.366166	-0.511623	0.578900	0.518689
35502	-1.647293	9.340877	-2.130834	-0.364518	-0.512551	0.580280	0.517391
35503	-1.602137	9.470571	-2.133693	-0.362213	-0.513335	0.581663	0.516678
35504	-1.276580	9.870456	-2.246021	-0.359853	-0.513889	0.583057	0.516205
35505	-0.925929	9.678186	-2.275034	-0.357741	-0.514182	0.584313	0.515962
35506	-0.704861	9.110730	-2.232668	-0.356067	-0.514449	0.585608	0.515385
35507	-0.852314	9.226755	-2.163442	-0.354506	-0.514823	0.587041	0.514457
35508	-0.784431	9.623690	-2.118257	-0.353362	-0.515218	0.588537	0.513137
35509	-1.342031	10.222955	-2.025870	-0.352442	-0.515407	0.589834	0.512090
35510	-1.087721	9.899907	-1.930497	-0.351647	-0.515379	0.590751	0.511608
35511	-0.797556	9.404560	-1.934791	-0.351163	-0.515336	0.591436	0.511192
35512	-0.935627	9.157542	-1.968888	-0.350882	-0.515523	0.592101	0.510426
35513	-1.387121	9.605249	-2.103045	-0.350381	-0.515910	0.592844	0.509515
35514	-1.302873	9.617816	-2.093861	-0.349581	-0.516353	0.593486	0.508868
35515	-0.976297	9.341134	-2.067510	-0.348792	-0.516843	0.594046	0.508258
35516	-0.978977	9.120646	-2.087239	-0.348285	-0.517524	0.594535	0.507341
35517	-1.688411	9.324827	-2.078082	-0.347556	-0.518269	0.594975	0.506564
35518	-1.734287	9.892638	-2.132815	-0.346543	-0.518762	0.595395	0.506259
35519	-1.324522	9.889304	-2.231129	-0.345783	-0.518886	0.595677	0.506321
35520	-1.244877	9.521295	-2.249031	-0.345258	-0.518893	0.595910	0.506397
35521	-1.340828	9.280815	-2.263277	-0.344819	-0.518944	0.596082	0.506441
35522	-1.616234	9.138317	-2.213457	-0.344224	-0.519058	0.596227	0.506559
35523	-2.000784	9.490209	-2.217928	-0.343208	-0.519139	0.596479	0.506868
35524	-1.592785	9.999915	-2.209492	-0.342077	-0.518855	0.596788	0.507559
35525	-1.224417	9.896223	-2.214001	-0.341527	-0.518134	0.597144	0.508248
35526	-1.234728	9.510104	-2.199388	-0.341487	-0.517130	0.597629	0.508727
35527	-1.272589	9.244610	-2.212702	-0.341631	-0.515933	0.598345	0.509003
35528	-1.319977	9.127511	-2.285612	-0.341632	-0.514646	0.599335	0.509141
35529	-1.217452	9.355781	-2.320160	-0.341391	-0.513461	0.600492	0.509135
35530	-1.292512	9.683438	-2.242190	-0.340908	-0.512394	0.601486	0.509361
35531	-0.861837	9.770603	-2.162857	-0.340469	-0.511344	0.602150	0.509925
35532	-0.694169	9.555488	-2.135474	-0.340457	-0.510377	0.602560	0.510418
35533	-0.680066	9.347508	-2.187946	-0.340808	-0.509516	0.602918	0.510620
35534	-0.742070	9.223697	-2.289481	-0.341333	-0.508788	0.603328	0.510512
35535	-0.886214	9.166651	-2.402323	-0.341813	-0.508328	0.603788	0.510105
35536	-1.041280	9.434419	-2.416038	-0.342030	-0.508013	0.604269	0.509703
35537	-0.816737	9.596074	-2.464939	-0.342213	-0.507752	0.604654	0.509384
35538	-0.677948	9.689439	-2.452999	-0.342579	-0.507498	0.604918	0.509076
35539	-0.673111	9.649709	-2.432058	-0.343175	-0.507228	0.605017	0.508827
35540	-0.612706	9.532096	-2.382130	-0.343900	-0.506945	0.605017	0.508619
35541	-0.600888	9.482763	-2.286369	-0.344667	-0.506785	0.604936	0.508356
35542	-0.610587	9.680620	-2.115716	-0.345421	-0.506804	0.604733	0.508067
35543	-0.350174	10.052740	-1.776765	-0.346322	-0.506936	0.604255	0.507890
35544	0.070451	9.646943	-1.454820	-0.347653	-0.507358	0.603352	0.507634
35545	-0.164903	8.754733	-1.303717	-0.348771	-0.508747	0.602424	0.506577
35546	-0.526022	8.440200	-1.288206	-0.348726	-0.511541	0.601955	0.504347
35547	-0.811010	8.750643	-1.294347	-0.347381	-0.515464	0.602022	0.501192
35548	-0.808026	9.198440	-1.457238	-0.345137	-0.520007	0.602486	0.497478
35549	-0.700706	9.423342	-1.770239	-0.342547	-0.524723	0.603242	0.493383
35550	-0.719420	9.293547	-2.145408	-0.339955	-0.529463	0.604171	0.488955
35551	-1.098959	8.893734	-2.547914	-0.337124	-0.534218	0.605305	0.484318
35552	-1.264612	8.942425	-2.994401	-0.333686	-0.539071	0.606672	0.479589
35553	-1.240450	9.069335	-3.355241	-0.329922	-0.543799	0.608158	0.474950
35554	-1.232061	9.217352	-3.567298	-0.326142	-0.548254	0.609708	0.470430
35555	-1.141131	9.311254	-3.818831	-0.322649	-0.552233	0.611226	0.466196
35556	-1.256027	9.216152	-4.030383	-0.319624	-0.555695	0.612680	0.462241
35557	-1.346099	9.065649	-4.207311	-0.316935	-0.558683	0.614077	0.458622
35558	-1.338571	8.936245	-4.296773	-0.314452	-0.561298	0.615390	0.455367
35559	-1.383396	8.980033	-4.373583	-0.312123	-0.563610	0.616590	0.452483
35560	-1.312412	8.993793	-4.504328	-0.309937	-0.565607	0.617610	0.450095
35561	-1.254939	9.042926	-4.684557	-0.307957	-0.567338	0.618426	0.448152
35562	-1.270715	9.152847	-4.871219	-0.306308	-0.568724	0.619046	0.446666
35563	-1.307007	9.441054	-5.005678	-0.305177	-0.569674	0.619331	0.445833
35564	-1.443738	10.118543	-5.112784	-0.304797	-0.570000	0.619009	0.446124
35565	-1.445825	10.939433	-5.378446	-0.305732	-0.569323	0.617584	0.448317
35566	-1.510414	11.378451	-5.788085	-0.308595	-0.567346	0.614579	0.452968
35567	-1.359537	10.752304	-6.114970	-0.313319	-0.564002	0.609943	0.460112
35568	-1.005927	10.700306	-6.207440	-0.319786	-0.559594	0.603681	0.469212
35569	-0.753768	10.904044	-6.248151	-0.328306	-0.554053	0.595349	0.480417
35570	-0.647554	10.420565	-6.277272	-0.339008	-0.547413	0.584734	0.493455
35571	-0.794199	9.574808	-6.007928	-0.351221	-0.539881	0.571928	0.508006
35572	-0.790514	8.655229	-5.569286	-0.364302	-0.531603	0.557400	0.523439
35573	-0.960581	8.254371	-4.921377	-0.377804	-0.522589	0.541558	0.539333
35574	-1.099826	8.108067	-4.237165	-0.391575	-0.512583	0.524643	0.555588
35575	-1.319496	8.017955	-3.525721	-0.405420	-0.501477	0.506778	0.572128
35576	-1.574035	7.873221	-2.690576	-0.419115	-0.489160	0.488028	0.588977
35577	-1.627951	7.049084	-1.748716	-0.432046	-0.475829	0.468816	0.605916
35578	-1.145788	5.708748	-0.810492	-0.444111	-0.462107	0.449910	0.621935
35579	-1.423874	5.909519	0.312633	-0.454993	-0.449031	0.432158	0.636075
35580	-1.896975	7.978798	1.265743	-0.465215	-0.435647	0.414567	0.649555
35581	-1.989933	9.852151	2.401556	-0.475519	-0.420806	0.395932	0.663356
35582	-1.667379	8.748320	3.204175	-0.486329	-0.403962	0.375273	0.677842
35583	-1.394815	6.552269	3.982246	-0.496801	-0.386844	0.354133	0.691470
35584	-1.392895	5.448282	4.685779	-0.506274	-0.370503	0.333508	0.703695
35585	-1.512766	5.734193	5.412359	-0.514786	-0.355085	0.313670	0.714507
35586	-1.737686	6.387315	6.046101	-0.522605	-0.340005	0.294169	0.724393
35587	-1.827611	6.393353	6.742944	-0.529912	-0.324642	0.274559	0.733770
35588	-1.960140	5.470347	7.364834	-0.536431	-0.309149	0.255132	0.742682
35589	-1.721245	4.287365	8.101792	-0.541805	-0.294367	0.236882	0.750788
35590	-1.543111	3.467191	8.901338	-0.546006	-0.281427	0.220805	0.757576
35591	-1.825477	3.506567	9.776912	-0.549154	-0.270860	0.207435	0.762913
35592	-2.148424	3.994253	10.493901	-0.551427	-0.262222	0.196620	0.767143
35593	-2.190985	4.038834	10.978199	-0.553088	-0.255097	0.188013	0.770500
35594	-2.227501	4.078278	11.242308	-0.554363	-0.249422	0.181363	0.773031
35595	-2.271896	3.905315	11.252340	-0.555331	-0.245013	0.176489	0.774872
35596	-2.191819	3.725827	11.084957	-0.555909	-0.242043	0.173502	0.776066
35597	-2.024550	3.933687	10.888576	-0.556257	-0.240482	0.172120	0.776609
35598	-2.001912	4.105313	10.535787	-0.556411	-0.240129	0.172041	0.776625
35599	-1.914198	4.351106	10.132430	-0.556468	-0.240642	0.172884	0.776238
35600	-1.797816	4.396609	9.723801	-0.556449	-0.241787	0.174367	0.775564
35601	-1.683051	4.414201	9.366732	-0.556309	-0.243673	0.176457	0.774601
35602	-1.747011	4.639252	9.201446	-0.556114	-0.246231	0.179032	0.773340
35603	-1.928720	4.564272	9.218392	-0.555822	-0.249363	0.182252	0.771793
35604	-1.965460	4.625638	9.290404	-0.555368	-0.253186	0.186522	0.769852
35605	-1.975230	4.930864	9.416660	-0.554783	-0.257598	0.191809	0.767508
35606	-1.696510	4.624241	9.443124	-0.554111	-0.262783	0.198189	0.764609
35607	-1.743070	4.694527	9.498741	-0.553266	-0.269274	0.205963	0.760899
35608	-1.784413	4.811474	9.307092	-0.552015	-0.277110	0.215089	0.756456
35609	-1.727159	4.620693	8.985481	-0.550192	-0.286227	0.225648	0.751296
35610	-1.665047	5.035948	8.617158	-0.547732	-0.296836	0.237848	0.745189
35611	-1.517037	5.480214	8.100278	-0.544790	-0.308624	0.251404	0.738072
35612	-1.558126	5.912780	7.578871	-0.541516	-0.321393	0.266013	0.729866
35613	-1.795481	6.320961	6.895293	-0.537749	-0.334565	0.281332	0.720934
35614	-1.707121	6.449487	6.127179	-0.533308	-0.348052	0.297405	0.711332
35615	-1.425577	6.874071	5.389675	-0.528297	-0.361742	0.314094	0.700992
35616	-1.142196	7.190749	4.673565	-0.522987	-0.375643	0.331077	0.689757
35617	-1.242158	7.675812	4.100032	-0.517384	-0.389602	0.348019	0.677796
35618	-1.426882	7.692714	3.640937	-0.511377	-0.403251	0.364579	0.665555
35619	-1.488917	8.076966	3.176279	-0.504670	-0.416837	0.381259	0.652838
35620	-1.456920	8.606993	2.636633	-0.497544	-0.429868	0.397659	0.639946
35621	-1.236640	8.597373	2.107198	-0.490166	-0.442241	0.413640	0.626947
35622	-1.036836	8.728394	1.634606	-0.482643	-0.454081	0.429075	0.613808
35623	-1.062609	8.714583	1.097163	-0.474940	-0.465649	0.444045	0.600355
35624	-1.189357	9.032283	0.737383	-0.467037	-0.476640	0.458272	0.587093
35625	-1.111206	9.013678	0.384201	-0.458901	-0.487131	0.471837	0.574007
35626	-1.177484	9.486955	0.046041	-0.450712	-0.497042	0.484717	0.561122
35627	-1.037198	9.504043	-0.380731	-0.442644	-0.506232	0.496894	0.548536
35628	-0.961105	9.506123	-1.050467	-0.434821	-0.514829	0.508269	0.536231
35629	-0.906657	9.934244	-1.694882	-0.427383	-0.522692	0.518666	0.524521
35630	-0.805378	9.845468	-2.157467	-0.420529	-0.529633	0.527889	0.513787
35631	-0.657976	9.585323	-2.611902	-0.414284	-0.535854	0.535997	0.503921
35632	-0.644004	9.558393	-2.917569	-0.408618	-0.541430	0.543137	0.494861
35633	-0.590051	9.559588	-3.179350	-0.403482	-0.546446	0.549345	0.486640
35634	-0.551445	9.654070	-3.439739	-0.398963	-0.550867	0.554680	0.479275
35635	-0.610349	9.596383	-3.617868	-0.394979	-0.554753	0.559208	0.472787
35636	-0.557081	9.508006	-3.753264	-0.391494	-0.558056	0.563056	0.467199
35637	-0.451240	9.455122	-3.944134	-0.388486	-0.560881	0.566283	0.462401
35638	-0.484778	9.336523	-4.166444	-0.385889	-0.563407	0.568924	0.458243
35639	-0.501997	9.438264	-4.338614	-0.383609	-0.565632	0.571046	0.454764
35640	-0.480785	9.481724	-4.432718	-0.381734	-0.567588	0.572641	0.451890
35641	-0.640953	9.853888	-4.524954	-0.380425	-0.569161	0.573582	0.449818
35642	-0.878595	10.190691	-4.606345	-0.379773	-0.570138	0.573740	0.448929
35643	-0.860750	10.497059	-4.739555	-0.379976	-0.570394	0.572925	0.449474
35644	-0.889967	10.465869	-4.815248	-0.381265	-0.569774	0.571003	0.451609
35645	-0.876106	10.144199	-4.852999	-0.383584	-0.568343	0.568089	0.455109
35646	-0.976948	10.277667	-4.819723	-0.386833	-0.566076	0.564226	0.459964
35647	-0.987224	10.365382	-4.743503	-0.391191	-0.562839	0.559190	0.466357
35648	-1.048831	10.206848	-4.654322	-0.396712	-0.558597	0.552958	0.474159
35649	-1.218807	9.834389	-4.457023	-0.403205	-0.553421	0.545582	0.483209
35650	-1.371144	9.753617	-4.200446	-0.410381	-0.547387	0.537115	0.493419
35651	-1.538066	9.708904	-3.783627	-0.418174	-0.540465	0.527520	0.504729
35652	-1.584972	9.537603	-3.157910	-0.426588	-0.532639	0.516814	0.516934
35653	-1.923088	9.095191	-2.452362	-0.435513	-0.524017	0.504956	0.529862
35654	-2.107757	8.600387	-1.895067	-0.444488	-0.514793	0.492407	0.543097
35655	-2.465379	8.473031	-1.210952	-0.453299	-0.505181	0.479438	0.556284
35656	-2.797747	8.058697	-0.213374	-0.461685	-0.495149	0.466360	0.569370
35657	-2.758177	6.516815	0.797243	-0.469444	-0.485147	0.454150	0.581379
35658	-2.821529	6.289791	1.765465	-0.476274	-0.476119	0.444032	0.591025
35659	-2.973368	7.076328	2.365797	-0.482409	-0.467970	0.435863	0.598589
35660	-3.112336	7.904538	2.745216	-0.488057	-0.460197	0.428964	0.604987
35661	-2.970022	8.177088	3.151277	-0.493115	-0.452777	0.422988	0.610665
35662	-2.767024	8.200759	3.574472	-0.497538	-0.445810	0.417819	0.615741
35663	-2.681502	8.352311	3.945689	-0.501301	-0.439602	0.413642	0.619958
35664	-2.556824	8.571177	4.223678	-0.504493	-0.433971	0.410184	0.623622
35665	-2.530246	8.816255	4.425523	-0.506969	-0.428941	0.407397	0.626912
35666	-2.543609	8.996421	4.569498	-0.508727	-0.424340	0.405162	0.630060
35667	-2.452626	9.070776	4.677316	-0.509634	-0.420085	0.403624	0.633158
35668	-2.185653	9.122868	4.738608	-0.509801	-0.416159	0.402889	0.636078
35669	-1.856499	9.226299	4.814343	-0.509510	-0.412484	0.402897	0.638695
35670	-1.664337	9.756306	4.767658	-0.508980	-0.408965	0.403435	0.641036
35671	-1.573600	10.345106	4.691774	-0.508211	-0.405432	0.404254	0.643370
35672	-1.088706	9.795207	4.756799	-0.507423	-0.401510	0.405022	0.645964
35673	-0.472810	8.629397	4.747123	-0.506542	-0.397832	0.406204	0.648185
35674	-0.107004	8.158356	4.600151	-0.505610	-0.394672	0.407886	0.649785
35675	0.074298	8.600063	4.421121	-0.504570	-0.392094	0.409997	0.650826
35676	0.229219	9.251932	4.324346	-0.503597	-0.389760	0.412205	0.651587
35677	0.209764	9.822177	4.219308	-0.502782	-0.387310	0.414187	0.652419
35678	0.455669	9.378892	4.103731	-0.501982	-0.384775	0.416062	0.653341
35679	0.701164	8.887351	4.021541	-0.501138	-0.382450	0.417976	0.654132
35680	0.869980	8.687544	3.898873	-0.500238	-0.380595	0.420179	0.654491
35681	0.682640	9.283262	3.839904	-0.499264	-0.379188	0.422538	0.654532
35682	0.568915	9.593340	3.943294	-0.498113	-0.377806	0.424788	0.654752
35683	0.710886	9.606522	4.035927	-0.496740	-0.376487	0.426845	0.655217
35684	0.911819	9.088082	3.984680	-0.495244	-0.375287	0.428745	0.655797
35685	0.964710	8.810486	3.853491	-0.493552	-0.374603	0.430813	0.656109
35686	0.854675	8.833026	3.661640	-0.491633	-0.374475	0.432995	0.656186
35687	0.766494	8.951152	3.523891	-0.489471	-0.374758	0.435298	0.656118
35688	0.673059	8.937568	3.418197	-0.487105	-0.375366	0.437675	0.655949
35689	0.534690	9.393401	3.331499	-0.484520	-0.376103	0.440053	0.655851
35690	0.741015	9.179440	3.286065	-0.481886	-0.376825	0.442260	0.655893
35691	0.671431	9.405958	3.184570	-0.479318	-0.377712	0.444295	0.655889
35692	0.557976	9.197732	3.069875	-0.476773	-0.378694	0.445981	0.656034
35693	0.413043	9.596372	2.902907	-0.474107	-0.379952	0.447458	0.656232
35694	0.313232	9.965428	2.794434	-0.471520	-0.381260	0.448556	0.656587
35695	0.252844	9.558408	2.732394	-0.469056	-0.382700	0.449352	0.656971
35696	0.104771	9.502922	2.682930	-0.466711	-0.384252	0.450029	0.657271
35697	-0.039109	8.765565	2.617124	-0.464318	-0.386000	0.450718	0.657470
35698	-0.109761	8.945046	2.521343	-0.461864	-0.387958	0.451508	0.657504
35699	-0.329615	8.860828	2.343883	-0.459383	-0.390045	0.452297	0.657465
35700	-0.626762	9.293778	2.244190	-0.456838	-0.392145	0.452953	0.657537
35701	-0.674823	9.238145	2.167988	-0.454209	-0.394144	0.453436	0.657830
35702	-0.499304	8.783325	2.155824	-0.451648	-0.396203	0.453904	0.658034
35703	-0.526713	8.440838	2.113895	-0.449177	-0.398732	0.454618	0.657705
35704	-0.662170	8.432150	2.129435	-0.446634	-0.401839	0.455673	0.656814
35705	-0.939102	8.711721	2.116887	-0.443896	-0.405550	0.456969	0.655488
35706	-1.234632	9.441474	2.044127	-0.440997	-0.409537	0.458251	0.654070
35707	-1.368141	9.816055	1.978348	-0.438287	-0.413361	0.459146	0.652857
35708	-1.323163	9.405721	2.033447	-0.435836	-0.417060	0.459773	0.651703
35709	-1.454277	9.484460	2.064911	-0.433710	-0.420764	0.460318	0.650354
35710	-1.749988	9.677877	1.988434	-0.431836	-0.424353	0.460813	0.648917
35711	-2.132392	10.423558	2.043657	-0.430103	-0.427470	0.460975	0.647907
35712	-2.123512	9.855735	2.113452	-0.428393	-0.429918	0.460879	0.647487
35713	-2.168334	9.778134	2.306607	-0.426750	-0.432114	0.460877	0.647113
35714	-2.264361	10.085683	2.360109	-0.425193	-0.433989	0.460925	0.646848
35715	-2.509728	10.236393	2.480687	-0.423784	-0.435479	0.460814	0.646851
35716	-2.521250	9.752359	2.631152	-0.422307	-0.436641	0.460635	0.647161
35717	-2.512149	10.002556	2.751551	-0.420745	-0.437702	0.460626	0.647468
35718	-2.311496	9.650948	2.818388	-0.419286	-0.438616	0.460737	0.647716
35719	-2.255141	9.416160	2.799386	-0.418020	-0.439697	0.461232	0.647450
35720	-2.382074	9.579804	2.688139	-0.416851	-0.440887	0.462116	0.646764
35721	-2.322635	9.248373	2.504843	-0.415716	-0.442117	0.463441	0.645705
35722	-2.336950	9.731596	2.262609	-0.414621	-0.443361	0.465211	0.644282
35723	-2.090696	9.513950	2.050582	-0.413784	-0.444320	0.467150	0.642754
35724	-1.926988	9.669562	1.843472	-0.413262	-0.445137	0.469342	0.640926
35725	-1.818564	9.528983	1.610060	-0.413179	-0.445549	0.471538	0.639078
35726	-1.669628	9.632975	1.305727	-0.413356	-0.445680	0.473774	0.637216
35727	-1.544565	10.045181	1.132623	-0.413947	-0.445144	0.475629	0.635823
35728	-1.260810	10.011673	0.954314	-0.414821	-0.444143	0.477185	0.634787
35729	-1.127572	10.037943	1.028171	-0.415961	-0.442730	0.478349	0.634152
35730	-0.749887	9.665737	1.022259	-0.417114	-0.441304	0.479325	0.633651
35731	-0.555176	9.419101	1.194958	-0.418400	-0.439914	0.480060	0.633214
35732	-0.292538	8.898191	1.115143	-0.419636	-0.438874	0.480813	0.632546
35733	-0.278208	9.327458	0.938470	-0.420729	-0.438291	0.481621	0.631608
35734	-0.321212	9.955977	0.950011	-0.421653	-0.438059	0.482448	0.630522
35735	-0.316818	9.904106	1.072627	-0.422487	-0.438000	0.483089	0.629512
35736	-0.192064	9.479501	1.216784	-0.423174	-0.438092	0.483624	0.628575
35737	0.092967	8.792461	1.217359	-0.423660	-0.438617	0.484181	0.627453
35738	0.127945	9.017216	1.010765	-0.423922	-0.439856	0.485060	0.625727
35739	-0.103860	10.083472	0.956764	-0.424066	-0.441533	0.485926	0.623772
35740	-0.272363	10.490704	1.060272	-0.424174	-0.443293	0.486537	0.621972
35741	-0.243869	10.194307	1.230893	-0.424256	-0.445022	0.486894	0.620400
35742	-0.097836	9.508314	1.347648	-0.424222	-0.446996	0.487240	0.618730
35743	0.120965	8.594109	1.290647	-0.424020	-0.449439	0.487935	0.616549
35744	0.229597	8.334274	1.143561	-0.423593	-0.452873	0.489353	0.613195
35745	-0.021302	9.380109	0.990976	-0.423101	-0.457120	0.491521	0.608632
35746	-0.311685	9.718592	1.042574	-0.422666	-0.461767	0.494037	0.603367
35747	-0.583174	9.696265	1.049960	-0.422103	-0.466640	0.496749	0.597759
35748	-0.416560	9.496047	0.794098	-0.421472	-0.471509	0.499539	0.592032
35749	-0.110317	8.799909	0.443990	-0.420986	-0.476404	0.502640	0.585801
35750	0.038169	8.579968	0.028221	-0.420632	-0.481616	0.506432	0.578482
35751	-0.159846	9.037531	-0.243297	-0.420487	-0.486912	0.510680	0.570363
35752	-0.441694	9.217702	-0.430503	-0.420406	-0.492001	0.515021	0.562092
35753	-0.556438	9.370496	-0.442443	-0.420487	-0.496618	0.519206	0.554064
35754	-0.484540	9.611018	-0.543226	-0.420900	-0.500653	0.523067	0.546434
35755	-0.518541	9.673508	-0.672457	-0.421801	-0.504154	0.526421	0.539253
35756	-0.769565	9.528942	-0.778798	-0.422843	-0.507350	0.529460	0.532421
35757	-0.944234	9.823243	-1.057261	-0.423747	-0.510386	0.532372	0.525856
35758	-1.285175	10.078678	-1.145845	-0.424457	-0.513107	0.535065	0.519867
35759	-1.449267	9.891401	-1.113061	-0.424728	-0.515600	0.537574	0.514565
35760	-1.450099	9.947985	-1.045704	-0.424557	-0.518037	0.539943	0.509755
35761	-1.553782	10.150571	-0.931149	-0.424221	-0.520435	0.542050	0.505337
35762	-1.797638	10.199767	-0.997647	-0.423657	-0.522855	0.543775	0.501444
35763	-2.156625	10.175511	-1.056857	-0.422683	-0.525219	0.545103	0.498343
35764	-2.125936	9.991617	-1.198378	-0.421163	-0.527503	0.546287	0.495916
35765	-1.991481	10.152887	-1.268548	-0.419220	-0.529689	0.547391	0.494012
35766	-2.040998	10.224365	-1.313620	-0.417041	-0.531695	0.548477	0.492493
35767	-2.149560	10.416324	-1.395955	-0.414598	-0.533432	0.549626	0.491396
35768	-2.044871	10.547809	-1.462459	-0.411987	-0.534723	0.550844	0.490825
35769	-1.867167	10.475037	-1.553751	-0.409255	-0.535618	0.552100	0.490724
35770	-1.705479	10.248563	-1.646249	-0.406402	-0.536159	0.553479	0.490950
35771	-1.514724	10.144040	-1.677175	-0.403492	-0.536287	0.555080	0.491403
35772	-1.406865	9.955135	-1.706658	-0.400512	-0.536021	0.556890	0.492082
35773	-1.286615	9.675569	-1.710400	-0.397390	-0.535354	0.558990	0.492958
35774	-1.090092	9.357252	-1.600699	-0.394127	-0.534310	0.561439	0.493926
35775	-0.923841	9.602520	-1.664112	-0.390776	-0.533072	0.564219	0.494758
35776	-0.995335	9.864714	-1.738168	-0.387386	-0.531597	0.567016	0.495812
35777	-0.917421	9.779526	-1.701195	-0.383798	-0.529937	0.569782	0.497205
35778	-0.573352	9.708926	-1.733094	-0.380029	-0.528262	0.572494	0.498767
35779	-0.142567	9.739722	-1.718433	-0.376336	-0.526687	0.575123	0.500206
35780	0.117563	9.640046	-1.685637	-0.372881	-0.525405	0.577583	0.501305
35781	0.229160	9.701619	-1.815903	-0.369669	-0.524599	0.579845	0.501917
35782	0.280235	9.294310	-1.822561	-0.366677	-0.524261	0.581846	0.502149
35783	0.419983	8.960580	-1.867164	-0.363712	-0.524553	0.583690	0.501860
35784	0.635374	8.963837	-1.959179	-0.360878	-0.525421	0.585386	0.501021
35785	0.894683	8.838153	-2.074938	-0.358327	-0.526860	0.586870	0.499603
35786	0.966441	8.910982	-2.196578	-0.356223	-0.528867	0.588038	0.497610
35787	0.919699	8.778967	-2.239441	-0.354582	-0.531342	0.588769	0.495277
35788	0.854178	8.934802	-2.334903	-0.353372	-0.534201	0.589047	0.492729
35789	0.896814	9.222907	-2.522981	-0.352772	-0.537291	0.588828	0.490053
35790	0.923288	9.839293	-2.801595	-0.352912	-0.540550	0.588062	0.487280
35791	0.959405	10.268797	-2.974620	-0.354047	-0.543813	0.586569	0.484619
35792	0.883103	10.401032	-2.963672	-0.356338	-0.547079	0.584204	0.482114
35793	0.772260	10.794702	-3.061650	-0.359983	-0.550311	0.580860	0.479763
35794	0.416242	11.035035	-3.182759	-0.365065	-0.553388	0.576346	0.477822
35795	-0.027119	10.717530	-3.355050	-0.371244	-0.556324	0.570812	0.476294
35796	-0.613913	11.146831	-3.644482	-0.377931	-0.559232	0.564511	0.475138
35797	-1.044173	11.570951	-3.741915	-0.385041	-0.561850	0.557370	0.474771
35798	-1.310255	11.406153	-3.667556	-0.392521	-0.564057	0.549540	0.475155
35799	-1.574826	10.547156	-3.263876	-0.400313	-0.565783	0.541161	0.476219
35800	-1.610265	9.451604	-2.898022	-0.408062	-0.567143	0.532720	0.477538
35801	-1.645494	9.327936	-2.624005	-0.415788	-0.568385	0.524284	0.478733
35802	-2.005612	8.784048	-2.395970	-0.423460	-0.569518	0.515904	0.479765
35803	-2.409943	8.877793	-2.299100	-0.430812	-0.570646	0.507743	0.480585
35804	-2.744700	8.907277	-2.170134	-0.437702	-0.571643	0.499880	0.481415
35805	-2.785594	9.058578	-2.012153	-0.444056	-0.572457	0.492450	0.482287
35806	-2.746370	9.239470	-1.866562	-0.449997	-0.573129	0.485543	0.482985
35807	-2.787540	9.112489	-1.568458	-0.455743	-0.573510	0.479250	0.483429
35808	-2.624766	8.717839	-1.338322	-0.461187	-0.573772	0.473709	0.483417
35809	-2.613929	8.934746	-1.228363	-0.466298	-0.574050	0.468986	0.482788
35810	-2.485706	8.857581	-1.101183	-0.470987	-0.574381	0.464943	0.481753
35811	-2.374772	8.584164	-0.995882	-0.475085	-0.574812	0.461641	0.480388
35812	-2.135197	8.748309	-0.940051	-0.478573	-0.575484	0.459022	0.478628
35813	-2.091958	8.842446	-0.869181	-0.481583	-0.576248	0.456878	0.476737
35814	-2.040936	9.451860	-0.878447	-0.484001	-0.577121	0.455142	0.474889
35815	-1.965559	9.690794	-0.782968	-0.486107	-0.577758	0.453497	0.473536
35816	-1.795282	9.362898	-0.678028	-0.487925	-0.578213	0.451923	0.472614
35817	-1.610603	9.303970	-0.628204	-0.489537	-0.578559	0.450584	0.471802
35818	-1.591932	9.212564	-0.604253	-0.491053	-0.578788	0.449428	0.471047
35819	-1.577961	9.205292	-0.520199	-0.492356	-0.579046	0.448387	0.470363
35820	-1.650859	9.091878	-0.421791	-0.493366	-0.579334	0.447380	0.469908
35821	-1.593017	9.195342	-0.424499	-0.494062	-0.579688	0.446392	0.469679
35822	-1.475195	9.189992	-0.452432	-0.494550	-0.580083	0.445354	0.469663
35823	-1.322032	9.037897	-0.477538	-0.494832	-0.580644	0.444313	0.469658
35824	-1.195147	8.996769	-0.596094	-0.495049	-0.581367	0.443326	0.469469
35825	-1.248346	9.193320	-0.752671	-0.495173	-0.582313	0.442472	0.468971
35826	-1.397508	9.295092	-0.927375	-0.495147	-0.583320	0.441736	0.468441
35827	-1.491454	9.370704	-1.036505	-0.494741	-0.584426	0.441145	0.468047
35828	-1.543337	9.550023	-1.113309	-0.493989	-0.585524	0.440563	0.468018
35829	-1.665084	9.954142	-1.171805	-0.492996	-0.586417	0.439927	0.468545
35830	-1.711028	10.025613	-1.166608	-0.491941	-0.586863	0.439216	0.469760
35831	-1.607315	10.114196	-1.207614	-0.491009	-0.586835	0.438570	0.471371
35832	-1.647637	9.873794	-1.171730	-0.490260	-0.586393	0.437842	0.473374
35833	-1.569801	9.818018	-1.091401	-0.489554	-0.585726	0.437179	0.475538
35834	-1.592394	9.609790	-1.095429	-0.488991	-0.584923	0.436443	0.477777
35835	-1.564640	9.283007	-1.048029	-0.488431	-0.584153	0.435701	0.479964
35836	-1.444528	9.151443	-0.916983	-0.487876	-0.583546	0.435092	0.481815
35837	-1.371533	9.342661	-0.819223	-0.487418	-0.583121	0.434568	0.483264
35838	-1.388833	10.518326	-0.819768	-0.487394	-0.582607	0.433945	0.484466
35839	-1.457548	11.414662	-0.907837	-0.488122	-0.581592	0.432900	0.485887
35840	-1.493173	11.311165	-0.822217	-0.489480	-0.580009	0.431370	0.487770
35841	-1.472383	11.006709	-0.733014	-0.491142	-0.577986	0.429458	0.490181
35842	-1.559020	11.166893	-0.611947	-0.492936	-0.575513	0.427013	0.493415
35843	-1.627618	11.797932	-0.589284	-0.494738	-0.572515	0.423812	0.497840
35844	-1.710024	12.081802	-0.520365	-0.496811	-0.568533	0.419392	0.504043
35845	-1.524878	11.504981	-0.535057	-0.499060	-0.563536	0.413812	0.511982
35846	-1.248855	10.395902	-0.595017	-0.501441	-0.557716	0.407342	0.521136
35847	-0.850563	10.204836	-0.513653	-0.503997	-0.551382	0.400305	0.530774
35848	-1.004185	9.821987	-0.225062	-0.506882	-0.544717	0.392552	0.540608
35849	-1.269334	9.092264	0.167073	-0.509690	-0.537950	0.384269	0.550603
35850	-1.227724	7.621899	0.490029	-0.511960	-0.531531	0.375979	0.560368
35851	-1.014495	7.126303	0.718009	-0.513359	-0.526294	0.368505	0.568931
35852	-1.254360	8.088877	0.964943	-0.514202	-0.522143	0.361975	0.576140
35853	-1.797179	9.203253	1.457515	-0.514932	-0.518283	0.355812	0.582774
35854	-2.251161	8.921477	1.978781	-0.515440	-0.514316	0.349685	0.589509
35855	-2.463405	8.496601	2.315387	-0.515489	-0.510385	0.343878	0.596260
35856	-2.433072	7.739324	2.466359	-0.515013	-0.506642	0.338687	0.602799
35857	-2.438166	8.698094	2.476516	-0.514089	-0.503420	0.334312	0.608700
35858	-2.812959	9.360919	2.610089	-0.513207	-0.499968	0.330083	0.614570
35859	-3.115193	8.787855	2.814166	-0.512027	-0.496369	0.326096	0.620570
35860	-3.105284	8.005349	3.009390	-0.510400	-0.492596	0.322529	0.626750
35861	-2.768017	6.760933	2.974497	-0.508222	-0.489118	0.319812	0.632609
35862	-2.629377	7.504662	2.835064	-0.505506	-0.486416	0.318175	0.637674
35863	-2.998818	9.438420	2.902868	-0.502849	-0.483573	0.316352	0.642823
35864	-3.522063	9.537881	3.123143	-0.500206	-0.480016	0.313799	0.648775
35865	-3.786659	9.062129	3.340211	-0.497214	-0.475723	0.310786	0.655651
35866	-3.564283	7.480075	3.477992	-0.493646	-0.470912	0.307743	0.663212
35867	-3.143251	6.271221	3.509554	-0.489276	-0.466453	0.305541	0.670578
35868	-3.247232	7.552159	3.556211	-0.484375	-0.462733	0.304257	0.677264
35869	-3.565797	8.974204	3.820009	-0.479930	-0.458539	0.302481	0.684043
35870	-4.070900	8.125482	4.080095	-0.475579	-0.454133	0.300234	0.690976
35871	-4.453770	7.495737	4.288818	-0.470917	-0.449554	0.297906	0.698133
35872	-4.493372	6.775018	4.277537	-0.465667	-0.445284	0.296002	0.705166
35873	-4.354095	6.633635	4.335480	-0.460076	-0.441345	0.294710	0.711822
35874	-4.344963	7.821270	4.447849	-0.454616	-0.437838	0.293869	0.717818
35875	-4.642601	8.337385	4.833070	-0.449945	-0.434044	0.292570	0.723573
35876	-5.088391	7.846042	5.164818	-0.445748	-0.430101	0.291112	0.729092
35877	-5.226212	7.296832	5.229399	-0.441698	-0.426198	0.289985	0.734280
35878	-5.013927	6.657250	5.213213	-0.437608	-0.422646	0.289592	0.738922
35879	-4.799254	6.225838	5.038726	-0.433324	-0.419829	0.290141	0.742828
35880	-4.675565	5.949873	4.903486	-0.428949	-0.417546	0.291450	0.746134
35881	-4.723625	5.980409	4.774166	-0.424394	-0.415879	0.293574	0.748832
35882	-4.900719	6.722281	4.736823	-0.419882	-0.414282	0.295954	0.751319
35883	-5.077410	7.549745	4.679120	-0.415443	-0.412597	0.298434	0.753730
35884	-5.280570	7.704959	4.774567	-0.411293	-0.410186	0.300310	0.756571
35885	-5.467526	7.357268	4.815445	-0.407035	-0.407345	0.302377	0.759579
35886	-5.470104	7.814550	5.049056	-0.402820	-0.403822	0.304708	0.762769
35887	-5.076348	7.420506	5.143177	-0.398873	-0.399897	0.307504	0.765783
35888	-4.752221	7.526995	5.236958	-0.395384	-0.395650	0.310507	0.768582
35889	-4.580811	7.978764	5.182146	-0.392186	-0.391532	0.313857	0.770965
35890	-4.279286	8.206615	5.249508	-0.389326	-0.387313	0.316989	0.773261
35891	-4.178196	7.811824	5.247749	-0.386497	-0.383321	0.320162	0.775359
35892	-4.054814	7.888636	5.304915	-0.383405	-0.379661	0.323564	0.777280
35893	-3.842901	8.084488	5.351335	-0.380196	-0.376216	0.327069	0.779062
35894	-3.679244	7.952815	5.421949	-0.377032	-0.372900	0.330703	0.780658
35895	-3.617031	8.340109	5.311760	-0.373972	-0.369694	0.334538	0.782020
35896	-3.842813	9.516683	5.211719	-0.370985	-0.366321	0.338326	0.783399
35897	-3.978626	10.043238	5.159334	-0.368052	-0.362409	0.341811	0.785088
35898	-3.836710	9.725679	5.361919	-0.365063	-0.357528	0.344780	0.787419
35899	-2.914017	7.801070	5.399129	-0.361985	-0.352254	0.348160	0.789727
35900	-2.360671	7.831822	5.301776	-0.359054	-0.347158	0.352307	0.791480
35901	-2.465852	7.420845	5.206786	-0.356301	-0.341933	0.356954	0.792916
35902	-2.552645	7.487410	5.049414	-0.353138	-0.336476	0.362604	0.794101
35903	-2.274949	7.619935	4.915546	-0.349483	-0.330382	0.369057	0.795303
35904	-2.034175	7.783640	4.707835	-0.345455	-0.323733	0.376305	0.796400
35905	-1.900952	8.259600	4.640382	-0.341277	-0.316325	0.383950	0.797528
35906	-1.797936	7.907164	4.598344	-0.336806	-0.308041	0.391895	0.798806
35907	-1.248645	8.167202	4.649657	-0.331878	-0.299353	0.400359	0.799974
35908	-0.791673	8.699218	4.811331	-0.326948	-0.290430	0.408697	0.801076
35909	-0.456330	9.130672	4.878282	-0.322288	-0.281596	0.416401	0.802150
35910	-0.207687	9.170313	4.858176	-0.317947	-0.273069	0.423106	0.803321
35911	0.049236	8.638470	4.869627	-0.313948	-0.265317	0.429045	0.804340
35912	0.120468	8.699037	4.842488	-0.310158	-0.258632	0.434642	0.804983
35913	0.239579	8.653656	4.840957	-0.306645	-0.252923	0.439765	0.805361
35914	0.153029	8.420004	4.815358	-0.303436	-0.248309	0.444700	0.805302
35915	-0.253169	8.444571	4.768614	-0.300399	-0.244500	0.449622	0.804873
35916	-0.618684	8.470905	4.685132	-0.297264	-0.240895	0.454780	0.804225
35917	-0.819387	8.513474	4.623084	-0.294039	-0.236938	0.460537	0.803310
35918	-1.077119	9.143852	4.437241	-0.290640	-0.232085	0.466736	0.802385
35919	-1.212538	8.263595	4.114222	-0.286932	-0.225735	0.473470	0.801586
35920	-1.604752	8.215681	3.837188	-0.282436	-0.218075	0.481689	0.800405
35921	-2.062569	8.004496	3.569921	-0.277106	-0.208000	0.491512	0.798977
35922	-2.316390	7.522209	3.213269	-0.270539	-0.195122	0.503491	0.797015
35923	-1.833037	8.186577	2.841735	-0.262224	-0.179147	0.517743	0.794410
35924	-0.273902	9.134733	2.402881	-0.252761	-0.160696	0.532851	0.791428
35925	0.853191	9.586190	2.081150	-0.243146	-0.140780	0.547443	0.788268
35926	1.322924	9.210558	1.861149	-0.233529	-0.120211	0.560997	0.785045
35927	1.593158	9.059279	1.702424	-0.223505	-0.099780	0.573830	0.781543
35928	2.461889	9.407208	1.587772	-0.213183	-0.080042	0.585760	0.777838
35929	3.333484	9.919786	1.581355	-0.203220	-0.061868	0.596274	0.774165
35930	3.984356	10.070948	1.642172	-0.193907	-0.046066	0.604901	0.770956
35931	4.164175	9.754561	1.662534	-0.185422	-0.033284	0.611837	0.768223
35932	4.111957	9.559187	1.724725	-0.177658	-0.023693	0.617597	0.765800
35933	3.926993	9.750094	1.814194	-0.170677	-0.017202	0.622396	0.763673
35934	3.476619	9.815359	1.853470	-0.164489	-0.013276	0.626213	0.761987
35935	2.917932	9.747812	1.909380	-0.159027	-0.011231	0.629257	0.760671
35936	2.581581	9.718492	1.894124	-0.154142	-0.010572	0.631664	0.759690
35937	2.263577	9.584840	1.832666	-0.149613	-0.010872	0.633612	0.758969
35938	1.990835	9.365322	1.832958	-0.145428	-0.011643	0.635339	0.758327
35939	1.698567	9.516716	1.865206	-0.141641	-0.012486	0.636958	0.757672
35940	1.468994	9.670967	1.828153	-0.138070	-0.013087	0.638408	0.757101
35941	1.449598	9.792959	1.787246	-0.134607	-0.013342	0.639612	0.756703
35942	1.345568	9.656133	1.738605	-0.131176	-0.013325	0.640669	0.756411
35943	1.330584	9.539133	1.722060	-0.127580	-0.013109	0.641700	0.756157
35944	1.404545	9.550692	1.674810	-0.123855	-0.012805	0.642775	0.755868
35945	1.421598	9.518878	1.668308	-0.120264	-0.012490	0.643875	0.755517
35946	1.301991	9.558219	1.674369	-0.116760	-0.012174	0.645037	0.755080
35947	1.341487	9.587681	1.629931	-0.113329	-0.011901	0.646218	0.754598
35948	1.256319	9.772437	1.603222	-0.109937	-0.011703	0.647388	0.754099
35949	1.194276	9.814397	1.557978	-0.106532	-0.011594	0.648486	0.753646
35950	1.087840	9.652506	1.565202	-0.103007	-0.011591	0.649556	0.753214
35951	1.073046	9.706608	1.479732	-0.099366	-0.011768	0.650707	0.752707
35952	1.132866	9.799014	1.463339	-0.095727	-0.012086	0.651857	0.752179
35953	1.042707	9.730809	1.491567	-0.092284	-0.012532	0.652887	0.751708
35954	0.871301	9.540958	1.432189	-0.088981	-0.013056	0.653874	0.751239
35955	0.685801	9.528069	1.430648	-0.085785	-0.013541	0.654889	0.750718
35956	0.572387	9.685660	1.337461	-0.082681	-0.013827	0.655915	0.750165
35957	0.422184	9.731059	1.306287	-0.079703	-0.013830	0.656895	0.749630
35958	0.375959	9.697505	1.247287	-0.076813	-0.013565	0.657781	0.749159
35959	0.432336	9.637219	1.298085	-0.074045	-0.013034	0.658589	0.748738
35960	0.507539	9.600962	1.281297	-0.071415	-0.012430	0.659294	0.748382
35961	0.629596	9.661439	1.295966	-0.068903	-0.011855	0.659884	0.748107
35962	0.626265	9.547617	1.299670	-0.066686	-0.011339	0.660348	0.747907
35963	0.545314	9.497601	1.296469	-0.064685	-0.010835	0.660812	0.747680
35964	0.435458	9.702362	1.325070	-0.062889	-0.010268	0.661304	0.747407
35965	0.449044	9.910647	1.371071	-0.061203	-0.009570	0.661719	0.747189
35966	0.449216	9.953288	1.377536	-0.059712	-0.008742	0.661885	0.747172
35967	0.457164	9.840078	1.368810	-0.058299	-0.007831	0.661861	0.747315
35968	0.385687	9.722581	1.444087	-0.056931	-0.006872	0.661752	0.747526
35969	0.296821	9.686540	1.394553	-0.055363	-0.005861	0.661697	0.747702
35970	0.440633	9.839826	1.433013	-0.053637	-0.004817	0.661710	0.747824
35971	0.545287	9.781065	1.373006	-0.052034	-0.003775	0.661714	0.747939
35972	0.439524	9.729613	1.401979	-0.050519	-0.002785	0.661771	0.747997
35973	0.383338	9.767577	1.446939	-0.048968	-0.001841	0.661844	0.748039
35974	0.342065	9.786278	1.494888	-0.047288	-0.000967	0.661847	0.748146
35975	0.445317	9.663088	1.442449	-0.045603	-0.000120	0.661830	0.748266
35976	0.454088	9.761157	1.381481	-0.044039	0.000625	0.661843	0.748348
35977	0.385467	9.707897	1.391764	-0.042661	0.001373	0.661925	0.748354
35978	0.307931	9.780206	1.402162	-0.041361	0.002184	0.662083	0.748285
35979	0.235237	9.685553	1.397536	-0.040075	0.003002	0.662291	0.748168
35980	0.171891	9.696964	1.340437	-0.038652	0.003800	0.662578	0.747985
35981	0.269685	9.623254	1.240637	-0.037209	0.004489	0.662975	0.747703
35982	0.330188	9.600726	1.181834	-0.035957	0.005025	0.663428	0.747359
35983	0.284981	9.610803	1.148076	-0.034949	0.005451	0.663916	0.746970
35984	0.231044	9.713673	1.120684	-0.034164	0.005840	0.664329	0.746636
35985	0.240126	9.646855	1.145285	-0.033567	0.006347	0.664663	0.746362
35986	0.379420	9.699583	1.140573	-0.033182	0.007045	0.664874	0.746185
35987	0.440129	9.846311	1.132039	-0.033038	0.007886	0.664892	0.746167
35988	0.543730	9.926643	1.171952	-0.033101	0.008897	0.664661	0.746359
35989	0.735159	9.815598	1.159519	-0.033305	0.009939	0.664208	0.746739
35990	0.718243	9.768717	1.151198	-0.033576	0.010825	0.663683	0.747182
35991	0.692821	9.717788	1.162618	-0.033714	0.011665	0.663189	0.747601
35992	0.833246	9.732250	1.119784	-0.033780	0.012359	0.662798	0.747934
35993	0.974315	9.751700	1.110113	-0.033965	0.012856	0.662476	0.748202
35994	0.942975	9.791425	1.090903	-0.034212	0.013065	0.662282	0.748359
