// Start Time: Unknown
// Update Rate: 60.0Hz
// Filter Profile: human (46.1)
// Option Flags: AHS Disabled ICC Disabled 
// Firmware Version: 4.3.5
PacketCounter	Acc_X	Acc_Y	Acc_Z	Quat_q0	Quat_q1	Quat_q2	Quat_q3
40913	-10.693089	-3.067861	-3.045292	-0.672516	0.100591	-0.731849	0.044733
40914	-9.970752	-2.304290	-1.918447	-0.672240	0.097758	-0.732314	0.047479
40915	-9.663590	-2.146000	-1.559019	-0.672019	0.095888	-0.732651	0.049179
40916	-9.702263	-2.187891	-0.916758	-0.671851	0.094987	-0.732871	0.049937
40917	-9.509971	-2.003167	-0.906166	-0.671758	0.094771	-0.732979	0.050003
40918	-9.398155	-1.795010	-0.841784	-0.671774	0.094477	-0.733003	0.049994
40919	-9.516629	-1.397646	-0.767084	-0.671697	0.094366	-0.733099	0.049836
40920	-9.532417	-1.478432	-0.687676	-0.671575	0.094475	-0.733220	0.049496
40921	-9.584962	-1.783164	-0.708512	-0.671340	0.094533	-0.733432	0.049423
40922	-9.574579	-1.987071	-0.806707	-0.671022	0.094294	-0.733732	0.049758
40923	-9.557281	-2.220060	-0.875228	-0.670675	0.093565	-0.734084	0.050611
40924	-9.514185	-2.134533	-0.838296	-0.670313	0.092429	-0.734469	0.051896
40925	-9.513572	-1.728495	-0.486337	-0.669879	0.091678	-0.734894	0.052799
40926	-9.437302	-1.740684	-0.609849	-0.669290	0.091776	-0.735413	0.052868
40927	-9.543110	-1.772293	-0.689021	-0.668600	0.092139	-0.736013	0.052632
40928	-9.533464	-1.662754	-0.864464	-0.667881	0.092835	-0.736615	0.052103
40929	-9.516899	-1.692421	-0.786595	-0.667093	0.093757	-0.737262	0.051399
40930	-9.478598	-1.886437	-0.852531	-0.666224	0.094986	-0.737960	0.050384
40931	-9.548527	-2.127620	-0.871632	-0.665305	0.096043	-0.738707	0.049577
40932	-9.479875	-2.202826	-1.180981	-0.664377	0.096858	-0.739478	0.048940
40933	-9.505003	-2.223839	-1.262835	-0.663485	0.097256	-0.740240	0.048721
40934	-9.566840	-1.995131	-1.158409	-0.662626	0.097402	-0.740986	0.048775
40935	-9.542637	-1.922817	-1.203008	-0.661780	0.097770	-0.741711	0.048509
40936	-9.497795	-2.104639	-1.533962	-0.660988	0.098168	-0.742384	0.048207
40937	-9.502079	-1.994940	-1.492515	-0.660301	0.098257	-0.742983	0.048219
40938	-9.535453	-1.842003	-1.487240	-0.659732	0.098368	-0.743474	0.048195
40939	-9.576340	-1.921332	-1.395764	-0.659251	0.098648	-0.743876	0.048002
40940	-9.556077	-2.079296	-1.575416	-0.658853	0.098990	-0.744202	0.047719
40941	-9.509403	-2.158331	-1.510414	-0.658559	0.099032	-0.744457	0.047711
40942	-9.533160	-2.012636	-1.490367	-0.658358	0.099080	-0.744632	0.047653
40943	-9.540416	-2.082289	-1.502830	-0.658236	0.099108	-0.744741	0.047582
40944	-9.487409	-2.017683	-1.526686	-0.658218	0.098992	-0.744769	0.047634
40945	-9.526072	-1.939277	-1.531947	-0.658277	0.098772	-0.744735	0.047809
40946	-9.535914	-1.904018	-1.451630	-0.658416	0.098562	-0.744630	0.047970
40947	-9.528095	-1.969357	-1.353350	-0.658582	0.098414	-0.744496	0.048069
40948	-9.547054	-1.916468	-1.309953	-0.658813	0.098255	-0.744305	0.048175
40949	-9.514796	-1.940059	-1.333140	-0.659063	0.098264	-0.744088	0.048096
40950	-9.519738	-1.925638	-1.384958	-0.659383	0.098302	-0.743807	0.047983
40951	-9.528893	-1.929384	-1.322674	-0.659745	0.098362	-0.743486	0.047850
40952	-9.544006	-2.019306	-1.296197	-0.660140	0.098371	-0.743139	0.047772
40953	-9.491583	-2.043096	-1.276446	-0.660574	0.098206	-0.742773	0.047813
40954	-9.473131	-1.977580	-1.208261	-0.661041	0.097943	-0.742382	0.047970
40955	-9.454574	-1.871212	-1.072785	-0.661474	0.097704	-0.742017	0.048119
40956	-9.485572	-1.964951	-1.102965	-0.661866	0.097504	-0.741691	0.048178
40957	-9.529719	-2.035434	-1.109728	-0.662230	0.097285	-0.741388	0.048291
40958	-9.477978	-1.977892	-1.000899	-0.662558	0.096838	-0.741133	0.048594
40959	-9.455427	-1.884881	-0.854640	-0.662800	0.096425	-0.740949	0.048925
40960	-9.458528	-1.834878	-0.675160	-0.662925	0.096089	-0.740865	0.049149
40961	-9.552735	-1.763398	-0.604758	-0.662913	0.095943	-0.740890	0.049232
40962	-9.557783	-1.677928	-0.770895	-0.662764	0.096163	-0.741012	0.048962
40963	-9.500189	-1.962558	-1.112108	-0.662523	0.096621	-0.741197	0.048531
40964	-9.480298	-2.029351	-1.186142	-0.662277	0.096765	-0.741403	0.048436
40965	-9.500012	-1.873143	-1.157220	-0.662063	0.096838	-0.741586	0.048427
40966	-9.522576	-1.888970	-1.045497	-0.661810	0.096977	-0.741801	0.048321
40967	-9.561673	-1.974965	-1.054519	-0.661507	0.097097	-0.742058	0.048279
40968	-9.572236	-2.056078	-1.079978	-0.661193	0.097228	-0.742330	0.048144
40969	-9.451236	-2.088694	-1.071538	-0.660826	0.097088	-0.742665	0.048281
40970	-9.474739	-2.008499	-1.116674	-0.660447	0.096830	-0.743023	0.048481
40971	-9.454089	-1.967647	-1.065098	-0.660002	0.096504	-0.743445	0.048718
40972	-9.413234	-1.933890	-0.854766	-0.659437	0.096142	-0.743974	0.049007
40973	-9.393679	-1.988275	-0.698825	-0.658693	0.095701	-0.744672	0.049292
40974	-9.462203	-2.033571	-0.638757	-0.657797	0.095284	-0.745506	0.049442
40975	-9.413756	-1.892090	-0.859243	-0.656744	0.095081	-0.746466	0.049353
40976	-9.464306	-1.943417	-1.032384	-0.655586	0.094963	-0.747514	0.049111
40977	-9.373907	-2.007005	-1.287462	-0.654326	0.094969	-0.748643	0.048700
40978	-9.432756	-2.022790	-1.475899	-0.653073	0.094971	-0.749771	0.048163
40979	-9.463899	-2.084088	-1.754981	-0.651922	0.094777	-0.750825	0.047708
40980	-9.547073	-1.818345	-1.747009	-0.650886	0.094687	-0.751774	0.047098
40981	-9.642480	-1.720897	-1.766436	-0.649976	0.095156	-0.752584	0.045759
40982	-9.545033	-2.172177	-2.019352	-0.649220	0.095842	-0.753253	0.044017
40983	-9.494391	-2.279422	-2.227544	-0.648715	0.096275	-0.753730	0.042319
40984	-9.547002	-2.102352	-2.015077	-0.648411	0.096342	-0.754065	0.040847
40985	-9.559353	-2.058628	-1.887465	-0.648277	0.096247	-0.754267	0.039423
40986	-9.602672	-1.953283	-1.634777	-0.648247	0.096010	-0.754395	0.038026
40987	-9.514374	-1.983339	-1.719305	-0.648261	0.095790	-0.754489	0.036445
40988	-9.458306	-1.975617	-1.632231	-0.648346	0.095354	-0.754541	0.034973
40989	-9.543779	-1.810315	-1.575194	-0.648454	0.094871	-0.754579	0.033429
40990	-9.566264	-1.831659	-1.666884	-0.648624	0.094528	-0.754556	0.031572
40991	-9.498705	-1.931439	-1.878398	-0.648892	0.094149	-0.754452	0.029618
40992	-9.515897	-1.942929	-1.756258	-0.649252	0.093390	-0.754299	0.027970
40993	-9.501648	-1.758249	-1.412110	-0.649605	0.092406	-0.754172	0.026437
40994	-9.385891	-1.663618	-0.966268	-0.649859	0.091526	-0.754120	0.024677
40995	-9.449568	-1.491682	-0.821884	-0.649961	0.090916	-0.754175	0.022471
40996	-9.496581	-1.470787	-1.029104	-0.649890	0.090535	-0.754353	0.019978
40997	-9.524432	-1.318049	-1.184614	-0.649712	0.090147	-0.754614	0.017488
40998	-9.494942	-1.183554	-1.278598	-0.649422	0.089718	-0.754966	0.015091
40999	-9.494643	-1.300852	-1.495942	-0.649058	0.089414	-0.755361	0.012606
41000	-9.464752	-1.322065	-1.200802	-0.648602	0.088675	-0.755870	0.010599
41001	-9.516848	-1.134976	-0.787451	-0.647973	0.088347	-0.756479	0.008090
41002	-9.381776	-1.246413	-0.859465	-0.647065	0.088608	-0.757252	0.004921
41003	-9.339537	-0.888938	-0.977425	-0.645924	0.089259	-0.758164	0.001378
41004	-9.438831	-1.271315	-1.612235	-0.644576	0.090177	-0.759199	-0.002701
41005	-9.466233	-1.161502	-1.795100	-0.643285	0.090727	-0.760204	-0.006494
41006	-9.721335	-0.069720	-1.879379	-0.642049	0.092747	-0.760941	-0.011800
41007	-9.793188	-0.227114	-1.938838	-0.640663	0.096270	-0.761534	-0.018685
41008	-9.496055	-1.396479	-3.108685	-0.639419	0.099362	-0.762000	-0.025032
41009	-9.837946	-1.595437	-3.086332	-0.638812	0.099273	-0.762435	-0.027518
41010	-9.820360	-0.112063	-2.275098	-0.638674	0.097987	-0.762698	-0.028025
41011	-9.824950	0.010116	-1.087141	-0.638448	0.097620	-0.762899	-0.028983
41012	-9.667255	-0.187659	-0.693644	-0.637896	0.098177	-0.763232	-0.030452
41013	-9.609308	-0.724074	-0.966885	-0.637125	0.098051	-0.763882	-0.030700
41014	-9.573928	-0.466643	-1.252889	-0.636191	0.096726	-0.764884	-0.029299
41015	-9.722456	-0.023416	-1.325441	-0.634930	0.095420	-0.766163	-0.027437
41016	-9.578483	0.278669	-1.497743	-0.633453	0.095126	-0.767465	-0.026175
41017	-9.287832	0.009640	-1.722537	-0.631764	0.095185	-0.768894	-0.024811
41018	-9.234164	-0.256046	-1.673939	-0.630020	0.094421	-0.770498	-0.022182
41019	-9.148354	-1.119844	-1.648211	-0.628102	0.092269	-0.772440	-0.017637
41020	-9.171888	-1.816812	-0.859051	-0.625891	0.087550	-0.774919	-0.009821
41021	-9.237020	-0.560878	0.229398	-0.623188	0.082230	-0.777736	-0.001120
41022	-9.383416	0.340853	0.110661	-0.619581	0.079758	-0.780857	0.004504
41023	-9.180300	0.215278	-0.217161	-0.615030	0.079577	-0.784437	0.007991
41024	-9.234825	-0.095112	-0.369475	-0.609609	0.079642	-0.788604	0.011741
41025	-9.279040	0.331046	-0.222678	-0.603472	0.079789	-0.793219	0.016079
41026	-9.661035	-0.081318	-1.775627	-0.596879	0.081143	-0.797987	0.019191
41027	-9.542111	-0.823458	-3.361737	-0.590201	0.082946	-0.802683	0.021972
41028	-9.351988	-1.314286	-4.093378	-0.583700	0.085160	-0.807119	0.024523
41029	-9.101914	-1.635723	-4.222097	-0.577590	0.087145	-0.811193	0.027599
41030	-9.105887	-1.092794	-3.783397	-0.571820	0.088746	-0.814950	0.031664
41031	-9.572726	-0.149050	-4.483760	-0.566379	0.091147	-0.818333	0.035185
41032	-9.481386	-0.224310	-5.176859	-0.561400	0.093874	-0.821276	0.039025
41033	-9.413079	-0.461169	-5.588697	-0.557018	0.096193	-0.823714	0.044424
41034	-9.681792	-0.596556	-5.389665	-0.552991	0.097010	-0.825861	0.052387
41035	-10.391292	-0.454067	-4.487112	-0.549300	0.097162	-0.827660	0.061717
41036	-10.584429	-1.230415	-3.603686	-0.546222	0.096453	-0.828923	0.072283
41037	-10.794270	-2.647436	-3.355955	-0.543561	0.093870	-0.829747	0.085143
41038	-11.608619	-2.647898	-2.163450	-0.540527	0.087189	-0.830606	0.101596
41039	-11.262445	-1.564340	-1.915038	-0.536789	0.076929	-0.831767	0.118755
41040	-11.675877	-2.369022	-3.152454	-0.532625	0.060138	-0.832601	0.139536
41041	-9.842823	-2.458958	-3.313187	-0.528256	0.034643	-0.831799	0.166900
41042	-8.488978	-2.161168	-3.924757	-0.523322	0.001030	-0.828322	0.200039
41043	-9.420143	-1.210902	-4.371645	-0.517048	-0.039819	-0.821330	0.237682
41044	-8.241748	-0.546573	-6.615048	-0.508194	-0.084946	-0.811447	0.275821
41045	-7.559296	0.371702	-6.699766	-0.496294	-0.133435	-0.798571	0.313325
41046	-6.447427	2.884501	-7.912224	-0.480853	-0.182031	-0.784463	0.346790
41047	-8.704210	12.157478	-3.671906	-0.464902	-0.223226	-0.774196	0.366955
41048	-7.008751	9.310167	-2.543879	-0.459181	-0.244668	-0.777196	0.353915
41049	-6.385916	-2.975842	-3.962035	-0.459023	-0.257209	-0.785238	0.326408
41050	-7.251362	-11.354275	-5.709899	-0.455984	-0.275094	-0.787149	0.311123
41051	-7.760258	-9.354558	-4.572183	-0.447249	-0.298918	-0.782714	0.313009
41052	-9.601579	-4.718824	0.771036	-0.438277	-0.320317	-0.776646	0.319579
41053	-10.060276	-8.429899	0.741567	-0.435843	-0.329584	-0.773770	0.320461
41054	-8.917529	-13.184655	0.927467	-0.439066	-0.329992	-0.771994	0.319923
41055	-8.401274	-15.169192	0.353138	-0.445919	-0.326195	-0.768267	0.323292
41056	-6.130365	-12.422589	-4.317542	-0.451944	-0.320266	-0.765292	0.327879
41057	-8.709209	-7.119102	-3.023615	-0.454977	-0.312822	-0.765226	0.331008
41058	-8.334025	-3.460003	-1.937053	-0.460518	-0.299568	-0.768165	0.328791
41059	-6.784917	-2.286117	-2.038904	-0.467919	-0.284370	-0.773010	0.320375
41060	-11.794723	-0.674557	0.597128	-0.473639	-0.273923	-0.776353	0.312903
41061	-12.995126	0.581798	2.170961	-0.477002	-0.272334	-0.775600	0.311044
41062	-11.690047	-4.805162	-1.651862	-0.475822	-0.277306	-0.772327	0.316553
41063	-10.768897	-0.349365	-1.919971	-0.469605	-0.286033	-0.766444	0.331994
41064	-8.726977	6.088102	-3.064309	-0.468966	-0.284430	-0.766931	0.333147
41065	-7.986080	-2.121654	-5.481609	-0.471184	-0.277864	-0.770782	0.326606
41066	-8.463419	-6.188943	-5.619459	-0.469796	-0.277394	-0.770610	0.329401
41067	-10.905316	-1.323536	-3.282616	-0.465632	-0.280634	-0.767854	0.338869
41068	-9.711131	1.125242	-1.692064	-0.462644	-0.280257	-0.767716	0.343552
41069	-7.945833	-1.126384	-1.814147	-0.460216	-0.277330	-0.769864	0.344382
41070	-8.306366	0.144639	-1.573405	-0.456381	-0.273833	-0.772600	0.346153
41071	-8.848798	0.705389	-0.986061	-0.452187	-0.268475	-0.776867	0.346302
41072	-8.483728	-1.707097	-3.001701	-0.447892	-0.261975	-0.781831	0.345691
41073	-8.616128	-3.404162	-3.966124	-0.442246	-0.256470	-0.786106	0.347390
41074	-8.859826	-4.273356	-4.223310	-0.436146	-0.251413	-0.789835	0.350328
41075	-7.734662	-5.297491	-2.351532	-0.429382	-0.246845	-0.793471	0.353698
41076	-9.083876	-2.898935	-1.474151	-0.422556	-0.242058	-0.797370	0.356449
41077	-10.811384	-1.021596	-1.301930	-0.416460	-0.235271	-0.802919	0.355709
41078	-11.356879	-1.069821	-3.456899	-0.411126	-0.226485	-0.809298	0.353152
41079	-11.804032	-1.460175	-2.679294	-0.405744	-0.216319	-0.816103	0.350078
41080	-13.570364	-5.094489	-3.109677	-0.400392	-0.202233	-0.824667	0.344547
41081	-11.886214	-5.593552	-2.258014	-0.395129	-0.183104	-0.835798	0.334346
41082	-10.994030	-7.233724	-3.652927	-0.389499	-0.160042	-0.848177	0.321362
41083	-8.950539	-6.735639	-4.809085	-0.383414	-0.133424	-0.860710	0.307198
41084	-6.831173	-5.269216	-4.425228	-0.377891	-0.101514	-0.873486	0.289682
41085	-3.987993	-3.848187	-4.635797	-0.373201	-0.064324	-0.886040	0.267424
41086	-1.360666	-3.226960	-6.247348	-0.369299	-0.021942	-0.898116	0.237750
41087	0.683131	-4.044656	-8.919647	-0.364969	0.022847	-0.908224	0.203480
41088	1.053962	-4.759507	-10.612293	-0.360424	0.066596	-0.914682	0.170340
41089	-0.041618	-4.286589	-9.886959	-0.356244	0.106661	-0.917367	0.141952
41090	-2.754603	-1.424093	-7.953306	-0.352443	0.143374	-0.917372	0.116857
41091	-5.474198	0.718719	-4.272842	-0.346923	0.179575	-0.916480	0.086377
41092	-5.953179	-1.493211	-3.763164	-0.338161	0.214913	-0.914982	0.047619
41093	-4.705978	-4.810368	-9.659697	-0.328583	0.244905	-0.912124	0.009196
41094	-4.612470	-6.677928	-12.482434	-0.321424	0.264901	-0.908940	-0.018503
41095	-6.002417	-6.562696	-13.241303	-0.319102	0.273627	-0.906833	-0.030935
41096	-7.130464	-3.213115	-10.299741	-0.321205	0.274054	-0.905956	-0.031084
41097	-8.389089	0.041443	-7.806437	-0.325945	0.269698	-0.905791	-0.023786
41098	-9.667842	4.011090	-6.322741	-0.330411	0.265011	-0.905695	-0.017750
41099	-9.096810	3.837123	-7.503611	-0.333035	0.261691	-0.905736	-0.015743
41100	-8.425212	2.072559	-8.901073	-0.335843	0.256811	-0.906158	-0.011619
41101	-7.695591	1.719679	-9.298683	-0.339711	0.248678	-0.907051	-0.003640
41102	-7.470688	1.139974	-11.507577	-0.344790	0.236254	-0.908429	0.007809
41103	-7.710317	-1.190362	-11.780228	-0.350835	0.218683	-0.910196	0.025218
41104	-7.139073	-1.217737	-11.540569	-0.358822	0.195110	-0.911310	0.051900
41105	-6.784116	-0.188575	-10.433578	-0.366495	0.166195	-0.911541	0.084578
41106	-7.058319	-0.543431	-8.044042	-0.372928	0.130980	-0.910287	0.123072
41107	-6.298016	-1.565451	-6.705327	-0.378132	0.088757	-0.906310	0.166555
41108	-5.197710	-2.164932	-7.141040	-0.382386	0.040832	-0.898513	0.211631
41109	-3.609077	-2.371930	-7.698914	-0.386344	-0.010139	-0.885956	0.256354
41110	-0.524963	-3.085244	-7.835033	-0.389634	-0.061880	-0.869389	0.297521
41111	0.664036	-3.682802	-7.127059	-0.391299	-0.112084	-0.850206	0.333874
41112	1.295798	-4.106111	-7.693448	-0.390494	-0.160206	-0.828175	0.368748
41113	0.663746	1.222276	-5.677606	-0.387936	-0.202283	-0.806848	0.396968
41114	0.625498	-1.639056	-5.984066	-0.390018	-0.229556	-0.794988	0.403960
41115	-0.639772	-10.703198	-5.963749	-0.392552	-0.253471	-0.780466	0.415366
41116	-3.301810	-5.413525	0.345719	-0.390357	-0.278432	-0.756742	0.444340
41117	-12.269916	4.310829	0.295681	-0.391004	-0.290332	-0.743492	0.458303
41118	-17.324506	2.655851	1.521106	-0.394878	-0.291057	-0.739647	0.460739
41119	-11.060423	0.408507	2.629207	-0.400856	-0.289801	-0.739511	0.456567
41120	-15.232349	-3.231174	1.905553	-0.404125	-0.295337	-0.733509	0.459809
41121	-14.474354	-0.735196	2.139543	-0.403795	-0.305755	-0.723040	0.469763
41122	-11.863495	0.349862	1.110860	-0.403198	-0.313457	-0.714078	0.478820
41123	-8.298549	-1.402901	-2.489049	-0.405956	-0.311962	-0.713220	0.478745
41124	-7.194121	-5.700237	-3.182489	-0.409646	-0.305491	-0.716084	0.475489
41125	-12.097060	-5.208379	0.201323	-0.413184	-0.297777	-0.719721	0.471814
41126	-15.897025	-3.528679	2.332220	-0.418381	-0.288349	-0.725138	0.464744
41127	-11.250840	-5.041377	-0.972635	-0.425539	-0.277727	-0.731847	0.454075
41128	-7.262779	-6.491756	-3.606029	-0.432015	-0.268528	-0.737103	0.444898
41129	-5.757110	-5.567093	-5.123219	-0.438183	-0.261174	-0.740087	0.438242
41130	-8.115801	-5.608228	-4.755220	-0.443887	-0.255076	-0.741588	0.433529
41131	-9.497129	-5.873108	-2.390932	-0.448632	-0.250867	-0.741075	0.431977
41132	-9.515027	-3.688313	0.656239	-0.451954	-0.248025	-0.739016	0.433677
41133	-9.565802	1.288809	1.066450	-0.456606	-0.242078	-0.739683	0.431020
41134	-9.350994	-1.937041	-2.323481	-0.463463	-0.231192	-0.744997	0.420395
41135	-9.585625	-6.566578	-5.118186	-0.468971	-0.221814	-0.748477	0.413094
41136	-9.385265	-5.814364	-4.332026	-0.472768	-0.215888	-0.748584	0.411708
41137	-9.171315	-3.947354	-1.888286	-0.475745	-0.211446	-0.747059	0.413352
41138	-8.876726	-0.489667	1.823623	-0.477545	-0.206404	-0.746350	0.415102
41139	-9.080186	-0.296653	3.996640	-0.478688	-0.198227	-0.749623	0.411861
41140	-10.975667	-3.592556	4.717237	-0.476514	-0.191884	-0.753971	0.409442
41141	-12.523444	-3.391842	6.436220	-0.469520	-0.189210	-0.757796	0.411699
41142	-14.691727	0.362830	7.820328	-0.459484	-0.185954	-0.764018	0.413003
41143	-15.691481	0.526210	4.492191	-0.449113	-0.178042	-0.774745	0.407884
41144	-14.184461	-4.121416	-0.233294	-0.438531	-0.169606	-0.786318	0.400785
41145	-12.192531	-5.853936	-0.628403	-0.426444	-0.165259	-0.794846	0.398816
41146	-10.887651	-2.985127	1.271174	-0.414097	-0.164445	-0.800309	0.401231
41147	-9.220434	-1.544330	-2.455599	-0.403485	-0.164619	-0.805581	0.401422
41148	-8.434896	0.861874	-7.531518	-0.391265	-0.168070	-0.812149	0.398845
41149	-9.223241	3.460689	-5.661052	-0.375961	-0.173872	-0.819314	0.396417
41150	-14.815442	14.926891	0.553155	-0.367125	-0.172664	-0.828146	0.386756
41151	-10.558536	15.711686	1.499746	-0.375194	-0.154137	-0.850011	0.336083
41152	-8.904024	-0.140948	-7.015036	-0.391819	-0.131817	-0.870441	0.267272
41153	-10.130208	-15.051671	-8.662679	-0.410101	-0.121827	-0.876897	0.219152
41154	-8.441414	-10.992264	-6.685657	-0.424409	-0.131897	-0.869099	0.217132
41155	-8.644223	-3.921805	-3.249578	-0.438139	-0.149126	-0.855722	0.231376
41156	-10.917546	2.067265	-1.805456	-0.453858	-0.165817	-0.840709	0.244389
41157	-10.361724	7.554829	-0.415335	-0.475057	-0.171177	-0.829792	0.237623
41158	-8.793372	2.959580	-3.186768	-0.500992	-0.158362	-0.825832	0.204768
41159	-7.591927	-3.460094	-7.423543	-0.526573	-0.134711	-0.823563	0.162228
41160	-4.523744	-6.722884	-10.325845	-0.547796	-0.110356	-0.819759	0.125445
41161	-1.459406	-6.245917	-10.581148	-0.562972	-0.094723	-0.814263	0.105192
41162	0.058497	-0.526829	-10.564199	-0.571708	-0.090026	-0.809492	0.098830
41163	1.431651	0.340613	-21.799647	-0.570410	-0.085714	-0.812106	0.088145
41164	7.175959	-10.398050	-15.704228	-0.557629	-0.085788	-0.821227	0.085296
41165	3.047304	-6.344676	-9.540112	-0.537973	-0.097488	-0.830195	0.108893
41166	-8.062716	9.276873	-0.200026	-0.517267	-0.109198	-0.837945	0.135494
41167	-21.904662	5.470756	-8.279725	-0.505533	-0.089714	-0.850163	0.116664
41168	-7.098523	-8.228546	-9.764693	-0.490666	-0.066820	-0.863316	0.097300
41169	-3.219325	-7.748305	-8.022974	-0.474838	-0.053532	-0.874077	0.087476
41170	-5.524941	-9.402001	-10.401878	-0.459276	-0.048805	-0.882692	0.086831
41171	-8.202856	-5.151639	-11.122461	-0.444211	-0.047379	-0.889881	0.092430
41172	-9.143518	-1.474457	-9.424679	-0.431050	-0.045692	-0.895874	0.097559
41173	-7.969199	-5.372491	-10.241838	-0.420234	-0.044359	-0.901068	0.097533
41174	-7.206714	-6.873897	-10.818103	-0.411247	-0.046458	-0.904746	0.100762
41175	-7.637905	-6.124639	-11.808975	-0.404112	-0.050430	-0.907196	0.105576
41176	-8.210915	-2.552516	-10.753517	-0.398790	-0.055014	-0.908134	0.115035
41177	-6.160451	4.396178	-6.763458	-0.396125	-0.055730	-0.908732	0.119099
41178	-6.451295	-4.422014	-7.258241	-0.394153	-0.055164	-0.909720	0.118363
41179	-7.177397	-2.785114	-6.993705	-0.390843	-0.059147	-0.909328	0.129870
41180	-8.563130	2.727663	-4.817555	-0.387939	-0.061378	-0.909167	0.138391
41181	-6.718628	-2.327214	-6.261932	-0.385462	-0.060946	-0.909861	0.140915
41182	-6.394789	-2.130878	-6.244066	-0.382045	-0.061582	-0.910509	0.145679
41183	-7.283967	-3.087179	-7.209618	-0.379011	-0.062561	-0.911470	0.147172
41184	-6.167211	-3.954347	-8.679204	-0.376358	-0.064221	-0.912505	0.146848
41185	-6.440284	-3.075706	-9.280594	-0.374719	-0.066354	-0.913489	0.143950
41186	-6.783792	-4.848377	-9.996315	-0.374921	-0.067910	-0.914645	0.135083
41187	-7.404736	-5.303887	-9.920583	-0.376076	-0.070974	-0.915246	0.125918
41188	-6.983720	-4.679927	-8.661304	-0.378430	-0.075643	-0.915181	0.116240
41189	-6.578801	-4.360019	-8.010352	-0.380947	-0.082261	-0.914309	0.110234
41190	-6.795432	-2.952671	-7.151951	-0.383376	-0.089849	-0.912679	0.109398
41191	-6.519964	-1.309640	-7.319021	-0.385413	-0.099030	-0.909999	0.116412
41192	-5.397409	2.351529	-6.066829	-0.387971	-0.108037	-0.907113	0.122278
41193	-5.374752	0.674815	-6.994996	-0.390915	-0.115700	-0.904369	0.126157
41194	-5.755664	1.335802	-7.145326	-0.393937	-0.122231	-0.901484	0.131151
41195	-6.645321	2.236085	-7.903410	-0.397908	-0.126544	-0.898782	0.133590
41196	-7.816809	1.691924	-7.763282	-0.403362	-0.128715	-0.895968	0.134062
41197	-7.624964	-0.187621	-8.450193	-0.409919	-0.129361	-0.892946	0.133714
41198	-8.822599	-2.132388	-10.046667	-0.417389	-0.129650	-0.889149	0.135616
41199	-9.434850	-2.569207	-9.974026	-0.426092	-0.130837	-0.883979	0.141095
41200	-8.190182	-2.239199	-9.590575	-0.436216	-0.132816	-0.877720	0.147251
41201	-7.398109	-2.773030	-10.685833	-0.448342	-0.135178	-0.870432	0.151871
41202	-8.145858	-4.781086	-10.749615	-0.461719	-0.139018	-0.861828	0.157298
41203	-8.927000	-4.145735	-11.108621	-0.475280	-0.146273	-0.850707	0.170327
41204	-8.018070	-0.956145	-6.542945	-0.488609	-0.155596	-0.838085	0.186182
41205	-5.525111	1.667870	-4.051498	-0.500534	-0.162679	-0.826980	0.197750
41206	0.864497	-3.199483	-10.631480	-0.508351	-0.169300	-0.818857	0.205889
41207	3.262124	-3.621335	-13.606245	-0.504214	-0.188341	-0.811031	0.229182
41208	-3.665953	5.784447	-10.781582	-0.489523	-0.211102	-0.806754	0.254854
41209	-9.084690	8.667935	-8.713647	-0.471310	-0.221250	-0.811708	0.264662
41210	-3.377039	3.154616	-6.884830	-0.452508	-0.223625	-0.823597	0.258682
41211	-2.245018	-3.232775	-7.259092	-0.430395	-0.229497	-0.835807	0.252027
41212	-2.983283	-5.565694	-4.497292	-0.403103	-0.243337	-0.843451	0.258623
41213	-4.825201	-1.980463	1.400929	-0.376007	-0.260445	-0.845088	0.276791
41214	-6.145944	1.814338	8.822755	-0.357817	-0.273406	-0.841480	0.298543
41215	-5.779736	3.984703	16.144411	-0.358710	-0.277753	-0.833482	0.315417
41216	-0.031006	6.681640	-6.278873	-0.380626	-0.265239	-0.835598	0.294189
41217	-25.365291	-10.861114	-2.872623	-0.393404	-0.254203	-0.840942	0.270980
41218	-26.503817	-1.281720	-2.142368	-0.403920	-0.247117	-0.837185	0.273684
41219	-24.093081	-2.262901	5.691116	-0.412451	-0.243358	-0.837653	0.262677
41220	-27.966300	-13.041771	3.832613	-0.414566	-0.245342	-0.837077	0.259314
41221	-10.960168	-7.156978	-8.214298	-0.413371	-0.253695	-0.833565	0.264450
41222	-3.004255	-10.105763	-10.932005	-0.410734	-0.268753	-0.826301	0.276219
41223	-1.068805	-2.082477	-12.307846	-0.406034	-0.288052	-0.814942	0.296702
41224	-2.914732	3.844287	-10.724204	-0.402911	-0.302199	-0.804459	0.314935
41225	-6.521081	4.401044	-6.711629	-0.400452	-0.311552	-0.795387	0.331562
41226	-12.234784	2.788860	-2.541549	-0.398535	-0.318610	-0.787421	0.345868
41227	-15.091803	1.964785	-0.559523	-0.396549	-0.322708	-0.781365	0.357877
41228	-8.746689	1.481404	0.179891	-0.395364	-0.323842	-0.778084	0.365239
41229	-6.325209	0.349165	0.377167	-0.393549	-0.323878	-0.776842	0.369782
41230	-8.422357	2.379600	1.480334	-0.389684	-0.323049	-0.776678	0.374909
41231	-8.021179	3.647808	-0.753605	-0.386787	-0.317597	-0.780657	0.374303
41232	-6.742003	-0.978329	-1.566436	-0.383329	-0.309872	-0.786860	0.371336
41233	-8.545201	-0.841663	-2.124093	-0.377931	-0.302063	-0.793518	0.369127
41234	-10.394215	0.183151	-3.343497	-0.371846	-0.292922	-0.801329	0.365787
41235	-8.875102	-1.486366	-5.850493	-0.365875	-0.282713	-0.809560	0.361692
41236	-5.391120	-3.675630	-9.734468	-0.359585	-0.272320	-0.816337	0.360741
41237	-5.681262	-3.643968	-9.668655	-0.354040	-0.261601	-0.821625	0.362151
41238	-10.175580	-1.704235	-9.022412	-0.350399	-0.249790	-0.826542	0.362842
41239	-11.792697	-2.659935	-7.590498	-0.349023	-0.236264	-0.831623	0.361614
41240	-10.677105	-4.320326	-5.833457	-0.347592	-0.223712	-0.835095	0.362971
41241	-9.589271	-5.998308	-4.107882	-0.346284	-0.211646	-0.838062	0.364616
41242	-9.140337	-6.041862	-2.175001	-0.344302	-0.199518	-0.841316	0.365836
41243	-7.604601	-5.437092	-1.037360	-0.343104	-0.184490	-0.847407	0.360756
41244	-5.273972	-7.450845	-2.770590	-0.342308	-0.167263	-0.856349	0.348590
41245	-4.187440	-9.948604	-4.937223	-0.341119	-0.150769	-0.865348	0.334781
41246	-3.990685	-9.683319	-5.607665	-0.338225	-0.137544	-0.872113	0.325738
41247	-4.263957	-6.158739	-3.669290	-0.334578	-0.125559	-0.877827	0.318924
41248	-4.517850	-4.814729	-2.625647	-0.332065	-0.110227	-0.885475	0.305806
41249	-3.570211	-7.733710	-5.441538	-0.331023	-0.090729	-0.895565	0.283116
41250	-3.111817	-10.764691	-8.434474	-0.329660	-0.070834	-0.905303	0.258329
41251	-3.891839	-8.831233	-8.600957	-0.326988	-0.053862	-0.912439	0.240067
41252	-5.302535	-4.669564	-8.694863	-0.324453	-0.036318	-0.918577	0.222774
41253	-5.695609	-3.906254	-10.234761	-0.322086	-0.017514	-0.924294	0.204044
41254	-7.428296	-3.101902	-8.971114	-0.320020	0.000179	-0.928769	0.187018
41255	-9.111282	-3.389706	-8.741644	-0.319265	0.016356	-0.932365	0.168812
41256	-9.324265	-4.634244	-8.292723	-0.319966	0.027884	-0.934388	0.154151
41257	-8.141742	-5.113360	-8.590309	-0.321760	0.032508	-0.934522	0.148603
41258	-6.733071	-4.499523	-9.110226	-0.324643	0.029810	-0.932841	0.153383
41259	-6.336579	-2.599231	-8.485452	-0.328511	0.021370	-0.929830	0.164438
41260	-7.263864	-1.751479	-8.399623	-0.333285	0.008879	-0.925548	0.179451
41261	-7.473971	-1.875608	-8.026741	-0.338537	-0.006333	-0.919980	0.197456
41262	-6.924060	-2.888585	-6.519659	-0.343164	-0.024128	-0.913411	0.217569
41263	-7.364204	-5.364783	-5.607321	-0.346356	-0.046134	-0.904945	0.242866
41264	-6.263743	-5.255664	-3.037930	-0.347623	-0.072672	-0.894512	0.271523
41265	-6.147807	-5.662141	-3.485719	-0.347870	-0.103734	-0.881170	0.302927
41266	-6.094306	-6.030759	-5.112645	-0.348572	-0.137455	-0.864996	0.333746
41267	-5.632918	-7.551919	-7.095020	-0.346589	-0.175036	-0.846030	0.365336
41268	-4.110131	-4.697102	-7.910332	-0.340478	-0.216684	-0.823900	0.397884
41269	-8.385517	1.068517	-1.223837	-0.330895	-0.259630	-0.796054	0.435200
41270	-9.934722	14.586588	0.437747	-0.336033	-0.285781	-0.783297	0.438016
41271	-6.808278	-6.633305	-7.134057	-0.360188	-0.293802	-0.788624	0.402513
41272	-0.909387	-20.799009	-10.053683	-0.377320	-0.313514	-0.773367	0.401550
41273	7.057046	-5.220337	-6.429288	-0.384675	-0.347596	-0.740281	0.428002
41274	2.830810	-0.864358	-6.839092	-0.393313	-0.379345	-0.710671	0.443113
41275	-3.600147	-10.891504	-13.040369	-0.394479	-0.413447	-0.681300	0.457469
41276	-4.249414	-10.374925	-6.170452	-0.378319	-0.454742	-0.641823	0.488004
41277	-1.022103	1.945134	1.309735	-0.361380	-0.486975	-0.607686	0.512813
41278	-5.815842	1.151499	3.177448	-0.351772	-0.505861	-0.589857	0.521948
41279	-19.523103	6.231624	5.137814	-0.342176	-0.517231	-0.581148	0.526930
41280	-17.064333	9.106257	5.137461	-0.345983	-0.516027	-0.588951	0.516864
41281	-11.026835	-2.917624	-5.009603	-0.354840	-0.513256	-0.599589	0.501149
41282	-5.860266	-8.531290	-6.190193	-0.355875	-0.520898	-0.597113	0.495454
41283	-4.127305	-12.138944	-5.456776	-0.347241	-0.536941	-0.582728	0.501543
41284	-16.220954	-8.634246	-0.920251	-0.329026	-0.555147	-0.564627	0.514538
41285	-21.612170	15.716812	3.334604	-0.318719	-0.562717	-0.557308	0.520746
41286	-8.099986	-2.999666	-6.633531	-0.325981	-0.561520	-0.564772	0.509376
41287	-3.944008	-3.862037	-6.498994	-0.324328	-0.564618	-0.563744	0.508143
41288	-6.267214	-0.203253	-5.006657	-0.321023	-0.567707	-0.562302	0.508398
41289	-14.095300	1.137026	-3.863126	-0.320009	-0.568710	-0.562517	0.507678
41290	-13.391760	0.871133	-3.533746	-0.320651	-0.566809	-0.564717	0.506957
41291	-9.737430	2.640357	-4.488453	-0.322665	-0.562907	-0.568449	0.505854
41292	-8.386792	1.022843	-4.663321	-0.324365	-0.558205	-0.572337	0.505594
41293	-8.732337	-0.494307	-3.761761	-0.326134	-0.552735	-0.576453	0.505789
41294	-9.670046	-3.372475	-3.621879	-0.330049	-0.546128	-0.581791	0.504313
41295	-9.319628	-6.033706	-2.903808	-0.333913	-0.540185	-0.586173	0.503094
41296	-8.496456	-6.477119	-2.722801	-0.336805	-0.535795	-0.588779	0.502817
41297	-8.896296	-5.391231	-2.777218	-0.338431	-0.533198	-0.589322	0.503849
41298	-8.838111	-3.497689	-2.376972	-0.339108	-0.531960	-0.588474	0.505691
41299	-8.278923	-1.355719	-2.048384	-0.337865	-0.531706	-0.586505	0.509066
41300	-8.799004	2.106788	-0.499252	-0.335763	-0.531086	-0.584873	0.512966
41301	-10.912151	4.545866	-0.667715	-0.336023	-0.527316	-0.587136	0.514099
41302	-9.773286	1.395315	-2.324490	-0.339643	-0.519883	-0.594168	0.511203
41303	-8.705606	-2.461090	-2.368690	-0.342160	-0.512196	-0.601472	0.508737
41304	-10.429264	0.452391	-1.417571	-0.342890	-0.504253	-0.608068	0.508339
41305	-10.752105	3.076152	-2.896767	-0.347264	-0.492544	-0.618664	0.504047
41306	-9.052068	0.081325	-3.108557	-0.353138	-0.478499	-0.631528	0.497499
41307	-9.572175	0.710419	-3.657833	-0.358947	-0.461843	-0.646051	0.490384
41308	-9.738059	0.238268	-4.068930	-0.367415	-0.438885	-0.666771	0.477286
41309	-9.958242	-5.434756	-3.905353	-0.374320	-0.410527	-0.690722	0.462877
41310	-11.334162	-6.473419	-0.970968	-0.378363	-0.374754	-0.718091	0.448048
41311	-8.194701	-7.904140	-1.214189	-0.381975	-0.326977	-0.752745	0.424919
41312	-4.781352	-7.210620	-0.972761	-0.385225	-0.267622	-0.792427	0.389921
41313	-2.698027	-6.608371	-3.369374	-0.387635	-0.200094	-0.831810	0.343210
41314	-0.633846	-6.588897	-5.731028	-0.386813	-0.131012	-0.864961	0.291641
41315	-0.168903	-5.366116	-7.432617	-0.383545	-0.063723	-0.890161	0.237584
41316	-0.955124	-4.987379	-7.607520	-0.377736	-0.001523	-0.906732	0.187485
41317	-3.485704	-5.098648	-5.387018	-0.370041	0.052905	-0.916011	0.145581
41318	-3.661184	-3.852939	-4.409171	-0.360965	0.098425	-0.920630	0.111606
41319	-3.804912	-1.181460	-3.313621	-0.350972	0.135261	-0.922924	0.082064
41320	-3.844092	-0.023423	-5.462451	-0.339844	0.163577	-0.924517	0.054928
41321	-5.331218	-0.042619	-7.169058	-0.327930	0.182875	-0.926224	0.033600
41322	-7.169616	-0.846509	-7.268528	-0.316209	0.192979	-0.928618	0.020957
41323	-7.919435	1.047228	-7.567966	-0.306214	0.194966	-0.931620	0.017461
41324	-8.271192	1.090633	-9.728149	-0.296788	0.192242	-0.935245	0.016654
41325	-9.186798	-1.513501	-11.605422	-0.288997	0.185139	-0.938983	0.022690
41326	-9.454310	-1.216297	-11.813304	-0.283297	0.176413	-0.942025	0.034799
41327	-9.568189	0.497053	-10.459063	-0.278521	0.170337	-0.944122	0.045212
41328	-8.581971	0.437253	-11.825408	-0.274376	0.169257	-0.945494	0.045944
41329	-6.983238	-2.833174	-12.914581	-0.271675	0.170112	-0.946273	0.042685
41330	-6.667224	-3.405494	-12.590173	-0.271629	0.169737	-0.946378	0.042134
41331	-6.789718	-3.140024	-11.961723	-0.273806	0.167858	-0.946042	0.043109
41332	-6.845639	-3.852214	-11.266212	-0.278089	0.164232	-0.945273	0.046403
41333	-7.469356	-3.850722	-9.484673	-0.283595	0.159647	-0.944187	0.050964
41334	-9.337713	-4.409431	-7.516267	-0.289289	0.154457	-0.943053	0.055732
41335	-11.101078	-5.694331	-6.904221	-0.294827	0.148668	-0.941972	0.060520
41336	-10.901382	-6.703353	-6.056491	-0.300163	0.141499	-0.940856	0.068334
41337	-9.778271	-7.639108	-6.711967	-0.304700	0.132548	-0.939886	0.078765
41338	-7.784397	-7.799844	-6.878624	-0.308485	0.120716	-0.938962	0.092823
41339	-6.822599	-6.109986	-5.437842	-0.310296	0.104966	-0.938258	0.111224
41340	-7.256529	-2.966617	-5.066382	-0.311539	0.086625	-0.937080	0.131607
41341	-6.189397	-1.150004	-6.043370	-0.312541	0.067761	-0.935576	0.149745
41342	-3.658568	-0.936982	-8.167892	-0.314553	0.049836	-0.933828	0.162905
41343	-0.730659	-3.346548	-9.728549	-0.316263	0.030881	-0.931998	0.174369
41344	-1.897762	-4.734924	-1.591324	-0.323131	0.007780	-0.926299	0.193639
41345	-1.608366	-2.909676	-1.207024	-0.338307	-0.018484	-0.915931	0.215120
41346	-1.188902	-3.127732	-2.965174	-0.358618	-0.045789	-0.901817	0.236691
41347	-3.938264	-3.300339	-3.629961	-0.383209	-0.069980	-0.884709	0.256015
41348	-3.520932	-2.560182	-3.897427	-0.409889	-0.089284	-0.865383	0.274103
41349	-2.489374	0.764679	-5.500262	-0.436470	-0.101271	-0.846971	0.286143
41350	-2.130974	1.159614	-8.640954	-0.457969	-0.103497	-0.836144	0.283577
41351	-6.908445	-7.776000	-10.255502	-0.473114	-0.095985	-0.832269	0.272543
41352	-2.093550	-8.792154	-8.503677	-0.479929	-0.092338	-0.828438	0.273555
41353	-1.441667	-2.117636	-7.348240	-0.480900	-0.090162	-0.828448	0.272543
41354	-3.179049	-2.068701	-10.528309	-0.475697	-0.085778	-0.836117	0.259352
41355	-7.933181	-4.796447	-0.541061	-0.469249	-0.085210	-0.842614	0.250095
41356	-5.033440	0.281523	-0.677254	-0.467436	-0.086352	-0.845243	0.244154
41357	-7.951684	2.926934	-5.821283	-0.463843	-0.089773	-0.850221	0.232195
41358	-14.566912	0.429303	-2.531172	-0.460172	-0.098927	-0.853402	0.223965
41359	-7.119643	-2.517249	-3.729797	-0.457371	-0.107562	-0.856622	0.213170
41360	-10.142591	-11.324538	-4.210031	-0.451690	-0.115621	-0.859663	0.208775
41361	-12.247816	-2.141135	-4.103541	-0.443655	-0.119415	-0.862317	0.212883
41362	-6.230181	5.429766	-5.558707	-0.438726	-0.110932	-0.869944	0.195987
41363	-9.387341	-3.876939	-8.476667	-0.435118	-0.102379	-0.878547	0.168365
41364	-11.161133	-12.781936	-10.860032	-0.430211	-0.104579	-0.882162	0.160536
41365	-7.471469	-3.634474	-7.814972	-0.423848	-0.113365	-0.882646	0.168635
41366	-5.039189	1.764187	-6.158675	-0.418758	-0.118724	-0.884057	0.170262
41367	-7.535388	0.966374	-5.897595	-0.415329	-0.119778	-0.886784	0.163613
41368	-9.008976	0.296898	-7.713974	-0.412868	-0.119863	-0.889240	0.156284
41369	-9.814742	0.470260	-7.744465	-0.410671	-0.119542	-0.891231	0.150881
41370	-9.062729	0.880271	-7.192696	-0.409023	-0.117647	-0.893041	0.146074
41371	-6.399539	0.807911	-7.693507	-0.408071	-0.113375	-0.894863	0.140867
41372	-7.134297	2.011684	-7.566826	-0.407540	-0.107682	-0.896465	0.136623
41373	-7.541784	2.474962	-7.029158	-0.408059	-0.099939	-0.898063	0.130320
41374	-7.753231	-1.738260	-7.742767	-0.409096	-0.092154	-0.899369	0.123630
41375	-8.579501	-3.100097	-6.902948	-0.409636	-0.086309	-0.899934	0.121931
41376	-7.316632	-2.733520	-6.289797	-0.409938	-0.081160	-0.900521	0.120107
41377	-7.466777	-4.447013	-6.009655	-0.409800	-0.077122	-0.901210	0.118053
41378	-6.876861	-2.813728	-5.889986	-0.409249	-0.074570	-0.901688	0.117954
41379	-7.342409	-1.958794	-5.868463	-0.408691	-0.072507	-0.902231	0.117022
41380	-7.025567	-3.543635	-5.792121	-0.407810	-0.071255	-0.902747	0.116882
41381	-7.581185	-2.778985	-5.693327	-0.406130	-0.071576	-0.903225	0.118827
41382	-7.770752	-1.739896	-5.516403	-0.404007	-0.072511	-0.903825	0.120921
41383	-6.725958	-0.550755	-6.158630	-0.401776	-0.073234	-0.904496	0.122878
41384	-7.409890	-1.189967	-6.220792	-0.399671	-0.073248	-0.905420	0.122935
41385	-7.582798	-3.148374	-6.133608	-0.397430	-0.074092	-0.906189	0.124022
41386	-7.086862	-3.844367	-6.563264	-0.395128	-0.076099	-0.906752	0.126027
41387	-7.533437	-4.279761	-7.222009	-0.393117	-0.079300	-0.907103	0.127805
41388	-7.115162	-4.186669	-8.279785	-0.391739	-0.083923	-0.906982	0.129926
41389	-6.454796	-4.148635	-8.714008	-0.391146	-0.090258	-0.906267	0.132431
41390	-6.887004	-3.778589	-8.737566	-0.391364	-0.098591	-0.904724	0.136341
41391	-7.019834	-2.859970	-9.220872	-0.392608	-0.108003	-0.902385	0.141055
41392	-7.423178	-3.445662	-9.113748	-0.394536	-0.118437	-0.899431	0.146077
41393	-8.486044	-2.284624	-8.314634	-0.396737	-0.131105	-0.895268	0.154614
41394	-8.334578	0.781206	-5.308403	-0.399260	-0.146126	-0.890160	0.163875
41395	-7.454476	-0.886909	-5.298296	-0.401251	-0.162812	-0.884487	0.173702
41396	-5.942811	-1.351097	-4.372693	-0.401519	-0.178597	-0.878810	0.185951
41397	-4.973953	0.040475	-3.119055	-0.399341	-0.190314	-0.874289	0.199816
41398	-6.494145	6.356267	-2.536172	-0.397125	-0.194869	-0.872390	0.207973
41399	-10.502858	5.951656	-3.720902	-0.398135	-0.191655	-0.874141	0.201579
41400	-8.966178	-1.132149	-6.797298	-0.399550	-0.187130	-0.876210	0.193900
41401	-5.469424	-1.701538	-6.543281	-0.398106	-0.184712	-0.876966	0.195764
41402	-6.457059	0.568450	-6.135760	-0.395771	-0.182064	-0.877457	0.200716
41403	-7.897995	-0.263415	-5.612653	-0.394524	-0.177420	-0.878736	0.201734
41404	-7.510833	-3.977349	-6.318708	-0.394007	-0.172472	-0.880185	0.200715
41405	-6.775812	-4.638514	-6.703981	-0.393429	-0.168915	-0.881043	0.201105
41406	-7.073222	-4.003785	-6.399069	-0.393220	-0.166295	-0.881576	0.201367
41407	-7.454979	-4.082490	-6.853236	-0.393851	-0.163891	-0.882109	0.199759
41408	-6.824847	-5.411417	-7.247213	-0.394617	-0.163033	-0.882157	0.198736
41409	-7.191017	-3.670530	-6.243476	-0.394780	-0.164313	-0.881280	0.201236
41410	-7.138198	-1.935072	-5.380670	-0.395169	-0.165328	-0.880646	0.202412
41411	-7.414546	-1.842374	-5.525356	-0.395879	-0.165567	-0.880427	0.201783
41412	-7.313351	-2.603946	-5.724297	-0.396546	-0.165833	-0.880299	0.200810
41413	-7.344377	-2.321841	-5.772942	-0.397024	-0.166336	-0.880114	0.200259
41414	-7.433633	-1.926202	-5.830501	-0.397404	-0.166848	-0.879958	0.199763
41415	-7.427967	-1.549857	-6.206135	-0.398046	-0.167067	-0.879839	0.198826
41416	-7.486722	-1.825019	-6.463508	-0.399018	-0.166864	-0.879763	0.197379
41417	-7.661969	-2.160230	-7.110893	-0.400461	-0.166202	-0.879628	0.195606
41418	-7.621893	-2.702990	-7.356979	-0.402342	-0.165786	-0.879080	0.194563
41419	-7.728856	-3.381447	-7.727226	-0.404717	-0.165735	-0.878063	0.194272
41420	-7.908327	-2.627734	-7.837499	-0.407617	-0.166196	-0.876432	0.195178
41421	-7.662688	-2.138946	-7.873367	-0.411230	-0.166593	-0.874457	0.196117
41422	-8.249953	-1.615051	-7.143680	-0.415208	-0.167088	-0.872015	0.198177
41423	-9.037233	-0.292393	-7.021349	-0.420164	-0.167043	-0.869163	0.200286
41424	-8.818036	0.056387	-7.387959	-0.427197	-0.164743	-0.866414	0.199221
41425	-9.100868	0.232704	-7.633408	-0.437033	-0.159712	-0.863542	0.194393
41426	-8.615269	-1.178124	-8.531794	-0.448372	-0.153435	-0.860127	0.188684
41427	-7.536529	-2.594544	-8.407803	-0.460077	-0.147121	-0.855871	0.184848
41428	-7.806580	-2.611532	-7.605036	-0.471980	-0.141257	-0.850670	0.183420
41429	-8.224385	-1.556843	-6.519309	-0.484183	-0.135499	-0.844761	0.183263
41430	-8.536884	-1.495773	-5.900520	-0.496933	-0.129085	-0.838402	0.182968
41431	-8.097776	-1.520041	-4.878046	-0.509585	-0.122686	-0.831562	0.183782
41432	-7.263655	-0.540409	-5.001182	-0.522537	-0.115735	-0.824178	0.185177
41433	-6.392748	-1.058919	-4.492125	-0.535442	-0.108064	-0.816974	0.184869
41434	-7.131383	-3.173866	-3.513194	-0.547793	-0.101297	-0.809839	0.183909
41435	-8.131421	-2.995443	-2.608288	-0.559009	-0.095421	-0.803252	0.182179
41436	-7.778786	1.637496	-1.710193	-0.568131	-0.088506	-0.798206	0.179613
41437	-7.967661	8.860606	1.879110	-0.575854	-0.071608	-0.797102	0.167010
41438	-7.951838	3.669585	1.637943	-0.583330	-0.037357	-0.800422	0.132870
41439	-8.522835	-11.586228	-0.247531	-0.589291	-0.005992	-0.801388	0.102361
41440	-8.416058	-15.534823	2.372751	-0.595221	0.000238	-0.797330	0.099882
41441	-6.645417	-7.520243	0.558400	-0.598360	-0.009421	-0.793212	0.112656
41442	-8.871045	-0.895706	3.264488	-0.599559	-0.017614	-0.790721	0.122385
41443	-7.953489	-0.564441	1.382062	-0.600288	-0.015486	-0.791009	0.117131
41444	-8.923243	-6.127454	-2.857422	-0.600155	-0.011229	-0.792634	0.106859
41445	-9.784858	-7.775297	-5.417415	-0.599505	-0.015425	-0.793181	0.105919
41446	-9.688334	-4.088342	-4.523200	-0.598584	-0.027592	-0.792364	0.114433
41447	-9.810568	2.218250	-1.903413	-0.597446	-0.039862	-0.791218	0.124271
41448	-10.299075	5.174260	-0.058851	-0.596438	-0.044773	-0.791369	0.126463
41449	-9.999353	3.138927	-3.612463	-0.596162	-0.041376	-0.792829	0.119583
41450	-9.796916	-0.780449	-4.522088	-0.595663	-0.037518	-0.794259	0.113717
41451	-10.570304	-1.826819	-5.044823	-0.594974	-0.037017	-0.794806	0.113666
41452	-9.811149	-0.335612	-3.170564	-0.594554	-0.038063	-0.794602	0.116893
41453	-9.201119	1.108831	-1.173840	-0.594321	-0.037083	-0.794640	0.118128
41454	-9.375377	0.757464	-1.865270	-0.594367	-0.032622	-0.795160	0.115689
41455	-8.670873	-0.887330	-2.484270	-0.594268	-0.027473	-0.795864	0.112659
41456	-9.226565	-1.406933	-2.608126	-0.594066	-0.022835	-0.796452	0.110582
41457	-9.639329	-0.649791	-2.497446	-0.593774	-0.017519	-0.797145	0.108098
41458	-9.296942	-0.657980	-2.355668	-0.593439	-0.010789	-0.798053	0.104046
41459	-9.588621	-0.762629	-1.207080	-0.592968	-0.003373	-0.799024	0.099686
41460	-9.241203	0.130594	-0.254606	-0.592078	0.004696	-0.800256	0.094929
41461	-9.609463	-0.656971	0.295221	-0.590185	0.014003	-0.802254	0.088740
41462	-9.830965	-0.787357	1.237769	-0.586901	0.022371	-0.804981	0.083973
41463	-10.417141	-0.561051	2.179840	-0.581826	0.029310	-0.808744	0.080952
41464	-11.455462	-0.030048	3.631143	-0.574476	0.035498	-0.813931	0.078956
41465	-13.423999	-1.194499	6.132455	-0.563453	0.041129	-0.821422	0.078073
41466	-17.867510	-0.574298	11.312745	-0.547381	0.045180	-0.831722	0.081065
41467	-22.797195	1.482122	12.976605	-0.524551	0.052275	-0.845751	0.082574
41468	-33.321721	3.626072	9.451453	-0.495757	0.063141	-0.862177	0.083003
41469	-34.439855	4.110991	2.509937	-0.466848	0.074996	-0.876817	0.087295
41470	-29.466701	5.240423	-5.096495	-0.442285	0.091137	-0.887937	0.087440
41471	-22.242352	5.305695	-8.918103	-0.425878	0.113188	-0.894265	0.078138
41472	-14.470832	6.219107	-22.687973	-0.405811	0.143315	-0.901275	0.049809
41473	-19.099771	3.095024	-14.164457	-0.387722	0.172420	-0.905120	0.026480
41474	-21.336536	6.296884	-17.547969	-0.374949	0.207517	-0.903370	-0.016526
41475	-16.307712	-8.134879	-22.098506	-0.363867	0.241273	-0.897131	-0.067413
41476	-11.937921	-20.520407	-22.123034	-0.368256	0.255733	-0.890897	-0.072742
41477	-14.025772	-4.387846	-16.964905	-0.386987	0.256109	-0.884614	-0.045910
41478	-13.420523	7.603273	-12.220462	-0.406897	0.264783	-0.873460	-0.037322
41479	-10.945070	2.183902	-15.107511	-0.423546	0.288196	-0.857035	-0.055159
41480	-9.758659	-4.638498	-16.447641	-0.443241	0.314373	-0.836423	-0.071436
41481	-8.734394	-6.533999	-15.279126	-0.469307	0.336788	-0.812789	-0.075494
41482	-6.043019	-6.957835	-14.049358	-0.501992	0.353330	-0.786652	-0.065879
41483	-4.876179	-3.020725	-11.480540	-0.540529	0.364583	-0.756910	-0.044651
41484	-5.550960	0.679693	-8.017045	-0.580421	0.377868	-0.720986	-0.022504
41485	-3.053060	1.998186	-5.628296	-0.618529	0.397119	-0.678013	-0.003996
41486	-0.273333	1.959860	-5.695808	-0.653952	0.421511	-0.628109	0.012384
41487	0.796194	1.191587	-5.192464	-0.687599	0.446772	-0.571562	0.030331
41488	2.361333	-0.378691	-5.197176	-0.720834	0.468073	-0.508602	0.051279
41489	5.083094	2.311577	-4.732008	-0.753919	0.482426	-0.439545	0.075311
41490	5.380772	4.217318	-5.328361	-0.782111	0.495516	-0.365152	0.097113
41491	3.553425	7.252386	-6.101006	-0.803952	0.508338	-0.286017	0.115964
41492	-0.385583	10.475735	-7.733498	-0.814428	0.526855	-0.205183	0.130500
41493	-8.791676	10.526850	-6.341758	-0.805485	0.562128	-0.126520	0.138559
41494	-9.797818	5.646994	-11.119275	-0.773336	0.615176	-0.053692	0.143625
41495	-4.972135	-3.292823	-12.890016	-0.725528	0.672084	0.008710	0.147773
41496	-4.560792	-13.715418	-11.096535	-0.681741	0.714715	0.058525	0.144868
41497	-6.179030	-14.464658	-7.064591	-0.651319	0.741672	0.094320	0.129653
41498	-4.449760	-18.443962	-0.063831	-0.638270	0.753690	0.115521	0.105916
41499	3.864398	-9.334888	3.808677	-0.648688	0.745687	0.127574	0.082945
41500	3.094994	-2.624391	0.095286	-0.677772	0.720046	0.131823	0.069142
41501	1.444360	1.690605	1.843621	-0.707713	0.691064	0.131302	0.065832
41502	1.185259	1.642879	4.850087	-0.722627	0.675447	0.127275	0.073363
41503	2.140531	3.011766	6.150104	-0.719638	0.678259	0.119681	0.088104
41504	1.635742	-3.702382	2.396886	-0.701232	0.696584	0.109775	0.104853
41505	-0.010072	-10.956028	-2.169664	-0.683926	0.713117	0.099208	0.117762
41506	-0.434648	-9.630718	-3.112862	-0.676736	0.719999	0.090894	0.123970
41507	0.245562	-8.701998	-3.914423	-0.677433	0.719725	0.084967	0.125941
41508	1.542357	-8.360716	-2.628074	-0.686252	0.711960	0.081873	0.124370
41509	2.810478	-5.000713	-0.491731	-0.696991	0.702305	0.078849	0.121469
41510	3.347813	-4.141289	0.428613	-0.703031	0.697360	0.072506	0.119077
41511	2.096102	-5.396545	0.524337	-0.704810	0.696861	0.060223	0.118323
41512	0.348700	-8.721231	-1.437139	-0.707322	0.695658	0.041025	0.118625
41513	-2.913153	-9.060302	-1.105204	-0.718675	0.684802	0.016212	0.119538
41514	-5.045531	-8.360395	-2.712266	-0.737405	0.664156	-0.014531	0.122148
41515	-6.865698	-4.363879	-2.699308	-0.757898	0.637846	-0.051634	0.126793
41516	-7.685615	-2.367008	-2.968697	-0.772086	0.614092	-0.095085	0.133162
41517	-6.282336	-3.787038	-4.480423	-0.776879	0.596986	-0.143875	0.139162
41518	-5.240043	-7.171047	-6.426292	-0.776918	0.580849	-0.196270	0.143146
41519	-4.036116	-8.214229	-5.687755	-0.775057	0.561735	-0.250409	0.145036
41520	-2.437027	-5.690231	-4.243167	-0.771066	0.539290	-0.304930	0.147110
41521	-1.639650	-3.108157	-3.476043	-0.761374	0.518760	-0.359866	0.147289
41522	-0.845399	-3.977142	-2.462059	-0.744619	0.502099	-0.416252	0.142032
41523	-0.053777	-4.751191	-1.471843	-0.724449	0.484273	-0.472277	0.132698
41524	1.445720	-3.782019	-0.808336	-0.700211	0.467013	-0.526994	0.117817
41525	1.736087	-3.880289	-0.324501	-0.673078	0.449134	-0.579202	0.098839
41526	1.439151	-7.099130	-1.155837	-0.644036	0.429806	-0.628312	0.075563
41527	1.026941	-7.272411	-1.575121	-0.618125	0.402242	-0.673135	0.054887
41528	0.791403	-3.992803	-1.807481	-0.594807	0.368958	-0.713246	0.036803
41529	0.085608	-3.438361	-3.296386	-0.572796	0.334656	-0.748052	0.018111
41530	-2.006987	-3.672694	-4.338824	-0.554154	0.298389	-0.777092	0.002259
41531	-3.472458	-1.323820	-5.211170	-0.540122	0.260412	-0.800241	-0.008280
41532	-4.436375	0.473910	-5.703088	-0.530276	0.223909	-0.817571	-0.015781
41533	-6.827078	0.944538	-6.111509	-0.525005	0.190042	-0.829364	-0.020215
41534	-11.195747	0.947215	-5.475783	-0.524837	0.159156	-0.835944	-0.020331
41535	-15.803038	-0.477747	-4.401831	-0.529197	0.133376	-0.837789	-0.016441
41536	-19.993610	-0.562161	-4.211704	-0.538138	0.111690	-0.835376	-0.008902
41537	-21.482207	-0.266338	-3.474371	-0.551120	0.093665	-0.829152	0.000519
41538	-20.284094	-0.690608	-2.772619	-0.566908	0.080208	-0.819822	0.008633
41539	-18.897620	-1.318014	-2.616832	-0.584387	0.071246	-0.808240	0.012820
41540	-18.391958	-3.541671	-3.087183	-0.602957	0.064374	-0.795002	0.016454
41541	-19.591505	-2.326994	-3.824244	-0.622076	0.055646	-0.780563	0.025407
41542	-20.182438	-0.946006	-1.038834	-0.640572	0.048255	-0.765583	0.034958
41543	-19.029469	-0.172126	-0.179597	-0.657904	0.044088	-0.750647	0.041797
41544	-17.434936	-1.273699	1.353105	-0.673579	0.043177	-0.736368	0.046785
41545	-16.356373	-1.071131	1.176508	-0.687705	0.045592	-0.722805	0.050356
41546	-15.441998	-1.346203	2.126876	-0.700206	0.050997	-0.710185	0.052416
41547	-15.054611	-1.261155	2.134253	-0.711257	0.059101	-0.698457	0.052702
41548	-16.038464	-3.039373	2.815576	-0.720672	0.068032	-0.687966	0.052017
41549	-15.167835	-3.236852	3.646443	-0.728598	0.075014	-0.678852	0.051739
41550	-13.060802	-3.418337	2.513068	-0.735335	0.080499	-0.671053	0.049910
41551	-11.704873	-4.260227	1.406460	-0.741311	0.080653	-0.664434	0.049801
41552	-9.797506	-2.656891	-0.018286	-0.747005	0.074631	-0.658424	0.053771
41553	-7.890008	-1.614231	-1.777666	-0.751589	0.064431	-0.653589	0.061510
41554	-7.927636	-0.702342	-0.837988	-0.755942	0.053014	-0.648573	0.071374
41555	-12.076875	-0.789503	5.426535	-0.762100	0.041003	-0.641034	0.081226
41556	-11.857629	3.324979	8.355094	-0.770858	0.026519	-0.630051	0.090062
41557	-9.241355	2.004357	4.101912	-0.776244	0.008003	-0.622364	0.100224
41558	-11.247654	6.790071	7.740753	-0.778150	-0.019969	-0.616699	0.117329
41559	-12.376248	10.752687	8.932816	-0.778495	-0.037684	-0.613679	0.126188
41560	-11.286371	10.307191	8.268460	-0.778715	-0.031639	-0.615567	0.116962
41561	-9.793129	3.373565	2.433770	-0.778525	-0.005877	-0.620641	0.093108
41562	-9.348798	-4.823678	-2.380214	-0.777707	0.025633	-0.624726	0.065055
41563	-9.253049	-12.096000	-3.639507	-0.776475	0.042881	-0.626821	0.048413
41564	-10.442234	-7.538833	-2.124818	-0.775975	0.038244	-0.627748	0.048298
41565	-11.772315	-1.632413	0.219310	-0.775660	0.027682	-0.628360	0.052425
41566	-10.354657	0.863743	1.044800	-0.775542	0.020719	-0.628619	0.054246
41567	-9.670362	1.141323	1.698230	-0.775249	0.016609	-0.629105	0.054224
41568	-9.238198	1.911777	2.488863	-0.775164	0.017211	-0.629510	0.050412
41569	-9.277884	0.032973	1.785497	-0.774927	0.023023	-0.630214	0.042302
41570	-10.184934	-2.927607	0.648187	-0.774688	0.025968	-0.630741	0.036740
41571	-9.744937	-1.113948	0.856093	-0.774564	0.023111	-0.631032	0.036267
41572	-9.514036	1.274751	2.232865	-0.774634	0.018468	-0.631010	0.037788
41573	-9.343185	1.600025	3.321496	-0.774725	0.014934	-0.630919	0.038972
41574	-8.687223	1.762556	3.832379	-0.774863	0.012770	-0.630776	0.039312
41575	-9.267200	0.689191	2.138788	-0.774199	0.011908	-0.631649	0.038654
41576	-10.957883	-3.440608	0.373576	-0.772896	0.009424	-0.633212	0.039812
41577	-10.038928	-2.005485	1.615888	-0.771728	0.001921	-0.634309	0.045655
41578	-9.648683	0.630771	2.557225	-0.770540	-0.001459	-0.635535	0.048592
41579	-9.390541	0.104541	1.449705	-0.769437	0.000004	-0.636936	0.047740
41580	-9.828226	-0.880458	0.521801	-0.768333	-0.000643	-0.638167	0.049051
41581	-9.620840	-0.519781	0.453767	-0.767342	-0.005084	-0.638979	0.053530
41582	-9.716131	0.050821	1.039770	-0.766489	-0.010986	-0.639412	0.059380
41583	-9.666191	-0.168175	1.965430	-0.765716	-0.015502	-0.639744	0.064557
41584	-9.790687	-0.682402	1.734858	-0.764856	-0.018507	-0.640222	0.069049
41585	-9.686215	-0.367152	1.212843	-0.763908	-0.021662	-0.640698	0.074037
41586	-9.691942	-0.549258	0.835920	-0.762759	-0.027118	-0.640972	0.081351
41587	-9.670936	0.549198	1.920767	-0.761334	-0.036221	-0.640792	0.091889
41588	-9.313159	1.351692	3.356788	-0.759882	-0.043957	-0.640571	0.101567
41589	-9.301434	0.789753	3.198162	-0.758373	-0.047578	-0.641044	0.108025
41590	-9.871270	-1.396227	1.862000	-0.756780	-0.048091	-0.642154	0.112293
41591	-9.808981	-1.983759	0.798019	-0.754937	-0.050904	-0.642945	0.118743
41592	-9.671503	-0.220694	0.957181	-0.753040	-0.055232	-0.643297	0.126683
41593	-9.686036	0.348064	1.097393	-0.751481	-0.057713	-0.643582	0.133218
41594	-9.760924	-0.875140	0.879990	-0.750263	-0.058687	-0.643726	0.138849
41595	-9.755471	-1.284326	1.323375	-0.749146	-0.060084	-0.643496	0.145197
41596	-9.665032	-1.373607	1.448583	-0.748026	-0.061311	-0.643201	0.151629
41597	-9.685261	-1.615487	0.962460	-0.746831	-0.063415	-0.642595	0.159041
41598	-9.773362	-0.947821	0.748774	-0.745642	-0.066478	-0.641450	0.167751
41599	-9.702505	-0.053757	1.035824	-0.744610	-0.069511	-0.639873	0.176882
41600	-9.694666	0.107225	1.402427	-0.743744	-0.071645	-0.638148	0.185683
41601	-9.796636	-0.842390	0.839394	-0.743087	-0.072794	-0.636271	0.194120
41602	-9.817359	-1.468878	0.703581	-0.742634	-0.074819	-0.633494	0.203916
41603	-9.800857	-1.309121	0.373066	-0.742586	-0.076650	-0.629980	0.214047
41604	-9.854654	-1.918206	0.057582	-0.742700	-0.077346	-0.626488	0.223445
41605	-9.860368	-2.202113	-0.159756	-0.742915	-0.078881	-0.622426	0.233325
41606	-10.548435	-2.696334	-0.318018	-0.742920	-0.081409	-0.618133	0.243626
41607	-11.235319	-5.554168	-1.072152	-0.743001	-0.083883	-0.613442	0.254171
41608	-11.059971	-7.762739	-2.270921	-0.742403	-0.090590	-0.607137	0.268357
41609	-11.908865	-7.556878	-1.851731	-0.740568	-0.104409	-0.598036	0.288114
41610	-11.686335	-5.059829	-0.862963	-0.737502	-0.122765	-0.586845	0.310857
41611	-11.132392	-3.099659	0.693857	-0.733508	-0.142015	-0.575010	0.333409
41612	-10.365332	-2.821963	1.323280	-0.728543	-0.160985	-0.563345	0.354896
41613	-9.536406	-3.145107	1.619186	-0.721733	-0.182545	-0.550869	0.377256
41614	-7.987116	-0.811043	0.407694	-0.712108	-0.207113	-0.538848	0.399561
41615	-8.963904	-2.335085	-0.781416	-0.698426	-0.232790	-0.530074	0.420751
41616	-8.322281	-1.167638	-0.875675	-0.681319	-0.259126	-0.523772	0.440818
41617	-8.195195	1.048024	-0.611014	-0.664543	-0.280571	-0.522190	0.454951
41618	-8.795766	0.548809	-1.460155	-0.649707	-0.294807	-0.526648	0.462181
41619	-8.964899	-1.561004	-2.361539	-0.635757	-0.305461	-0.534390	0.465761
41620	-8.809298	-2.217943	-2.390737	-0.621243	-0.316240	-0.542236	0.469074
41621	-8.705378	-1.301942	-2.154473	-0.606213	-0.327316	-0.549906	0.472201
41622	-8.810653	-0.970748	-2.174796	-0.591593	-0.337094	-0.558519	0.473754
41623	-9.132889	-1.897030	-2.782505	-0.576719	-0.346773	-0.567267	0.474713
41624	-9.726895	-2.538241	-2.728154	-0.560881	-0.357847	-0.574587	0.476663
41625	-9.740855	-2.341933	-2.894897	-0.543906	-0.370606	-0.579830	0.480224
41626	-9.921920	-1.905298	-2.538208	-0.526054	-0.384745	-0.582861	0.485295
41627	-10.179833	-1.396921	-2.155561	-0.507979	-0.399269	-0.584207	0.491165
41628	-10.451143	-1.455272	-1.679176	-0.490464	-0.413262	-0.584470	0.497046
41629	-10.329699	-1.762793	-1.402113	-0.472989	-0.427054	-0.583325	0.503625
41630	-10.353801	-1.667231	-1.027321	-0.455325	-0.440595	-0.580828	0.511072
41631	-10.512295	-1.143613	-0.716602	-0.437867	-0.453377	-0.577398	0.518974
41632	-10.990297	-0.783373	-0.415790	-0.420712	-0.465194	-0.573270	0.527216
41633	-11.070001	-0.827924	-0.219283	-0.404563	-0.475646	-0.568763	0.535348
41634	-10.754053	-1.389238	-0.150175	-0.388926	-0.485528	-0.563324	0.543751
41635	-10.448089	-1.634125	-0.034698	-0.373149	-0.495456	-0.556037	0.553269
41636	-10.319128	-1.115483	0.353449	-0.356868	-0.505545	-0.546713	0.564069
41637	-10.302297	-0.287313	0.462333	-0.340950	-0.514922	-0.536094	0.575510
41638	-10.562144	0.249883	0.502153	-0.325771	-0.523184	-0.524521	0.587393
41639	-10.890352	0.631017	0.709285	-0.311129	-0.530268	-0.511825	0.600042
41640	-11.036609	0.966249	1.192099	-0.297451	-0.535989	-0.498294	0.613141
41641	-10.519983	0.904187	1.366662	-0.285226	-0.540221	-0.484451	0.626190
41642	-9.800954	0.616979	1.575888	-0.273749	-0.543682	-0.469735	0.639391
41643	-9.109093	1.337018	1.672329	-0.262525	-0.546667	-0.454190	0.652647
41644	-8.826550	1.633999	1.400335	-0.252734	-0.549020	-0.439750	0.664321
41645	-8.558694	1.218183	1.345739	-0.243149	-0.551832	-0.425490	0.674773
41646	-8.928556	1.051341	1.373140	-0.232949	-0.555820	-0.410107	0.684552
41647	-9.272117	2.711841	1.570650	-0.223377	-0.560540	-0.394306	0.693123
41648	-9.217343	3.391215	1.486794	-0.216650	-0.565052	-0.380835	0.699102
41649	-8.603757	3.045656	1.385276	-0.212920	-0.569509	-0.370108	0.702385
41650	-7.832088	3.219314	0.852997	-0.212330	-0.574455	-0.361805	0.702861
41651	-11.210631	1.118962	3.923849	-0.215070	-0.578531	-0.357311	0.700982
41652	-12.335614	-4.638185	5.388525	-0.222919	-0.576472	-0.361110	0.698274
41653	-6.824312	-7.830295	-1.381411	-0.235043	-0.573748	-0.370397	0.691646
41654	-9.520142	-11.761432	-0.709948	-0.242001	-0.575358	-0.375303	0.685235
41655	-17.538227	-0.655535	2.418587	-0.242601	-0.579449	-0.365394	0.686929
41656	-16.993207	7.695882	-1.244409	-0.254054	-0.581513	-0.363934	0.681800
41657	-9.445515	-0.546195	2.975167	-0.268830	-0.579230	-0.370326	0.674597
41658	-3.846096	-5.006696	0.144687	-0.280826	-0.579221	-0.374424	0.667418
41659	-9.582543	-4.067374	0.747218	-0.282626	-0.585358	-0.365887	0.666037
41660	-10.681111	1.476389	0.811709	-0.282513	-0.591778	-0.356528	0.665487
41661	-9.642272	1.128890	0.305884	-0.288231	-0.594776	-0.353475	0.661981
41662	-9.260225	-0.693408	0.181884	-0.295979	-0.596286	-0.352873	0.657510
41663	-9.807257	-0.418256	0.806759	-0.301776	-0.598414	-0.351132	0.653864
41664	-9.195637	0.653247	1.983172	-0.305585	-0.601603	-0.347992	0.650840
41665	-9.332956	1.770075	1.761691	-0.307271	-0.605884	-0.343734	0.648334
41666	-9.913416	1.780446	0.353017	-0.307026	-0.610810	-0.338791	0.646426
41667	-10.033067	0.426538	-0.221493	-0.304176	-0.616495	-0.332377	0.645706
41668	-9.806486	0.299088	0.079431	-0.298995	-0.622815	-0.324580	0.646028
41669	-9.695778	1.357777	0.919355	-0.294084	-0.628555	-0.317689	0.646148
41670	-9.592519	0.882167	0.548632	-0.291156	-0.633060	-0.313313	0.645212
41671	-9.624857	-0.100668	0.469763	-0.288881	-0.637123	-0.309842	0.643910
41672	-9.803407	-0.341187	0.283978	-0.286181	-0.641416	-0.306179	0.642604
41673	-9.716001	-0.186528	0.348891	-0.283704	-0.645556	-0.302841	0.641137
41674	-9.614385	-0.001014	0.236036	-0.281877	-0.649390	-0.300144	0.639337
41675	-9.765141	0.342448	0.045233	-0.281265	-0.652612	-0.298658	0.637017
41676	-9.870665	-0.232435	-0.709593	-0.281481	-0.655341	-0.298040	0.634405
41677	-9.877240	-0.859559	-1.001955	-0.279483	-0.658980	-0.295381	0.632759
41678	-9.771054	-0.019383	-0.437390	-0.275395	-0.663445	-0.290849	0.631985
41679	-9.842840	0.398305	-0.251842	-0.271290	-0.667873	-0.286443	0.631108
41680	-9.717637	0.517056	0.047195	-0.267725	-0.671978	-0.282819	0.629906
41681	-9.565323	0.855455	0.154055	-0.265087	-0.675639	-0.280385	0.628192
41682	-9.764087	0.795500	-0.137281	-0.263560	-0.678830	-0.279235	0.625903
41683	-9.775482	0.211063	-0.674727	-0.261438	-0.682213	-0.277783	0.623757
41684	-9.690116	0.484077	-0.681676	-0.257870	-0.686102	-0.275389	0.622036
41685	-9.719947	0.739463	-0.576970	-0.253592	-0.690219	-0.272756	0.620397
41686	-9.849591	0.556097	-0.587940	-0.249313	-0.694269	-0.270366	0.618657
41687	-9.779916	0.387211	-0.893813	-0.245142	-0.698213	-0.268274	0.616793
41688	-9.701169	-0.150311	-1.257259	-0.240947	-0.702126	-0.266206	0.614897
41689	-9.589677	0.242501	-0.945756	-0.236120	-0.706259	-0.263570	0.613169
41690	-9.685920	0.622827	-0.998479	-0.232358	-0.709970	-0.261779	0.611084
41691	-9.771771	0.716096	-1.356711	-0.229625	-0.713222	-0.260847	0.608724
41692	-9.739625	0.331521	-1.476332	-0.227233	-0.716277	-0.260270	0.606277
41693	-9.595550	0.239364	-1.013400	-0.224351	-0.719526	-0.259369	0.603885
41694	-9.540812	0.445991	-0.696538	-0.221921	-0.722713	-0.258978	0.601138
41695	-9.661395	0.339008	-0.842755	-0.220023	-0.725844	-0.259242	0.597941
41696	-9.778477	0.353908	-0.945931	-0.218616	-0.728871	-0.260103	0.594390
41697	-9.650132	0.183177	-1.045558	-0.217115	-0.732079	-0.261115	0.590542
41698	-9.482415	0.301338	-0.838006	-0.215107	-0.735617	-0.261952	0.586495
41699	-9.388998	0.327464	-1.064266	-0.213106	-0.739322	-0.262980	0.582091
41700	-9.645204	0.433076	-1.487757	-0.211068	-0.743128	-0.264263	0.577387
41701	-9.776114	0.491718	-1.988875	-0.208839	-0.746989	-0.265605	0.572579
41702	-9.782887	-0.100378	-2.497058	-0.206152	-0.750950	-0.266906	0.567747
41703	-9.697428	0.166882	-2.429886	-0.202514	-0.755115	-0.267581	0.563196
41704	-9.812078	0.117748	-2.665741	-0.198431	-0.759389	-0.268234	0.558573
41705	-9.660179	0.076555	-2.628172	-0.193359	-0.763921	-0.268379	0.554085
41706	-9.649943	0.254802	-2.391438	-0.187029	-0.768813	-0.267911	0.549701
41707	-10.129926	0.914332	-2.301408	-0.180509	-0.773680	-0.267877	0.545047
41708	-10.476177	0.704050	-2.429205	-0.174089	-0.778344	-0.268588	0.540125
41709	-10.932259	0.641326	-2.726671	-0.168181	-0.782723	-0.270171	0.534853
41710	-10.808950	0.101505	-2.691280	-0.162249	-0.786988	-0.272039	0.529453
41711	-10.990084	0.054836	-2.573326	-0.155913	-0.791324	-0.273918	0.523895
41712	-11.035812	-0.259307	-2.489858	-0.149803	-0.795573	-0.276200	0.518011
41713	-10.910147	-0.592315	-2.345372	-0.143955	-0.799751	-0.278930	0.511735
41714	-10.704399	-1.142829	-2.189023	-0.137807	-0.804050	-0.281670	0.505148
41715	-10.368709	-1.769800	-2.099182	-0.131418	-0.808522	-0.284232	0.498230
41716	-9.873606	-2.365636	-2.005183	-0.123947	-0.813418	-0.285837	0.491207
41717	-9.238633	-2.600214	-2.069567	-0.114992	-0.818793	-0.286142	0.484229
41718	-8.557120	-2.999019	-2.435212	-0.104471	-0.824648	-0.285222	0.477169
41719	-8.068859	-3.521209	-2.811458	-0.092185	-0.830960	-0.282892	0.470084
41720	-7.638033	-3.464887	-3.435840	-0.078112	-0.837777	-0.278863	0.462886
41721	-7.347839	-2.207758	-3.808461	-0.062509	-0.845098	-0.273062	0.455346
41722	-7.512206	-1.172451	-4.204251	-0.046629	-0.852781	-0.266157	0.446934
41723	-7.847220	-0.940521	-4.388480	-0.031309	-0.860573	-0.258584	0.437686
41724	-8.265951	-0.792189	-4.391622	-0.017592	-0.868353	-0.250978	0.427392
41725	-8.405908	-0.764049	-5.157519	-0.005379	-0.875683	-0.243615	0.416896
41726	-8.400566	-1.084730	-6.305220	0.005156	-0.882273	-0.236546	0.406957
41727	-7.956219	-1.139802	-7.287370	0.014556	-0.888124	-0.229316	0.398043
41728	-7.898489	-1.602742	-7.429955	0.023613	-0.893265	-0.221661	0.390367
41729	-7.773877	-2.110233	-7.714911	0.033922	-0.897251	-0.213463	0.384999
41730	-6.870601	-1.676495	-7.015453	0.046168	-0.899486	-0.204797	0.383213
41731	-6.998216	-0.817666	-4.758437	0.058789	-0.899874	-0.195804	0.385268
41732	-7.516412	-0.396429	-3.780289	0.068219	-0.898240	-0.188179	0.391279
41733	-6.957896	-0.504667	-3.784101	0.073418	-0.894828	-0.182623	0.400676
41734	-6.443779	-1.232019	-3.521442	0.074531	-0.889944	-0.179211	0.412708
41735	-6.758737	-1.867980	-4.051546	0.073011	-0.883499	-0.177773	0.427194
41736	-5.444218	-0.794862	-7.463455	0.067772	-0.877162	-0.178783	0.440489
41737	-7.623228	-2.762367	-8.772896	0.058675	-0.872677	-0.181437	0.449525
41738	-9.675578	-7.554749	-9.138699	0.055844	-0.867419	-0.182828	0.459391
41739	-6.987736	-4.572410	-5.326349	0.061314	-0.860882	-0.181294	0.471440
41740	-5.991792	-1.750561	-3.847679	0.064084	-0.853447	-0.180930	0.484547
41741	-6.827866	-0.206295	-3.668369	0.057947	-0.845920	-0.185052	0.496806
41742	-8.694193	-3.696331	-5.210058	0.046616	-0.838571	-0.191898	0.507741
41743	-9.341704	-5.491626	-5.285390	0.038028	-0.830963	-0.197435	0.518724
