// Start Time: Unknown
// Update Rate: 60.0Hz
// Filter Profile: human (46.1)
// Option Flags: AHS Disabled ICC Disabled 
// Firmware Version: 4.3.5
PacketCounter	Acc_X	Acc_Y	Acc_Z	Quat_q0	Quat_q1	Quat_q2	Quat_q3
34999	-3.581795	1.326334	9.189079	-0.832318	0.036178	-0.195078	-0.517574
35000	-3.517209	1.441666	9.208906	-0.831691	0.036275	-0.195498	-0.518416
35001	-3.466438	1.434303	9.220132	-0.831048	0.036905	-0.195701	-0.519324
35002	-3.500966	1.131106	9.114353	-0.830410	0.037422	-0.195924	-0.520224
35003	-3.450805	0.998296	9.056088	-0.829776	0.037410	-0.196386	-0.521061
35004	-3.574042	1.236885	8.994072	-0.829154	0.036976	-0.197111	-0.521809
35005	-3.666439	1.523522	9.047720	-0.828593	0.036784	-0.197650	-0.522508
35006	-3.720684	1.537750	9.201277	-0.828152	0.037016	-0.197898	-0.523097
35007	-3.778579	1.483192	9.187119	-0.827774	0.037572	-0.197916	-0.523649
35008	-3.700124	1.258292	9.210571	-0.827404	0.037928	-0.198012	-0.524170
35009	-3.748250	1.452487	9.320531	-0.827022	0.037499	-0.198472	-0.524630
35010	-3.859999	1.946340	9.398482	-0.826667	0.037160	-0.198723	-0.525119
35011	-3.730676	1.858503	9.383313	-0.826333	0.037513	-0.198374	-0.525751
35012	-3.593335	1.433964	9.470357	-0.825889	0.038489	-0.197666	-0.526645
35013	-3.573593	0.975072	9.542904	-0.825211	0.039456	-0.196998	-0.527884
35014	-3.502026	1.075268	9.485025	-0.824381	0.040044	-0.196559	-0.529298
35015	-3.384384	1.109771	9.317197	-0.823468	0.040683	-0.196151	-0.530821
35016	-3.488929	0.842756	9.073327	-0.822476	0.041272	-0.195886	-0.532409
35017	-3.606753	0.629229	9.022048	-0.821505	0.041044	-0.196013	-0.533876
35018	-3.664902	0.875896	9.059304	-0.820643	0.040096	-0.196508	-0.535091
35019	-3.703991	1.294478	9.007433	-0.820005	0.039533	-0.196611	-0.536071
35020	-3.701275	1.013043	8.903880	-0.819636	0.039598	-0.196173	-0.536791
35021	-3.639641	0.628719	9.032475	-0.819430	0.039874	-0.195587	-0.537300
35022	-3.471097	0.293705	9.102549	-0.819255	0.039778	-0.195390	-0.537644
35023	-3.489870	0.690136	9.263122	-0.819109	0.039227	-0.195729	-0.537784
35024	-3.463802	1.061029	9.197027	-0.819072	0.038835	-0.196068	-0.537746
35025	-3.583622	1.222861	8.882793	-0.819185	0.038438	-0.196176	-0.537563
35026	-3.546317	1.420776	8.836779	-0.819538	0.037917	-0.195948	-0.537144
35027	-3.465445	1.603911	8.997203	-0.820111	0.037494	-0.195486	-0.536468
35028	-3.368812	1.506600	9.181161	-0.820774	0.037569	-0.194773	-0.535708
35029	-3.426732	1.222167	9.230154	-0.821419	0.037302	-0.194510	-0.534832
35030	-3.593987	1.731468	9.211190	-0.822045	0.036432	-0.194624	-0.533888
35031	-3.624593	2.215987	9.114165	-0.822710	0.035654	-0.194422	-0.532989
35032	-3.459325	2.414749	9.120163	-0.823420	0.035388	-0.193728	-0.532162
35033	-3.377289	2.271822	9.163146	-0.824033	0.035423	-0.192860	-0.531526
35034	-3.392073	2.330901	9.438306	-0.824414	0.035187	-0.192043	-0.531247
35035	-3.527414	2.495612	9.664997	-0.824437	0.034568	-0.191493	-0.531450
35036	-3.660734	3.208649	9.649707	-0.824190	0.034001	-0.190791	-0.532122
35037	-3.593017	3.344420	9.471731	-0.823801	0.034498	-0.189147	-0.533278
35038	-3.612914	2.656350	9.324308	-0.823255	0.035387	-0.187118	-0.534776
35039	-3.355751	1.939086	9.497318	-0.822458	0.035860	-0.185354	-0.536582
35040	-3.220580	1.298367	9.716899	-0.821216	0.035204	-0.184591	-0.538786
35041	-3.423651	1.681459	10.055913	-0.819499	0.033809	-0.184498	-0.541515
35042	-3.586663	1.745821	10.046084	-0.817391	0.032790	-0.184178	-0.544862
35043	-3.661792	1.796697	10.066600	-0.815072	0.032542	-0.183288	-0.548639
35044	-3.686309	1.059912	10.242568	-0.812535	0.032697	-0.182175	-0.552748
35045	-3.842322	0.654369	10.485720	-0.809822	0.031357	-0.181615	-0.556974
35046	-3.850371	1.173222	10.750466	-0.807045	0.028354	-0.181480	-0.561195
35047	-4.131000	1.969478	10.650161	-0.804503	0.024800	-0.180644	-0.565268
35048	-4.229117	2.217130	10.594220	-0.802510	0.021749	-0.178212	-0.568986
35049	-3.894776	1.461147	10.156956	-0.801133	0.019168	-0.174287	-0.572226
35050	-3.411613	0.760869	9.937661	-0.800177	0.016347	-0.169969	-0.574943
35051	-3.132123	0.368606	9.434575	-0.799363	0.012757	-0.166005	-0.577320
35052	-2.915019	0.654503	9.093300	-0.798774	0.008738	-0.162322	-0.579255
35053	-2.540821	0.718073	8.521974	-0.798524	0.004664	-0.158821	-0.580614
35054	-2.209259	0.823145	8.040804	-0.798563	0.000662	-0.155592	-0.581453
35055	-1.844467	0.934399	7.840688	-0.798712	-0.003161	-0.152596	-0.582034
35056	-1.632380	0.859756	7.757434	-0.798814	-0.006526	-0.149913	-0.582563
35057	-1.586782	1.049003	7.612116	-0.798823	-0.009858	-0.147894	-0.583020
35058	-1.218851	1.522819	8.174569	-0.798740	-0.012515	-0.146252	-0.583497
35059	-1.214209	1.492968	8.276704	-0.798501	-0.013805	-0.144878	-0.584136
35060	-1.481827	1.722376	8.174402	-0.798195	-0.014063	-0.143607	-0.584862
35061	-1.502508	1.758662	8.023299	-0.797994	-0.013388	-0.142278	-0.585477
35062	-1.720032	1.554517	8.329859	-0.797979	-0.012367	-0.141265	-0.585765
35063	-1.624349	1.329921	8.425273	-0.798025	-0.011492	-0.140743	-0.585845
35064	-1.706620	1.233392	8.682335	-0.797998	-0.011190	-0.140940	-0.585841
35065	-1.700723	1.524974	9.095824	-0.797832	-0.011192	-0.141841	-0.585850
35066	-1.852157	1.825354	9.434766	-0.797542	-0.010845	-0.142747	-0.586031
35067	-1.787258	1.992809	9.487057	-0.797285	-0.009810	-0.143299	-0.586264
35068	-1.805748	1.625694	9.439649	-0.797085	-0.008207	-0.143386	-0.586539
35069	-1.999201	1.314223	9.305962	-0.796926	-0.006906	-0.143477	-0.586749
35070	-2.257618	1.396425	9.380177	-0.796920	-0.005963	-0.143542	-0.586753
35071	-2.243842	1.348267	9.327691	-0.797139	-0.005151	-0.143643	-0.586438
35072	-2.284734	1.261668	9.458964	-0.797510	-0.004806	-0.144031	-0.585841
35073	-2.189498	1.493309	9.630526	-0.797941	-0.004884	-0.144679	-0.585094
35074	-2.245801	1.773568	9.803983	-0.798413	-0.004864	-0.145204	-0.584319
35075	-2.313526	1.916505	9.696201	-0.798961	-0.004191	-0.145233	-0.583567
35076	-2.268819	1.697456	9.520953	-0.799568	-0.003165	-0.144924	-0.582819
35077	-2.316458	1.443875	9.387889	-0.800107	-0.002742	-0.144914	-0.582084
35078	-2.078585	1.753289	9.567190	-0.800564	-0.002921	-0.145213	-0.581379
35079	-2.260973	1.988149	9.614535	-0.800961	-0.003044	-0.145659	-0.580721
35080	-2.411012	2.078785	9.585135	-0.801381	-0.002903	-0.145975	-0.580061
35081	-2.317242	2.007052	9.357621	-0.801843	-0.002944	-0.146252	-0.579353
35082	-2.272288	2.054222	9.185312	-0.802300	-0.003084	-0.146521	-0.578651
35083	-2.237111	2.163120	9.212195	-0.802718	-0.003038	-0.146590	-0.578053
35084	-2.194094	2.006920	9.219855	-0.803055	-0.002673	-0.146620	-0.577579
35085	-2.196154	1.973424	9.348407	-0.803240	-0.002285	-0.146800	-0.577278
35086	-2.228348	2.063438	9.193634	-0.803260	-0.001811	-0.147073	-0.577183
35087	-2.197954	2.130364	9.269918	-0.803211	-0.001139	-0.147308	-0.577193
35088	-2.274071	1.899783	9.376072	-0.803116	-0.000204	-0.147555	-0.577263
35089	-2.333596	1.606935	9.268854	-0.802987	0.000456	-0.147910	-0.577351
35090	-2.246744	1.668259	9.272868	-0.802809	0.000702	-0.148547	-0.577435
35091	-2.233573	1.751611	9.467706	-0.802621	0.001148	-0.149160	-0.577538
35092	-2.349600	1.702628	9.630288	-0.802414	0.001737	-0.149794	-0.577660
35093	-2.360006	1.611528	9.583815	-0.802170	0.002241	-0.150436	-0.577830
35094	-2.357262	1.675726	9.506300	-0.801930	0.002499	-0.151139	-0.577978
35095	-2.387999	1.747753	9.477467	-0.801725	0.002715	-0.151794	-0.578091
35096	-2.443000	1.794119	9.454985	-0.801617	0.002996	-0.152196	-0.578133
35097	-2.544428	1.705272	9.527865	-0.801627	0.003270	-0.152449	-0.578051
35098	-2.418371	1.566907	9.616907	-0.801676	0.003401	-0.152745	-0.577904
35099	-2.349163	1.407356	9.507617	-0.801672	0.003155	-0.153306	-0.577762
35100	-2.398510	1.706299	9.509809	-0.801626	0.002633	-0.153980	-0.577650
35101	-2.457001	1.908708	9.542812	-0.801624	0.002792	-0.154253	-0.577579
35102	-2.470338	1.716840	9.417812	-0.801690	0.003470	-0.154227	-0.577491
35103	-2.412408	1.479918	9.483802	-0.801816	0.004334	-0.154160	-0.577327
35104	-2.402407	1.309946	9.320536	-0.801988	0.004837	-0.154323	-0.577041
35105	-2.504135	1.707542	9.253006	-0.802212	0.004718	-0.154791	-0.576606
35106	-2.554806	1.909323	9.385837	-0.802573	0.004653	-0.155031	-0.576039
35107	-2.445843	1.778834	9.451997	-0.803031	0.004776	-0.155043	-0.575395
35108	-2.360270	1.669111	9.476707	-0.803450	0.005142	-0.154988	-0.574821
35109	-2.454287	1.644489	9.439360	-0.803729	0.005381	-0.155055	-0.574412
35110	-2.401472	1.836922	9.602207	-0.803880	0.005699	-0.155108	-0.574183
35111	-2.385782	1.806280	9.612072	-0.804004	0.006301	-0.155077	-0.574012
35112	-2.584153	1.872109	9.497809	-0.804139	0.006977	-0.154940	-0.573851
35113	-2.552806	1.677275	9.359227	-0.804311	0.007775	-0.154671	-0.573673
35114	-2.540352	1.426529	9.260169	-0.804420	0.008154	-0.154711	-0.573504
35115	-2.534031	1.580135	9.500271	-0.804474	0.008164	-0.154935	-0.573368
35116	-2.615076	1.822493	9.542482	-0.804571	0.008566	-0.155081	-0.573186
35117	-2.659407	1.897799	9.382107	-0.804782	0.009414	-0.154932	-0.572917
35118	-2.548892	1.735213	9.277118	-0.805084	0.010461	-0.154506	-0.572589
35119	-2.543385	1.485328	9.126925	-0.805418	0.011100	-0.154199	-0.572190
35120	-2.598731	1.445746	9.264751	-0.805659	0.011173	-0.154239	-0.571838
35121	-2.547034	1.678500	9.380729	-0.805872	0.011036	-0.154511	-0.571468
35122	-2.613196	1.926709	9.350540	-0.806065	0.011245	-0.154789	-0.571116
35123	-2.658589	1.880154	9.253885	-0.806290	0.011755	-0.154841	-0.570773
35124	-2.710471	1.913083	9.234477	-0.806535	0.012430	-0.154754	-0.570437
35125	-2.733445	1.856498	9.357075	-0.806764	0.013456	-0.154464	-0.570168
35126	-2.547481	1.481162	9.348574	-0.806916	0.014526	-0.154155	-0.570011
35127	-2.495101	1.433931	9.343334	-0.806986	0.015214	-0.154064	-0.569917
35128	-2.476669	1.518705	9.354690	-0.806939	0.016052	-0.153941	-0.569995
35129	-2.619644	1.498147	9.280714	-0.806867	0.017249	-0.153698	-0.570127
35130	-2.658177	1.393089	9.365286	-0.806831	0.018889	-0.153272	-0.570241
35131	-2.516886	1.132416	9.191671	-0.806861	0.020324	-0.152997	-0.570224
35132	-2.511992	1.052960	9.149434	-0.806910	0.021147	-0.153059	-0.570107
35133	-2.681574	1.094584	9.093255	-0.806977	0.021343	-0.153382	-0.569918
35134	-2.706389	1.349938	9.278273	-0.807103	0.021422	-0.153611	-0.569675
35135	-2.430237	1.333826	9.498817	-0.807279	0.022142	-0.153543	-0.569417
35136	-2.475442	1.066358	9.623970	-0.807310	0.023302	-0.153577	-0.569316
35137	-2.659907	0.841116	9.703279	-0.807197	0.024125	-0.154005	-0.569327
35138	-2.679849	0.890357	9.666072	-0.806957	0.024367	-0.154895	-0.569416
35139	-2.750938	1.211435	9.592299	-0.806667	0.024378	-0.155856	-0.569564
35140	-2.797763	1.545175	9.593189	-0.806467	0.024713	-0.156422	-0.569678
35141	-2.888809	1.501690	9.667194	-0.806444	0.025708	-0.156393	-0.569674
35142	-2.905387	1.107422	9.641684	-0.806524	0.026638	-0.156110	-0.569595
35143	-2.910342	0.955144	9.655320	-0.806659	0.026944	-0.156041	-0.569409
35144	-2.774045	1.205756	9.674112	-0.806807	0.026693	-0.156225	-0.569160
35145	-2.831358	1.496941	9.669111	-0.806966	0.026704	-0.156203	-0.568940
35146	-2.846780	1.268020	9.546148	-0.807168	0.027003	-0.155949	-0.568710
35147	-2.818144	1.169161	9.606645	-0.807313	0.027129	-0.155723	-0.568560
35148	-2.605331	1.174478	9.591353	-0.807394	0.027114	-0.155559	-0.568490
35149	-2.619575	1.199252	9.424291	-0.807404	0.027111	-0.155420	-0.568514
35150	-2.674456	1.244751	9.287643	-0.807396	0.027199	-0.155230	-0.568573
35151	-2.630068	1.268222	9.325220	-0.807440	0.027504	-0.154937	-0.568576
35152	-2.653846	1.151532	9.265041	-0.807537	0.027898	-0.154717	-0.568479
35153	-2.703274	1.077223	9.177662	-0.807678	0.028063	-0.154568	-0.568311
35154	-2.515723	1.115591	9.087244	-0.807845	0.027986	-0.154552	-0.568082
35155	-2.553892	1.230099	9.104600	-0.808001	0.027866	-0.154579	-0.567859
35156	-2.654175	1.272220	9.317553	-0.808138	0.027835	-0.154703	-0.567632
35157	-2.646378	1.241028	9.304855	-0.808249	0.027898	-0.154979	-0.567394
35158	-2.641011	1.348694	9.278550	-0.808335	0.028020	-0.155265	-0.567187
35159	-2.598531	1.302937	9.282454	-0.808337	0.028401	-0.155564	-0.567084
35160	-2.757367	1.313844	9.325288	-0.808279	0.028974	-0.155812	-0.567069
35161	-2.667987	1.218386	9.334882	-0.808199	0.029639	-0.156091	-0.567073
35162	-2.577611	1.287418	9.381157	-0.808097	0.030032	-0.156486	-0.567088
35163	-2.655907	1.351809	9.461899	-0.807950	0.030394	-0.156932	-0.567155
35164	-2.792597	1.488725	9.355493	-0.807822	0.030714	-0.157263	-0.567229
35165	-2.876238	1.666164	9.388022	-0.807760	0.031233	-0.157393	-0.567254
35166	-2.861065	1.489242	9.442201	-0.807737	0.031999	-0.157259	-0.567280
35167	-2.789384	1.148731	9.372010	-0.807636	0.032435	-0.157263	-0.567397
35168	-2.674799	1.115154	9.490412	-0.807398	0.032370	-0.157581	-0.567652
35169	-2.811836	1.317326	9.512918	-0.807027	0.032420	-0.157886	-0.568092
35170	-2.979961	1.474265	9.536936	-0.806569	0.033112	-0.157919	-0.568694
35171	-2.943199	1.274491	9.455661	-0.806159	0.034495	-0.157562	-0.569291
35172	-2.780834	0.832303	9.297078	-0.805748	0.035876	-0.157210	-0.569884
35173	-2.787596	0.701735	9.244372	-0.805336	0.036471	-0.157339	-0.570394
35174	-2.798467	1.089532	9.383874	-0.805007	0.036785	-0.157592	-0.570767
35175	-3.010106	1.132572	9.416485	-0.804775	0.037410	-0.157786	-0.571000
35176	-3.001560	1.059312	9.404546	-0.804667	0.038063	-0.157746	-0.571120
35177	-2.794996	0.915524	9.321970	-0.804634	0.038515	-0.157729	-0.571142
35178	-2.909348	0.988826	9.287799	-0.804616	0.038854	-0.157744	-0.571140
35179	-2.917831	1.036481	9.335946	-0.804608	0.039276	-0.157661	-0.571145
35180	-2.871228	0.915281	9.469751	-0.804568	0.039844	-0.157605	-0.571177
35181	-2.882666	0.771624	9.558562	-0.804472	0.040254	-0.157855	-0.571215
35182	-2.948872	1.004110	9.521482	-0.804339	0.040593	-0.158255	-0.571267
35183	-2.906547	0.948661	9.476818	-0.804211	0.041041	-0.158547	-0.571334
35184	-2.875531	0.898257	9.426562	-0.804150	0.041228	-0.158885	-0.571313
35185	-2.977103	1.134784	9.436818	-0.804204	0.041448	-0.159100	-0.571161
35186	-3.034993	1.092143	9.376008	-0.804401	0.041820	-0.159071	-0.570865
35187	-2.994070	1.081805	9.315999	-0.804718	0.042194	-0.158937	-0.570427
35188	-2.867854	1.079975	9.264903	-0.805128	0.042341	-0.158803	-0.569875
35189	-2.909993	1.269489	9.351388	-0.805609	0.042414	-0.158603	-0.569246
35190	-2.860616	1.088382	9.483089	-0.806092	0.042729	-0.158350	-0.568609
35191	-2.922712	0.859286	9.525486	-0.806463	0.042867	-0.158366	-0.568067
35192	-2.850989	1.015291	9.584178	-0.806649	0.042574	-0.158684	-0.567736
35193	-2.792906	1.270651	9.558288	-0.806710	0.042356	-0.158966	-0.567586
35194	-2.803343	1.222385	9.502321	-0.806645	0.042512	-0.159027	-0.567651
35195	-2.936334	1.006376	9.412500	-0.806547	0.042809	-0.158984	-0.567780
35196	-3.061099	0.978250	9.367825	-0.806489	0.043091	-0.158922	-0.567858
35197	-3.005085	0.848830	9.194632	-0.806526	0.043396	-0.158747	-0.567832
35198	-2.831386	0.657675	9.124654	-0.806642	0.043518	-0.158641	-0.567686
35199	-3.036442	0.684935	9.254538	-0.806779	0.043513	-0.158716	-0.567471
35200	-3.099835	0.795428	9.392817	-0.806948	0.043813	-0.158624	-0.567233
35201	-2.882545	0.546071	9.325342	-0.807159	0.044069	-0.158745	-0.566879
35202	-2.857482	0.613889	9.341663	-0.807369	0.043784	-0.159254	-0.566460
35203	-2.978756	0.959836	9.249168	-0.807609	0.043270	-0.159828	-0.565995
35204	-3.109700	1.132799	9.273955	-0.807933	0.043075	-0.160085	-0.565475
35205	-3.143433	1.020808	9.334551	-0.808367	0.043315	-0.159952	-0.564873
35206	-2.895245	0.732127	9.362518	-0.808813	0.043559	-0.159846	-0.564246
35207	-2.966248	0.814633	9.316150	-0.809220	0.043464	-0.160058	-0.563609
35208	-3.242887	1.299010	9.368056	-0.809661	0.043563	-0.160147	-0.562943
35209	-3.012052	1.177073	9.330945	-0.810162	0.044188	-0.159867	-0.562252
35210	-2.863800	0.795179	9.223413	-0.810659	0.044493	-0.159792	-0.561532
35211	-2.908942	0.792883	9.381472	-0.811031	0.044126	-0.160158	-0.560919
35212	-3.052822	1.165205	9.524782	-0.811290	0.043392	-0.160879	-0.560396
35213	-3.315069	1.597307	9.563019	-0.811488	0.043172	-0.161243	-0.560021
35214	-3.232662	1.512457	9.469911	-0.811718	0.043688	-0.160974	-0.559726
35215	-2.925466	0.934692	9.300371	-0.811910	0.044368	-0.160510	-0.559527
35216	-2.815671	0.758130	9.314175	-0.812056	0.044530	-0.160377	-0.559341
35217	-3.105735	0.887791	9.473136	-0.812146	0.044569	-0.160616	-0.559137
35218	-3.525534	1.049970	9.454987	-0.812221	0.044597	-0.160962	-0.558926
35219	-3.098837	1.092506	9.423527	-0.812355	0.044618	-0.161176	-0.558669
35220	-2.967319	1.162661	9.362163	-0.812467	0.044662	-0.161297	-0.558468
35221	-3.207897	1.154576	9.538100	-0.812558	0.044899	-0.161230	-0.558336
35222	-3.469969	1.079228	9.683319	-0.812636	0.045007	-0.161171	-0.558231
35223	-3.139598	0.974337	9.563450	-0.812732	0.044993	-0.160988	-0.558144
35224	-3.029414	0.989793	9.421779	-0.812793	0.044649	-0.160908	-0.558106
35225	-3.025796	1.191574	9.417004	-0.812902	0.044404	-0.160639	-0.558044
35226	-3.140487	1.194114	9.360357	-0.813136	0.044583	-0.160056	-0.557856
35227	-3.157295	1.024177	9.343465	-0.813457	0.044773	-0.159449	-0.557548
35228	-3.089302	1.021012	9.327841	-0.813833	0.044570	-0.159029	-0.557135
35229	-2.962986	0.992047	9.240147	-0.814179	0.044233	-0.158695	-0.556751
35230	-2.941922	0.941068	9.180399	-0.814481	0.043663	-0.158468	-0.556419
35231	-3.035887	1.232475	9.231323	-0.814695	0.043412	-0.158176	-0.556208
35232	-3.001478	1.210643	9.198137	-0.814925	0.043683	-0.157615	-0.556010
35233	-2.816803	0.916082	9.272278	-0.815137	0.044118	-0.157184	-0.555786
35234	-2.796875	0.788418	9.258422	-0.815302	0.043812	-0.157320	-0.555530
35235	-2.891762	1.098448	9.229200	-0.815412	0.043139	-0.157689	-0.555316
35236	-2.909586	1.190012	9.141991	-0.815494	0.042598	-0.157917	-0.555173
35237	-2.998096	1.076186	9.254123	-0.815561	0.042399	-0.157981	-0.555072
35238	-3.110351	1.030126	9.424812	-0.815578	0.042281	-0.158110	-0.555020
35239	-2.949416	1.004451	9.452835	-0.815558	0.042354	-0.158215	-0.555013
35240	-2.965248	1.014911	9.413450	-0.815509	0.042303	-0.158432	-0.555026
35241	-3.024620	1.116226	9.275655	-0.815469	0.042045	-0.158648	-0.555044
35242	-2.916090	1.214189	9.316279	-0.815493	0.041567	-0.158923	-0.554965
35243	-2.969394	1.332452	9.392189	-0.815575	0.040855	-0.159286	-0.554794
35244	-2.973706	1.403421	9.439144	-0.815699	0.039910	-0.159729	-0.554553
35245	-3.145587	1.536257	9.275847	-0.815846	0.038712	-0.160210	-0.554282
35246	-2.860499	1.714871	9.139653	-0.815970	0.037383	-0.160523	-0.554101
35247	-2.628434	1.586180	9.175023	-0.815959	0.036442	-0.160621	-0.554151
35248	-2.653779	1.141102	9.057061	-0.815755	0.035565	-0.160732	-0.554477
35249	-2.602711	1.209505	9.063868	-0.815338	0.034480	-0.161211	-0.555019
35250	-2.676914	1.377994	8.998260	-0.814778	0.033908	-0.161748	-0.555720
35251	-2.656165	1.278346	8.693506	-0.814175	0.033796	-0.162283	-0.556454
35252	-2.558709	1.265056	8.772673	-0.813593	0.033809	-0.163025	-0.557087
35253	-2.810707	1.293808	8.896716	-0.813008	0.034204	-0.163795	-0.557692
35254	-2.845968	1.109867	9.054879	-0.812465	0.034657	-0.164696	-0.558189
35255	-2.838478	1.264576	9.229533	-0.811985	0.034985	-0.165847	-0.558525
35256	-2.880292	1.481686	9.366085	-0.811543	0.035564	-0.166926	-0.558810
35257	-3.151479	1.299807	9.540654	-0.811148	0.036503	-0.167789	-0.559065
35258	-3.191503	1.159408	9.651886	-0.810767	0.037325	-0.168623	-0.559313
35259	-3.218430	1.038739	9.851340	-0.810348	0.037667	-0.169634	-0.559590
35260	-3.275514	1.388945	9.868209	-0.809934	0.037724	-0.170614	-0.559888
35261	-3.313526	1.467152	9.820077	-0.809575	0.038203	-0.171089	-0.560230
35262	-3.310527	1.133053	9.847223	-0.809310	0.038885	-0.171237	-0.560521
35263	-3.389024	0.789948	9.765737	-0.809097	0.039250	-0.171385	-0.560757
35264	-3.526907	1.014608	9.801668	-0.809033	0.039207	-0.171543	-0.560805
35265	-3.536746	1.252660	9.738799	-0.809185	0.039461	-0.171274	-0.560650
35266	-3.502732	0.982996	9.650739	-0.809627	0.040208	-0.170414	-0.560220
35267	-3.459935	0.476373	9.574152	-0.810217	0.040591	-0.169568	-0.559596
35268	-3.327144	0.371722	9.785515	-0.810892	0.040154	-0.169083	-0.558795
35269	-3.266974	0.563999	9.853993	-0.811602	0.039481	-0.168706	-0.557926
35270	-3.286546	0.278565	9.880101	-0.812373	0.039049	-0.168111	-0.557013
35271	-3.356290	-0.027035	9.830308	-0.813234	0.038179	-0.167632	-0.555961
35272	-3.302743	-0.208090	10.027248	-0.814223	0.036859	-0.167358	-0.554684
35273	-3.433242	-0.182445	10.008069	-0.815414	0.035252	-0.167175	-0.553091
35274	-3.538844	-0.096179	10.020162	-0.816892	0.034076	-0.166559	-0.551166
35275	-3.774549	-0.242299	9.862152	-0.818771	0.033225	-0.165547	-0.548729
35276	-3.932927	-0.329951	9.957208	-0.821175	0.032122	-0.164155	-0.545612
35277	-3.701928	-0.561242	9.778190	-0.824082	0.030121	-0.162670	-0.541775
35278	-3.600296	-0.449838	9.630308	-0.827371	0.027086	-0.161404	-0.537283
35279	-3.632644	-0.330608	9.678389	-0.831075	0.023899	-0.159871	-0.532151
35280	-3.556178	-0.629028	9.276197	-0.835142	0.020647	-0.158273	-0.526366
35281	-3.276053	-0.722944	8.975198	-0.839574	0.017258	-0.156651	-0.519883
35282	-3.260446	-0.505938	8.633241	-0.844391	0.014199	-0.155224	-0.512550
35283	-3.424946	-0.217256	8.363802	-0.849666	0.011995	-0.153994	-0.504192
35284	-3.356402	-0.582654	8.025366	-0.855389	0.010251	-0.152666	-0.494872
35285	-2.948088	-1.176697	7.910380	-0.861449	0.007677	-0.151733	-0.484587
35286	-3.039228	-1.124175	7.414131	-0.867810	0.003437	-0.151652	-0.473175
35287	-2.327065	4.840913	8.267030	-0.872752	-0.001731	-0.153693	-0.463335
35288	-2.921888	2.163388	9.130225	-0.877872	0.002844	-0.151519	-0.454285
35289	-3.379740	-3.958679	6.954197	-0.884202	0.005460	-0.149577	-0.442474
35290	-3.758290	-2.150513	7.713132	-0.891363	-0.001293	-0.151426	-0.427248
35291	-2.570551	1.561661	10.106152	-0.897364	-0.009571	-0.154092	-0.413402
35292	-2.096142	3.626981	9.918010	-0.901675	-0.014094	-0.156435	-0.402879
35293	-2.685679	3.854313	9.843665	-0.905186	-0.014376	-0.157667	-0.394427
35294	-3.669808	3.938104	10.435903	-0.908772	-0.010761	-0.157633	-0.386225
35295	-3.457260	1.852265	10.409113	-0.912470	-0.005562	-0.157029	-0.377770
35296	-3.399915	0.091141	10.060610	-0.915787	-0.005133	-0.157279	-0.369555
35297	-3.584364	0.352393	9.885369	-0.918574	-0.010700	-0.159029	-0.361686
35298	-3.822823	1.775274	10.073958	-0.921200	-0.017815	-0.160767	-0.353875
35299	-4.132389	2.184029	10.216897	-0.924279	-0.022443	-0.160989	-0.345379
35300	-4.181681	1.998903	10.788978	-0.927975	-0.025968	-0.159585	-0.335740
35301	-3.901172	2.421599	11.364237	-0.932056	-0.028144	-0.156380	-0.325614
35302	-3.571939	0.955410	10.561159	-0.936193	-0.029031	-0.151895	-0.315637
35303	-3.374125	0.486111	9.969767	-0.940251	-0.031667	-0.147525	-0.305223
35304	-3.309095	1.293701	9.817576	-0.944290	-0.034553	-0.143012	-0.294397
35305	-2.998516	0.975851	9.666569	-0.948383	-0.036031	-0.138207	-0.283145
35306	-2.654689	0.319176	9.098453	-0.952340	-0.038666	-0.133746	-0.271415
35307	-2.296305	0.545646	8.996958	-0.955979	-0.042907	-0.129789	-0.259651
35308	-2.327475	0.494016	8.452709	-0.959242	-0.047916	-0.126370	-0.248174
35309	-2.400773	1.257088	8.493098	-0.962249	-0.053423	-0.123440	-0.236613
35310	-2.149977	1.616203	8.894219	-0.965186	-0.057561	-0.120655	-0.224824
35311	-2.189542	1.353512	8.883034	-0.968052	-0.060897	-0.117798	-0.212818
35312	-2.172403	0.469633	8.723713	-0.970719	-0.064723	-0.115139	-0.200645
35313	-2.484215	0.244888	8.401089	-0.973062	-0.070300	-0.112992	-0.188256
35314	-2.554081	1.491676	8.580372	-0.975201	-0.076270	-0.111004	-0.175628
35315	-2.439714	2.035253	8.654805	-0.977372	-0.080045	-0.108987	-0.162658
35316	-2.206513	1.742221	8.775352	-0.979515	-0.082760	-0.106994	-0.149175
35317	-2.130065	1.706023	8.623333	-0.981451	-0.085823	-0.105132	-0.135407
35318	-2.041904	2.181243	8.878577	-0.983198	-0.088830	-0.103225	-0.121556
35319	-2.293847	1.794470	8.792696	-0.984750	-0.091116	-0.101597	-0.107900
35320	-2.426647	1.648471	8.878292	-0.986031	-0.093566	-0.100327	-0.094465
35321	-2.519537	2.152172	8.897958	-0.987056	-0.096014	-0.099425	-0.081345
35322	-2.484559	3.046597	9.034249	-0.987952	-0.098022	-0.098361	-0.068315
35323	-2.255657	3.334356	9.328442	-0.988845	-0.098586	-0.097104	-0.055115
35324	-2.316285	2.652712	8.903459	-0.989655	-0.098119	-0.095870	-0.041999
35325	-2.480223	1.980546	8.909938	-0.990209	-0.098084	-0.094908	-0.029277
35326	-2.625565	1.839164	9.076359	-0.990432	-0.099429	-0.094193	-0.016939
35327	-2.707191	2.552328	9.345554	-0.990419	-0.101489	-0.093523	-0.004779
35328	-2.796172	3.033906	9.420482	-0.990351	-0.102694	-0.092775	0.007190
35329	-2.763136	2.655877	9.459580	-0.990260	-0.102820	-0.091951	0.018934
35330	-2.703132	1.934617	9.507035	-0.990031	-0.102679	-0.091469	0.030464
35331	-2.902531	2.027948	9.435206	-0.989629	-0.103044	-0.090914	0.041848
35332	-2.954489	2.625231	9.299868	-0.989202	-0.102451	-0.090313	0.053173
35333	-2.848248	2.272150	9.353873	-0.988819	-0.099804	-0.090186	0.064363
35334	-2.975909	1.581252	9.199501	-0.988298	-0.097131	-0.090164	0.075522
35335	-3.062291	2.194842	9.221911	-0.987518	-0.095762	-0.089537	0.087298
35336	-2.585027	2.843237	9.125631	-0.986546	-0.094625	-0.088415	0.099774
35337	-2.472025	2.051333	8.891611	-0.985390	-0.093692	-0.087312	0.112270
35338	-2.611177	1.391081	8.577978	-0.983988	-0.094745	-0.086044	0.124044
35339	-2.626715	2.339401	8.709781	-0.982395	-0.097695	-0.084663	0.134865
35340	-2.413314	3.545305	9.219304	-0.980782	-0.099808	-0.083824	0.145186
35341	-2.141466	3.807083	9.310096	-0.979196	-0.100456	-0.083518	0.155269
35342	-2.030620	3.119769	9.114995	-0.977603	-0.100673	-0.083421	0.164918
35343	-2.195666	2.722948	8.843355	-0.975938	-0.102121	-0.083099	0.173812
35344	-2.223877	3.046169	8.927159	-0.974285	-0.104845	-0.082754	0.181460
35345	-2.368231	3.911786	9.262968	-0.972739	-0.107408	-0.082618	0.188195
35346	-2.330492	4.461610	9.494037	-0.971307	-0.109146	-0.082760	0.194426
35347	-2.346025	4.372851	9.702520	-0.970016	-0.110188	-0.082893	0.200140
35348	-2.509328	4.184289	9.061110	-0.968935	-0.111117	-0.082658	0.204903
35349	-2.335528	4.498987	8.916318	-0.968054	-0.112342	-0.081910	0.208668
35350	-2.264460	4.678809	9.241287	-0.967422	-0.113140	-0.081348	0.211366
35351	-2.319193	4.803638	9.243183	-0.967064	-0.113529	-0.080929	0.212954
35352	-2.331309	4.676308	9.333831	-0.966970	-0.113774	-0.080818	0.213290
35353	-2.356384	4.732796	8.977971	-0.967151	-0.113613	-0.080974	0.212494
35354	-2.418720	4.422520	8.771259	-0.967585	-0.113179	-0.081474	0.210550
35355	-2.481112	4.514083	8.604832	-0.968207	-0.113194	-0.081953	0.207478
35356	-2.536891	4.644155	8.598596	-0.969042	-0.112737	-0.082780	0.203458
35357	-2.710830	4.130615	8.379234	-0.970060	-0.112068	-0.083919	0.198451
35358	-2.724913	3.934917	8.431239	-0.971178	-0.111842	-0.085044	0.192543
35359	-2.696639	4.191429	8.496709	-0.972396	-0.111495	-0.086460	0.185846
35360	-2.576389	4.457156	8.291852	-0.973707	-0.110567	-0.088188	0.178586
35361	-2.608914	4.432487	8.355270	-0.975031	-0.109443	-0.090005	0.170984
35362	-2.581253	3.765344	8.673081	-0.976344	-0.108503	-0.092013	0.162828
35363	-2.879019	2.523743	8.573158	-0.977590	-0.109107	-0.094205	0.153424
35364	-3.085443	2.983695	8.702974	-0.978694	-0.112152	-0.095918	0.142757
35365	-3.071439	5.010013	9.234991	-0.979795	-0.114655	-0.098063	0.131299
35366	-3.224246	5.495057	9.342907	-0.981272	-0.112550	-0.101094	0.119240
35367	-3.397812	4.008466	8.820599	-0.982852	-0.108446	-0.104230	0.106669
35368	-3.440950	3.274051	8.825498	-0.984231	-0.105246	-0.106997	0.093622
35369	-3.674304	2.825687	8.802324	-0.985321	-0.103738	-0.109456	0.080008
35370	-3.757562	3.122755	8.807197	-0.986141	-0.103795	-0.111540	0.065664
35371	-3.904196	3.262390	8.960430	-0.986754	-0.104135	-0.113679	0.050490
35372	-3.945020	3.785675	8.931407	-0.987205	-0.104028	-0.115757	0.034702
35373	-4.001719	3.886513	8.969666	-0.987594	-0.101819	-0.118100	0.018506
35374	-4.095509	3.165395	8.792023	-0.987873	-0.097913	-0.120480	0.001987
35375	-4.351234	2.131003	8.549067	-0.987829	-0.094205	-0.122876	-0.014831
35376	-4.297478	2.118657	8.707637	-0.987371	-0.092188	-0.124824	-0.031908
35377	-4.261320	2.373476	8.685289	-0.986544	-0.090753	-0.126705	-0.049401
35378	-4.266944	2.503781	8.861705	-0.985412	-0.089004	-0.128592	-0.067129
35379	-4.350910	2.789651	8.671002	-0.984022	-0.086285	-0.130501	-0.085000
35380	-4.398248	2.580235	8.631795	-0.982431	-0.082211	-0.132318	-0.102774
35381	-4.562464	1.857738	8.644926	-0.980546	-0.077791	-0.133973	-0.120541
35382	-4.742900	1.283056	8.333498	-0.978255	-0.074163	-0.135454	-0.138453
35383	-4.544896	1.144331	8.668390	-0.975450	-0.071837	-0.137173	-0.156590
35384	-4.285464	1.313085	8.802898	-0.972156	-0.070139	-0.139300	-0.174895
35385	-4.217668	1.871927	9.193662	-0.968527	-0.067882	-0.141584	-0.193138
35386	-4.364446	1.730161	9.012159	-0.964720	-0.064297	-0.143443	-0.211198
35387	-4.709948	0.795611	8.474487	-0.960602	-0.060784	-0.145163	-0.229078
35388	-4.805120	0.499688	7.988004	-0.956034	-0.058698	-0.147034	-0.246849
35389	-3.924491	1.128950	8.771667	-0.951099	-0.057940	-0.148979	-0.264308
35390	-3.035960	2.028356	9.473840	-0.946049	-0.055983	-0.150935	-0.281203
35391	-2.862540	0.946612	10.138712	-0.940894	-0.051763	-0.152679	-0.297873
35392	-3.249558	-0.235023	9.061621	-0.935215	-0.049039	-0.154795	-0.314653
35393	-3.069884	0.786014	9.002744	-0.929077	-0.048172	-0.157194	-0.331340
35394	-2.954155	1.594880	8.740649	-0.922673	-0.046089	-0.159528	-0.347996
35395	-3.118121	1.162756	9.233245	-0.916141	-0.040975	-0.161444	-0.364612
35396	-3.596191	0.209639	8.858872	-0.909314	-0.034111	-0.163174	-0.381260
35397	-3.716008	0.637285	9.197824	-0.902396	-0.026305	-0.164622	-0.397353
35398	-3.779339	0.041079	9.333060	-0.895435	-0.016137	-0.165388	-0.413016
35399	-3.808563	-1.254724	9.270610	-0.888371	-0.005851	-0.165835	-0.428090
35400	-4.096320	-1.990527	9.136049	-0.881204	0.002336	-0.166974	-0.442260
35401	-4.132027	-1.948805	9.692462	-0.874284	0.008848	-0.168598	-0.455109
35402	-4.314737	-2.304866	10.024943	-0.867715	0.014047	-0.170387	-0.466735
35403	-4.388408	-1.551697	10.475893	-0.861878	0.017199	-0.172086	-0.476714
35404	-3.946014	-1.328134	11.179072	-0.857011	0.019665	-0.172865	-0.485039
35405	-3.752668	-1.913847	11.008890	-0.852941	0.019886	-0.173587	-0.491899
35406	-4.004006	-1.996421	11.468786	-0.849141	0.017808	-0.174951	-0.498031
35407	-4.287900	-1.118407	11.588613	-0.845638	0.014580	-0.176228	-0.503615
35408	-4.044622	-0.053762	11.461558	-0.842769	0.012447	-0.176200	-0.508467
35409	-3.598796	0.656265	11.118211	-0.840787	0.012662	-0.174106	-0.512449
35410	-3.295609	0.572292	9.990740	-0.839647	0.015290	-0.169811	-0.515678
35411	-3.134384	0.342622	8.843216	-0.839245	0.019204	-0.164015	-0.518072
35412	-2.878834	-0.117205	8.184276	-0.839517	0.023885	-0.157522	-0.519450
35413	-2.473555	-1.389487	8.183204	-0.840057	0.028101	-0.151896	-0.520041
35414	-2.247028	-1.586995	8.032242	-0.840522	0.029647	-0.148357	-0.520225
35415	-1.931359	-0.768210	8.113282	-0.840789	0.029861	-0.146408	-0.520333
35416	-2.028369	0.019880	7.883614	-0.840764	0.030497	-0.145344	-0.520635
35417	-2.165880	0.242824	7.776886	-0.840602	0.032818	-0.144427	-0.521011
35418	-2.213759	0.278933	7.522984	-0.840540	0.035698	-0.143912	-0.521063
35419	-2.245578	0.524907	7.862892	-0.840648	0.038873	-0.143580	-0.520754
35420	-2.252605	0.168672	7.788646	-0.840845	0.042327	-0.143667	-0.520143
35421	-2.384957	0.117246	8.186652	-0.841039	0.044957	-0.144587	-0.519353
35422	-2.560810	0.497162	8.560977	-0.841188	0.046926	-0.146240	-0.518473
35423	-2.810928	0.645007	9.382077	-0.841145	0.048954	-0.148194	-0.517801
35424	-2.814167	0.512371	9.901396	-0.840812	0.050540	-0.150945	-0.517393
35425	-3.056449	1.146146	10.522125	-0.840102	0.052122	-0.153969	-0.517500
35426	-3.563327	1.561500	10.939936	-0.839032	0.054805	-0.156292	-0.518261
35427	-3.910031	1.537549	11.291609	-0.837669	0.057756	-0.157956	-0.519639
35428	-4.194277	1.160179	12.377453	-0.836084	0.060007	-0.159125	-0.521576
35429	-4.548055	0.680456	13.289764	-0.834475	0.059827	-0.160326	-0.523802
35430	-4.988633	0.768101	14.731666	-0.832954	0.055333	-0.161629	-0.526309
35431	-5.046180	2.357130	15.218288	-0.831625	0.046944	-0.162441	-0.528969
35432	-5.201327	4.574360	15.520801	-0.830375	0.039165	-0.160376	-0.532188
35433	-5.249271	4.034358	15.200408	-0.829127	0.034941	-0.154005	-0.536293
35434	-5.611258	1.877641	14.669864	-0.827824	0.030687	-0.145556	-0.540905
35435	-5.344032	1.270141	14.579899	-0.826605	0.024522	-0.136036	-0.545543
35436	-5.156809	1.246496	13.496727	-0.825437	0.016689	-0.125664	-0.550077
35437	-5.206689	2.123639	13.225257	-0.824541	0.008721	-0.113565	-0.554219
35438	-4.818379	1.961902	12.760153	-0.824290	0.002715	-0.098397	-0.557546
35439	-4.095444	0.193342	11.657999	-0.824740	-0.002829	-0.081169	-0.559649
35440	-3.643182	-1.046120	10.983230	-0.825342	-0.010729	-0.063879	-0.560905
35441	-3.257909	-0.330518	10.414805	-0.825659	-0.021851	-0.047121	-0.561774
35442	-2.669118	0.898160	10.043322	-0.826125	-0.032758	-0.029061	-0.561783
35443	-2.716866	1.819698	9.070645	-0.827433	-0.040946	-0.008168	-0.560010
35444	-2.668205	0.793124	8.398179	-0.830152	-0.044875	0.016275	-0.555490
35445	-1.463593	-1.023361	8.053526	-0.833556	-0.048667	0.041703	-0.548705
35446	0.296988	-1.549648	7.793225	-0.836423	-0.056403	0.064651	-0.541328
35447	0.645102	-0.503309	8.195579	-0.838261	-0.067584	0.085417	-0.534280
35448	0.910419	0.342081	7.802489	-0.839673	-0.078185	0.105747	-0.526930
35449	0.601582	1.145101	7.529255	-0.841313	-0.085789	0.127332	-0.518285
35450	1.161035	1.743986	7.095215	-0.843603	-0.088886	0.151719	-0.507360
35451	2.304507	0.118092	6.407063	-0.845917	-0.088692	0.177009	-0.495203
35452	2.814254	-1.433538	5.496043	-0.846972	-0.092095	0.199725	-0.484010
35453	3.427186	-0.281703	5.710639	-0.846484	-0.100671	0.219642	-0.474433
35454	4.159933	0.356365	5.597539	-0.845892	-0.109204	0.237512	-0.464896
35455	3.787851	1.123574	5.624898	-0.845314	-0.117477	0.254622	-0.454764
35456	5.600508	0.865505	5.757203	-0.844792	-0.122860	0.271243	-0.444588
35457	5.319716	-0.253193	5.046904	-0.843448	-0.128339	0.285992	-0.436272
35458	5.300115	1.203267	4.658384	-0.841018	-0.135681	0.298944	-0.430014
35459	6.270707	2.653998	4.704215	-0.838741	-0.140605	0.312101	-0.423481
35460	7.717238	1.062371	4.898090	-0.837398	-0.141308	0.324089	-0.416849
35461	6.968222	-0.881960	3.935682	-0.835891	-0.141657	0.333623	-0.412208
35462	6.572754	-0.811003	3.575305	-0.833650	-0.144004	0.341014	-0.409878
35463	6.527945	0.509990	3.533357	-0.831272	-0.147027	0.347135	-0.408493
35464	7.366220	1.241062	3.701285	-0.829491	-0.148696	0.352789	-0.406664
35465	7.896765	-0.179353	4.046324	-0.828413	-0.149019	0.356636	-0.405383
35466	7.739951	-0.655584	3.900354	-0.826885	-0.150333	0.358386	-0.406473
35467	7.702204	-0.407670	4.352460	-0.825506	-0.151300	0.358577	-0.408743
35468	7.588611	-0.598647	4.235202	-0.824543	-0.151666	0.357576	-0.411418
35469	7.718549	0.124433	4.222159	-0.823873	-0.151313	0.356100	-0.414161
35470	7.878113	-0.409184	4.610420	-0.823516	-0.149751	0.354110	-0.417135
35471	7.884095	-0.647179	4.684717	-0.823312	-0.147575	0.351127	-0.420820
35472	7.261504	-0.794481	4.727688	-0.823295	-0.144889	0.347353	-0.424897
35473	6.975557	-0.577886	4.400125	-0.823503	-0.141570	0.343455	-0.428765
35474	7.013063	-0.765473	4.159990	-0.824099	-0.137834	0.338969	-0.432393
35475	7.101855	-1.242553	4.542404	-0.824740	-0.134624	0.333340	-0.436536
35476	7.443613	-1.623667	5.027980	-0.825421	-0.131924	0.325325	-0.442085
35477	6.565266	-0.603443	5.128350	-0.826212	-0.128594	0.316296	-0.448101
35478	6.276831	-0.514104	5.057586	-0.827564	-0.123529	0.307208	-0.453323
35479	5.687329	-0.650807	4.280934	-0.829185	-0.117493	0.298292	-0.457896
35480	5.899402	-1.139697	4.770349	-0.830810	-0.111999	0.288590	-0.462521
35481	6.113385	-1.887534	5.477368	-0.832400	-0.107667	0.275991	-0.468344
35482	5.458032	-1.696622	5.684775	-0.833404	-0.104654	0.260915	-0.475825
35483	4.855993	-0.866450	5.405839	-0.834167	-0.101877	0.244283	-0.483851
35484	3.410533	0.896991	5.092482	-0.835402	-0.097093	0.228171	-0.490526
35485	2.849547	0.469504	6.085158	-0.837381	-0.089188	0.213858	-0.495078
35486	3.369068	-1.177262	6.978981	-0.839423	-0.080762	0.199048	-0.499226
35487	2.989981	-1.301016	7.723478	-0.840993	-0.072928	0.183240	-0.503821
35488	2.533214	-0.563377	6.985896	-0.842068	-0.064216	0.167471	-0.508676
35489	1.696808	0.552639	6.423423	-0.843310	-0.053333	0.152518	-0.512564
35490	1.140925	0.658585	7.656385	-0.844921	-0.039558	0.138973	-0.515005
35491	1.236308	-1.673171	9.146351	-0.846324	-0.024415	0.125329	-0.517139
35492	0.764427	-3.081962	8.982313	-0.846833	-0.012159	0.109575	-0.520307
35493	-0.160158	-0.679399	8.252958	-0.846732	-0.002585	0.092630	-0.523887
35494	-1.132586	1.504360	7.502759	-0.846782	0.010623	0.078047	-0.526076
35495	-1.939049	0.643832	8.714306	-0.846917	0.028170	0.066706	-0.526771
35496	-1.340074	-2.338393	10.561740	-0.846616	0.046823	0.055608	-0.527216
35497	-1.289018	-4.028057	10.581478	-0.845763	0.060801	0.041934	-0.528421
35498	-2.065620	-2.306083	9.906652	-0.844526	0.069746	0.026742	-0.530280
35499	-2.657040	-0.323795	8.514741	-0.843120	0.078239	0.012428	-0.531857
35500	-3.278104	1.108114	7.745266	-0.841645	0.089250	0.000669	-0.532604
35501	-3.174914	0.411227	9.686330	-0.839500	0.105789	-0.008882	-0.532888
35502	-2.313271	-3.782564	9.558732	-0.836320	0.125030	-0.018773	-0.533465
35503	-2.603831	-6.737636	9.368232	-0.832856	0.136537	-0.034065	-0.535301
35504	-3.975608	-3.479736	8.233516	-0.829833	0.138405	-0.055507	-0.537717
35505	-4.364206	2.016136	8.640076	-0.826552	0.141668	-0.075345	-0.539504
35506	-4.752784	2.825232	10.158857	-0.821565	0.156298	-0.088929	-0.541011
35507	-4.381914	-2.541462	9.952902	-0.814717	0.178373	-0.099452	-0.542704
35508	-4.457821	-6.817228	8.937868	-0.807486	0.193433	-0.114778	-0.545322
35509	-4.834448	-5.636094	7.976644	-0.801555	0.196383	-0.138295	-0.547557
35510	-5.736107	-0.802045	7.497588	-0.796656	0.193893	-0.165220	-0.548130
35511	-6.427322	2.836643	8.487228	-0.790985	0.196722	-0.187265	-0.548248
35512	-7.856998	0.555629	8.711327	-0.782938	0.209523	-0.203603	-0.549230
35513	-7.770806	-3.122742	8.080999	-0.774158	0.223345	-0.219178	-0.550234
35514	-6.740017	-4.473778	6.890633	-0.766850	0.229964	-0.238548	-0.549684
35515	-6.819467	-1.120090	6.906383	-0.761655	0.229443	-0.260786	-0.547017
35516	-7.157318	2.477273	7.203866	-0.755699	0.233300	-0.278593	-0.544864
35517	-9.251610	-0.051958	6.429470	-0.748331	0.244014	-0.292118	-0.543254
35518	-10.202261	-2.262998	6.394637	-0.741540	0.255099	-0.304423	-0.540712
35519	-9.219747	-3.619017	6.198970	-0.736580	0.261368	-0.318453	-0.536400
35520	-8.654536	-2.158409	6.293159	-0.733686	0.262005	-0.335747	-0.529464
35521	-8.353755	1.069061	7.532370	-0.730589	0.263907	-0.351745	-0.522368
35522	-9.309513	-0.018042	6.666811	-0.725536	0.271717	-0.364240	-0.516813
35523	-11.106810	-2.111078	6.395804	-0.720325	0.280620	-0.376002	-0.510889
35524	-10.959800	-2.925647	5.228874	-0.716263	0.286365	-0.389006	-0.503623
35525	-10.593432	-2.505932	4.422170	-0.714527	0.286066	-0.405117	-0.493455
35526	-10.700289	0.977424	4.366183	-0.714663	0.282080	-0.422371	-0.480926
35527	-9.899882	3.543998	5.143196	-0.712839	0.284119	-0.435443	-0.470666
35528	-10.016428	1.573929	4.625041	-0.708010	0.294475	-0.443811	-0.463722
35529	-10.691835	-1.217869	4.953539	-0.702046	0.307495	-0.450797	-0.457560
35530	-10.674047	-3.604546	4.815064	-0.697177	0.316401	-0.459636	-0.450078
35531	-10.124703	-2.036368	5.051437	-0.695134	0.317600	-0.471940	-0.439535
35532	-9.944288	0.925168	5.101428	-0.693299	0.317490	-0.484591	-0.428612
35533	-10.303134	1.285953	5.266481	-0.690255	0.320403	-0.495059	-0.419293
35534	-10.930941	0.056340	4.880101	-0.686506	0.324973	-0.504049	-0.411142
35535	-11.858270	0.802367	5.287370	-0.683004	0.329354	-0.511717	-0.403953
35536	-11.743495	0.533240	5.499716	-0.679537	0.334343	-0.517388	-0.398440
35537	-11.408573	0.017141	5.638090	-0.677530	0.337583	-0.522459	-0.392463
35538	-11.158307	0.546951	6.044792	-0.676881	0.338883	-0.527313	-0.385915
35539	-11.272419	0.902584	6.171699	-0.676714	0.339504	-0.531295	-0.380159
35540	-10.981326	0.343963	5.861537	-0.676919	0.339608	-0.534317	-0.375436
35541	-10.785429	-0.046595	5.461098	-0.677941	0.338573	-0.536711	-0.371087
35542	-10.497396	-0.109343	5.067641	-0.679803	0.336310	-0.538589	-0.366995
35543	-10.126441	-0.474342	4.514175	-0.682485	0.332800	-0.540220	-0.362797
35544	-9.864590	-0.958199	3.722121	-0.686080	0.327294	-0.542409	-0.357724
35545	-9.813380	-1.015150	3.202995	-0.690937	0.319004	-0.545341	-0.351348
35546	-9.385776	-0.723661	2.831742	-0.696647	0.308347	-0.548931	-0.343918
35547	-9.120230	-0.387546	2.499021	-0.702131	0.296697	-0.553153	-0.336161
35548	-9.148217	0.114250	2.261048	-0.707101	0.285021	-0.557372	-0.328796
35549	-9.023162	0.572163	2.254184	-0.710905	0.275190	-0.560934	-0.322859
35550	-9.297574	0.269692	1.793161	-0.713377	0.267784	-0.563711	-0.318772
35551	-9.907172	-0.279256	1.300061	-0.714841	0.261976	-0.566195	-0.315901
35552	-10.101580	-0.604582	0.592575	-0.715998	0.256610	-0.568414	-0.313694
35553	-9.744197	-0.438678	0.423907	-0.717061	0.251378	-0.570785	-0.311187
35554	-9.722891	0.480143	0.588076	-0.717968	0.247139	-0.572859	-0.308670
35555	-9.485601	1.162186	0.733006	-0.718231	0.245767	-0.573789	-0.307423
35556	-9.359721	0.267382	0.562578	-0.717845	0.247324	-0.573669	-0.307301
35557	-9.331016	-0.768938	0.461677	-0.717488	0.249343	-0.573538	-0.306746
35558	-9.259605	-1.081169	0.635864	-0.717508	0.250466	-0.573933	-0.305041
35559	-9.213595	-0.874553	0.806143	-0.717612	0.250698	-0.575177	-0.302251
35560	-9.450503	-0.156932	0.991329	-0.717654	0.250440	-0.576917	-0.299031
35561	-9.532866	0.164381	1.252546	-0.717318	0.250921	-0.578617	-0.296135
35562	-9.529515	0.087804	1.204981	-0.716570	0.252462	-0.580228	-0.293471
35563	-9.560064	-0.245367	1.121795	-0.715505	0.254617	-0.581830	-0.291025
35564	-9.652775	-0.499403	1.197661	-0.714459	0.256357	-0.583693	-0.288326
35565	-9.668607	-0.316012	1.478194	-0.713425	0.257637	-0.585858	-0.285340
35566	-9.793220	-0.206771	1.545890	-0.712358	0.258627	-0.588225	-0.282223
35567	-9.898602	-0.205587	1.732206	-0.711219	0.259594	-0.590646	-0.279135
35568	-10.045761	-0.447638	1.756389	-0.710020	0.260554	-0.593097	-0.276078
35569	-10.107658	-0.563591	1.710391	-0.709029	0.261005	-0.595650	-0.272680
35570	-10.193218	-0.286543	1.715015	-0.708275	0.260983	-0.598245	-0.268956
35571	-10.126597	-0.177235	1.772707	-0.707743	0.260872	-0.600595	-0.265200
35572	-10.039513	-0.389111	1.727701	-0.707312	0.260657	-0.602862	-0.261390
35573	-9.974679	-0.451412	1.707392	-0.707198	0.259790	-0.605152	-0.257237
35574	-9.824570	-0.415103	1.787160	-0.707310	0.258373	-0.607429	-0.252955
35575	-9.914409	-0.415962	1.657610	-0.707634	0.256472	-0.609744	-0.248373
35576	-10.099195	-0.396509	1.544943	-0.708261	0.253984	-0.612012	-0.243515
35577	-10.045265	-0.363057	1.360869	-0.709181	0.250850	-0.614279	-0.238322
35578	-10.010658	-0.251556	1.228353	-0.710228	0.247196	-0.616627	-0.232897
35579	-10.072101	-0.221199	1.135887	-0.711330	0.242907	-0.619163	-0.227250
35580	-10.126539	0.236553	1.238297	-0.712287	0.238442	-0.621733	-0.221902
35581	-9.941790	0.487739	1.205535	-0.712764	0.234732	-0.624126	-0.217565
35582	-9.561493	0.486681	1.159328	-0.712741	0.231863	-0.626399	-0.214161
35583	-9.395505	0.037157	1.272866	-0.712246	0.229286	-0.628886	-0.211274
35584	-9.451935	-0.671691	1.156139	-0.711512	0.225784	-0.631926	-0.208426
35585	-9.539021	-0.617844	1.122711	-0.710792	0.220372	-0.635725	-0.205098
35586	-9.663326	0.419444	1.232441	-0.709881	0.214610	-0.639625	-0.202217
35587	-9.508273	1.135924	1.272852	-0.708261	0.210739	-0.643079	-0.201009
35588	-9.465200	0.952492	1.029941	-0.705989	0.209126	-0.645950	-0.201482
35589	-9.610943	0.156980	0.892555	-0.703656	0.208269	-0.648410	-0.202625
35590	-9.675557	-0.270403	0.761448	-0.701697	0.206627	-0.650859	-0.203246
35591	-9.710671	-0.036170	0.846474	-0.700097	0.204170	-0.653392	-0.203121
35592	-9.762638	0.394873	0.926610	-0.698606	0.201921	-0.655680	-0.203127
35593	-9.584612	0.693165	0.965809	-0.696959	0.200754	-0.657545	-0.203911
35594	-9.505630	0.455124	0.989992	-0.694947	0.200879	-0.659091	-0.205658
35595	-9.645684	-0.143420	0.864754	-0.692840	0.201386	-0.660471	-0.207833
35596	-9.917209	-0.385037	0.878457	-0.690914	0.201180	-0.661964	-0.209687
35597	-10.111896	-0.172527	0.934744	-0.689220	0.200442	-0.663488	-0.211147
35598	-10.212375	0.102676	0.924487	-0.687645	0.200010	-0.664763	-0.212675
35599	-10.184550	-0.003617	0.918051	-0.686167	0.200021	-0.665754	-0.214331
35600	-10.150705	0.065596	0.899789	-0.684774	0.200548	-0.666450	-0.216124
35601	-10.073584	-0.139277	0.835005	-0.683467	0.201599	-0.666785	-0.218241
35602	-9.963856	-0.299438	0.826730	-0.682576	0.202627	-0.666781	-0.220081
35603	-9.887155	-0.179715	0.951729	-0.682099	0.203700	-0.666415	-0.221672
35604	-9.877670	-0.154898	0.979988	-0.681979	0.204971	-0.665680	-0.223074
35605	-9.858465	-0.324121	0.998074	-0.682097	0.206360	-0.664726	-0.224272
35606	-9.877522	-0.375636	0.989357	-0.682497	0.207727	-0.663548	-0.225283
35607	-9.900922	-0.398647	0.931976	-0.683015	0.209233	-0.662222	-0.226218
35608	-9.962970	-0.322370	0.957917	-0.683697	0.210865	-0.660685	-0.227133
35609	-10.037951	-0.397401	0.957850	-0.684362	0.212871	-0.658966	-0.228251
35610	-10.007436	-0.529143	0.829242	-0.685182	0.214978	-0.657017	-0.229432
35611	-9.954002	-0.521455	0.975770	-0.686168	0.216929	-0.655033	-0.230319
35612	-9.864940	-0.314340	0.966807	-0.687254	0.218988	-0.652932	-0.231097
35613	-9.877090	-0.335257	0.937735	-0.688327	0.221365	-0.650676	-0.231999
35614	-9.903234	-0.494050	0.859575	-0.689442	0.223856	-0.648315	-0.232907
35615	-9.857086	-0.649946	0.949096	-0.690621	0.226172	-0.645959	-0.233721
35616	-9.782465	-0.650723	0.848354	-0.691892	0.228064	-0.643754	-0.234208
35617	-9.818599	-0.248839	0.897404	-0.693221	0.229769	-0.641541	-0.234681
35618	-9.826925	-0.036233	0.879434	-0.694389	0.231947	-0.639181	-0.235528
35619	-9.817137	-0.033657	0.868381	-0.695441	0.234541	-0.636660	-0.236677
35620	-9.785971	-0.245307	0.921388	-0.696463	0.237232	-0.634085	-0.237899
35621	-9.737456	-0.337906	0.924797	-0.697519	0.239643	-0.631630	-0.238917
35622	-9.744674	-0.143061	0.987787	-0.698603	0.241887	-0.629206	-0.239887
35623	-9.636917	-0.108536	1.004322	-0.699537	0.244380	-0.626729	-0.241118
35624	-9.605068	-0.193971	0.944934	-0.700330	0.247016	-0.624245	-0.242568
35625	-9.660384	-0.231141	0.934872	-0.700932	0.249857	-0.621717	-0.244404
35626	-9.554657	-0.362316	0.907707	-0.701373	0.252720	-0.619285	-0.246363
35627	-9.611880	-0.384914	0.979118	-0.701702	0.255558	-0.616977	-0.248282
35628	-9.811078	-0.562419	0.945254	-0.701999	0.258200	-0.614778	-0.250155
35629	-9.945413	-0.582764	0.910915	-0.702431	0.260403	-0.612707	-0.251736
35630	-9.914997	-0.314666	0.868658	-0.703010	0.262412	-0.610625	-0.253089
35631	-9.774024	-0.285063	0.924798	-0.703609	0.264809	-0.608315	-0.254488
35632	-9.534388	-0.508766	0.970178	-0.704147	0.267523	-0.605947	-0.255807
35633	-9.451804	-0.653157	1.049263	-0.704655	0.270209	-0.603573	-0.257192
35634	-9.392365	-0.817057	1.142454	-0.705162	0.272694	-0.601283	-0.258541
35635	-9.384051	-0.972947	1.056474	-0.705693	0.274735	-0.599288	-0.259562
35636	-9.436622	-1.019061	0.976887	-0.706304	0.276201	-0.597633	-0.260159
35637	-9.503469	-1.062787	0.940655	-0.707073	0.276959	-0.596350	-0.260208
35638	-9.536627	-0.953372	0.953213	-0.707915	0.277130	-0.595481	-0.259726
35639	-9.584929	-0.844506	0.962811	-0.708645	0.277024	-0.594923	-0.259126
35640	-9.724573	-0.790389	0.958103	-0.709224	0.276880	-0.594582	-0.258479
35641	-9.809483	-0.611731	0.955587	-0.709657	0.276785	-0.594418	-0.257767
35642	-9.751453	-0.408943	0.900404	-0.709896	0.277038	-0.594258	-0.257207
35643	-9.727528	-0.441604	0.958515	-0.710004	0.277573	-0.594081	-0.256739
35644	-9.672308	-0.526810	1.045456	-0.710053	0.278235	-0.593974	-0.256135
35645	-9.686462	-0.478568	1.182328	-0.710029	0.278963	-0.593928	-0.255517
35646	-9.603177	-0.555376	1.292687	-0.709884	0.279816	-0.593938	-0.254959
35647	-9.638612	-0.658792	1.272385	-0.709749	0.280504	-0.594083	-0.254242
35648	-9.637521	-0.666877	1.377341	-0.709700	0.280877	-0.594391	-0.253246
35649	-9.622756	-0.668344	1.482611	-0.709905	0.280636	-0.594878	-0.251790
35650	-9.530490	-0.640189	1.894777	-0.710323	0.279728	-0.595644	-0.249801
35651	-9.515184	-0.538488	2.009380	-0.710779	0.278469	-0.596609	-0.247601
35652	-9.537046	-0.369879	2.073999	-0.711229	0.277015	-0.597678	-0.245352
35653	-9.669388	-0.140969	2.134480	-0.711837	0.275335	-0.598688	-0.243004
35654	-9.615369	0.377537	2.201937	-0.712551	0.273893	-0.599334	-0.240943
35655	-9.592333	0.193038	2.123182	-0.713185	0.272936	-0.599691	-0.239257
35656	-9.702659	-0.038561	2.200752	-0.713988	0.271737	-0.600000	-0.237445
35657	-9.575747	0.016665	2.358689	-0.714963	0.270061	-0.600347	-0.235538
35658	-9.235274	0.128269	2.465938	-0.715815	0.268068	-0.600942	-0.233702
35659	-9.073806	-0.174993	2.451039	-0.716461	0.265651	-0.601960	-0.231856
35660	-9.060029	-0.293170	2.460250	-0.717106	0.262088	-0.603625	-0.229578
35661	-9.025212	0.128369	2.535195	-0.717657	0.257846	-0.605721	-0.227125
35662	-8.935354	0.514013	2.499049	-0.717750	0.254103	-0.607944	-0.225103
35663	-9.207939	0.416964	2.385304	-0.717412	0.251158	-0.610153	-0.223501
35664	-9.431127	0.087347	2.184107	-0.716982	0.248330	-0.612362	-0.221995
35665	-9.597547	-0.110133	2.127875	-0.716586	0.245247	-0.614698	-0.220239
35666	-9.738720	-0.188599	2.082063	-0.716187	0.241990	-0.617206	-0.218112
35667	-9.752751	-0.118962	2.143772	-0.715745	0.238897	-0.619734	-0.215795
35668	-9.641922	-0.173710	2.195428	-0.715027	0.236644	-0.622109	-0.213815
35669	-9.729199	-0.685753	2.053941	-0.713882	0.235129	-0.624532	-0.212241
35670	-9.995322	-1.277011	1.861300	-0.712637	0.233478	-0.627121	-0.210608
35671	-10.388189	-1.741393	1.688714	-0.711558	0.230991	-0.629960	-0.208516
35672	-10.933533	-1.772911	1.460821	-0.710767	0.227454	-0.633051	-0.205723
35673	-11.023939	-1.348184	1.293925	-0.710407	0.223133	-0.636071	-0.202355
35674	-10.461958	-1.004534	1.353235	-0.710225	0.219043	-0.638764	-0.198951
35675	-9.899391	-1.389660	1.284233	-0.710122	0.215356	-0.641172	-0.195565
35676	-9.782957	-2.094517	1.167275	-0.710402	0.210918	-0.643563	-0.191490
35677	-9.965447	-2.376469	0.970785	-0.711384	0.204718	-0.646009	-0.186267
35678	-10.107024	-1.616154	0.967090	-0.713038	0.197228	-0.648207	-0.180295
35679	-10.061350	-0.920087	0.932299	-0.714695	0.190435	-0.649832	-0.175110
35680	-10.112868	-0.719036	0.800142	-0.716256	0.185280	-0.650677	-0.171077
35681	-10.248945	-0.886941	0.735076	-0.717697	0.181918	-0.650796	-0.168169
35682	-10.483633	-1.392557	0.567967	-0.719254	0.179536	-0.650350	-0.165790
35683	-10.583995	-1.723878	0.421263	-0.721135	0.177195	-0.649542	-0.163282
35684	-10.441344	-1.608651	0.278996	-0.723409	0.174583	-0.648440	-0.160391
35685	-9.996730	-1.351182	0.303830	-0.725930	0.172074	-0.647057	-0.157270
35686	-9.747516	-1.324263	0.355036	-0.728575	0.169864	-0.645457	-0.153977
35687	-9.670181	-1.440364	0.436771	-0.731308	0.167809	-0.643729	-0.150469
35688	-9.743985	-1.688306	0.440079	-0.734042	0.165672	-0.642032	-0.146730
35689	-9.810970	-1.683943	0.457072	-0.736817	0.163044	-0.640437	-0.142682
35690	-9.729616	-1.477757	0.553708	-0.739438	0.160354	-0.638928	-0.138886
35691	-9.699138	-1.406821	0.510355	-0.741894	0.157831	-0.637459	-0.135382
35692	-9.627266	-1.089251	0.531604	-0.744217	0.155479	-0.636032	-0.132025
35693	-9.424841	-0.899224	0.570346	-0.746330	0.153701	-0.634586	-0.129104
35694	-9.478831	-0.969428	0.520783	-0.748110	0.152574	-0.633245	-0.126701
35695	-9.691728	-1.108745	0.513142	-0.749725	0.151655	-0.631960	-0.124659
35696	-9.752711	-0.981734	0.627191	-0.751244	0.150761	-0.630716	-0.122885
35697	-9.656315	-0.842366	0.669372	-0.752509	0.150259	-0.629584	-0.121557
35698	-9.398028	-0.926911	0.713223	-0.753508	0.150039	-0.628654	-0.120445
35699	-9.088592	-1.088220	0.722354	-0.754303	0.149637	-0.628028	-0.119235
35700	-8.767318	-0.971658	0.968824	-0.754929	0.148741	-0.627771	-0.117735
35701	-8.725560	-0.764211	1.069595	-0.755341	0.147778	-0.627780	-0.116251
35702	-8.814483	-0.570703	1.090562	-0.755596	0.146980	-0.627898	-0.114957
35703	-8.865135	-0.594012	1.018118	-0.755727	0.146406	-0.628048	-0.114008
35704	-8.980468	-0.665003	1.033148	-0.755782	0.145658	-0.628311	-0.113151
35705	-9.041923	-0.599648	1.063700	-0.755756	0.144774	-0.628678	-0.112417
35706	-9.127638	-0.488075	1.232608	-0.755560	0.143965	-0.629209	-0.111798
35707	-9.394028	-0.454789	1.269932	-0.755090	0.143577	-0.629926	-0.111435
35708	-9.659826	-0.578793	1.297559	-0.754510	0.143270	-0.630741	-0.111152
35709	-9.712887	-0.675095	1.246508	-0.753898	0.142672	-0.631671	-0.110791
35710	-9.771987	-0.638581	1.212913	-0.753294	0.141599	-0.632706	-0.110369
35711	-9.925412	-0.544813	1.282011	-0.752644	0.140264	-0.633847	-0.109957
35712	-10.182929	-0.322022	1.430475	-0.751818	0.139142	-0.635090	-0.109863
35713	-10.248843	-0.074856	1.450723	-0.750878	0.138681	-0.636250	-0.110164
35714	-10.240041	-0.084896	1.466455	-0.749831	0.138952	-0.637324	-0.110739
35715	-10.326149	-0.353477	1.360904	-0.748857	0.139453	-0.638285	-0.111164
35716	-10.385294	-0.372970	1.327550	-0.748061	0.139661	-0.639169	-0.111186
35717	-10.227315	-0.162596	1.368279	-0.747536	0.139867	-0.639785	-0.110916
35718	-10.065075	0.041526	1.447985	-0.747117	0.140677	-0.640123	-0.110765
35719	-9.812956	0.176488	1.486938	-0.746866	0.142286	-0.639991	-0.111165
35720	-9.559289	-0.063098	1.519343	-0.746618	0.144767	-0.639549	-0.112168
35721	-9.535962	-0.402579	1.560253	-0.746387	0.147597	-0.638925	-0.113566
35722	-9.534065	-0.664241	1.741365	-0.746236	0.150490	-0.638120	-0.115276
35723	-9.598785	-0.846762	1.671438	-0.745981	0.153414	-0.637342	-0.117355
35724	-9.728319	-0.876579	1.562986	-0.745762	0.156161	-0.636488	-0.119732
35725	-9.735082	-0.873076	1.528778	-0.745557	0.158791	-0.635577	-0.122358
35726	-9.758306	-0.989278	1.421247	-0.745289	0.161450	-0.634673	-0.125168
35727	-9.834599	-1.253931	1.391721	-0.745032	0.163913	-0.633815	-0.127826
35728	-10.064601	-1.370448	1.357241	-0.744850	0.165929	-0.633043	-0.130089
35729	-10.245312	-1.227452	1.376140	-0.744751	0.167671	-0.632273	-0.132152
35730	-10.242559	-0.912197	1.301571	-0.744781	0.169639	-0.631258	-0.134302
35731	-10.012215	-0.674231	1.270085	-0.744946	0.172293	-0.629798	-0.136839
35732	-9.641438	-0.750034	1.228032	-0.745189	0.175778	-0.627893	-0.139806
35733	-9.344909	-1.104250	1.274065	-0.745494	0.179615	-0.625742	-0.142913
35734	-9.510461	-1.499708	1.339143	-0.745844	0.183354	-0.623535	-0.145949
35735	-9.855646	-1.738543	1.327459	-0.746267	0.186681	-0.621359	-0.148822
35736	-10.002769	-1.671374	1.321678	-0.746823	0.189320	-0.619263	-0.151414
35737	-9.660327	-1.360081	1.269768	-0.747389	0.191745	-0.617173	-0.154080
35738	-9.066774	-1.507209	1.324362	-0.747840	0.194155	-0.615204	-0.156726
35739	-9.001319	-1.875039	1.412900	-0.748004	0.196348	-0.613673	-0.159195
35740	-9.579501	-2.273737	1.324702	-0.747990	0.197802	-0.612626	-0.161478
35741	-10.059191	-2.088772	1.284490	-0.747988	0.198258	-0.611925	-0.163573
35742	-10.141238	-1.645388	1.226832	-0.747955	0.198378	-0.611348	-0.165720
35743	-9.880851	-1.282431	1.083918	-0.747816	0.198737	-0.610719	-0.168220
35744	-9.522744	-1.329966	1.077551	-0.747588	0.199480	-0.610009	-0.170905
35745	-9.459795	-1.711572	1.109977	-0.747306	0.200373	-0.609363	-0.173382
35746	-9.718329	-1.982904	1.067455	-0.747098	0.200828	-0.608879	-0.175440
35747	-9.728816	-1.750931	1.030978	-0.747226	0.200476	-0.608370	-0.177056
35748	-9.442311	-1.399586	1.065883	-0.747438	0.199876	-0.607837	-0.178662
35749	-9.085501	-1.374033	0.992316	-0.747443	0.199732	-0.607272	-0.180710
35750	-9.070211	-1.832081	1.122859	-0.747308	0.199478	-0.606871	-0.182884
35751	-9.053259	-2.050433	1.226712	-0.746943	0.198668	-0.606995	-0.184833
35752	-9.120441	-2.156191	1.161194	-0.746389	0.197263	-0.607619	-0.186520
35753	-9.180859	-2.167230	0.992391	-0.745853	0.194764	-0.608789	-0.187472
35754	-9.132953	-1.645087	0.900999	-0.745523	0.191185	-0.610280	-0.187624
35755	-8.822271	-0.953458	0.915245	-0.745262	0.187373	-0.611859	-0.187364
35756	-8.680108	-0.544441	1.023160	-0.744781	0.184272	-0.613431	-0.187210
35757	-8.813168	-0.436032	1.097385	-0.743952	0.182201	-0.615028	-0.187293
35758	-9.034894	-0.678999	1.361602	-0.742720	0.180856	-0.616805	-0.187642
35759	-9.123820	-0.896040	1.404262	-0.741122	0.179358	-0.619104	-0.187828
35760	-9.399965	-0.544733	1.424194	-0.739314	0.177092	-0.622009	-0.187505
35761	-9.503296	0.004167	1.487182	-0.737131	0.174671	-0.625463	-0.186879
35762	-9.547660	0.164979	1.502110	-0.734799	0.171944	-0.629320	-0.185638
35763	-9.514623	0.471109	1.753650	-0.732610	0.168654	-0.633367	-0.183534
35764	-9.315633	0.925794	1.889037	-0.730597	0.165253	-0.637326	-0.180929
35765	-9.463497	1.222263	1.967924	-0.728861	0.162327	-0.640823	-0.178205
35766	-9.950482	1.603611	2.015150	-0.727474	0.160440	-0.643538	-0.175781
35767	-10.449894	1.625198	1.881321	-0.726351	0.160138	-0.645331	-0.174120
35768	-10.815771	1.443459	1.784822	-0.725636	0.160863	-0.646274	-0.172933
35769	-10.959504	1.399298	1.935527	-0.725288	0.162458	-0.646462	-0.172194
35770	-11.012156	1.072329	2.090524	-0.725123	0.164931	-0.646078	-0.171981
35771	-10.899873	0.529701	2.144708	-0.725190	0.167603	-0.645337	-0.171896
35772	-10.547342	0.010239	2.185530	-0.725535	0.169596	-0.644533	-0.171505
35773	-10.176381	-0.270648	2.088379	-0.726115	0.170377	-0.643903	-0.170638
35774	-9.913467	-0.369213	2.088756	-0.726901	0.169824	-0.643507	-0.169334
35775	-9.805831	-0.256665	2.035580	-0.727831	0.168361	-0.643198	-0.167965
35776	-9.682005	-0.041928	1.873121	-0.728744	0.166635	-0.642928	-0.166760
35777	-9.798576	0.086298	1.642107	-0.729568	0.165332	-0.642529	-0.165987
35778	-9.890985	0.054724	1.453960	-0.730398	0.164628	-0.641863	-0.165614
35779	-9.986399	-0.102941	1.252159	-0.731352	0.164438	-0.640848	-0.165524
35780	-10.099748	-0.198730	1.032697	-0.732460	0.164622	-0.639490	-0.165698
35781	-10.118772	-0.230550	0.891533	-0.733779	0.165108	-0.637737	-0.166131
35782	-10.036448	-0.153475	0.858027	-0.735191	0.166160	-0.635619	-0.166954
35783	-9.881852	-0.304766	0.860453	-0.736423	0.168107	-0.633274	-0.168480
35784	-9.757076	-0.712780	0.839120	-0.737493	0.170485	-0.630881	-0.170374
35785	-9.626108	-1.030234	0.780535	-0.738521	0.172545	-0.628595	-0.172287
35786	-9.537490	-1.111371	0.718632	-0.739584	0.173745	-0.626556	-0.173940
35787	-9.512464	-0.778107	0.585052	-0.740748	0.174034	-0.624743	-0.175216
35788	-9.373193	-0.298014	0.591356	-0.741957	0.174002	-0.622947	-0.176524
35789	-9.336262	-0.110313	0.513334	-0.743081	0.174235	-0.621061	-0.178199
35790	-9.339106	-0.234808	0.478567	-0.744136	0.174593	-0.619070	-0.180363
35791	-9.682570	-0.528043	0.282529	-0.745217	0.174398	-0.617127	-0.182731
35792	-10.263150	-0.317002	0.146199	-0.746438	0.173272	-0.615276	-0.185048
35793	-10.652550	0.247615	0.135370	-0.747698	0.171931	-0.613330	-0.187652
35794	-10.855592	0.521080	0.184645	-0.748775	0.171109	-0.611299	-0.190711
35795	-10.931945	0.599608	0.151533	-0.749666	0.170925	-0.609147	-0.194231
35796	-10.990923	0.754592	0.262038	-0.750324	0.171348	-0.606986	-0.198044
35797	-11.249965	0.815781	0.518553	-0.750608	0.172708	-0.604854	-0.202267
35798	-11.479513	0.561645	0.811463	-0.750563	0.174702	-0.602803	-0.206791
35799	-11.393196	0.531769	1.006563	-0.750360	0.176769	-0.600853	-0.211396
35800	-10.590240	0.650662	1.351806	-0.750049	0.178968	-0.598924	-0.216071
35801	-9.533618	0.616063	1.552210	-0.749689	0.181063	-0.597082	-0.220628
35802	-8.731236	0.710551	1.750733	-0.749530	0.182692	-0.595256	-0.224719
35803	-8.235100	0.776643	1.981604	-0.749535	0.183954	-0.593493	-0.228306
35804	-8.348210	0.901478	2.257574	-0.749507	0.185283	-0.591819	-0.231647
35805	-8.504460	0.951044	2.551785	-0.749087	0.187492	-0.590172	-0.235400
35806	-8.816180	0.857496	2.645434	-0.748023	0.190959	-0.588570	-0.239961
35807	-9.134235	0.521119	2.596648	-0.746401	0.195392	-0.587027	-0.245166
35808	-9.289638	-0.049154	2.525820	-0.744504	0.199686	-0.585777	-0.250410
35809	-9.146236	-0.278578	2.481007	-0.742643	0.202851	-0.585073	-0.254995
35810	-9.005075	-0.218380	2.711101	-0.740792	0.204913	-0.585080	-0.258687
35811	-8.914283	0.033126	2.958153	-0.738831	0.206495	-0.585567	-0.261915
35812	-8.785624	0.251965	2.996746	-0.736778	0.208051	-0.586140	-0.265163
35813	-8.688762	0.331391	2.938986	-0.734579	0.209822	-0.586772	-0.268453
35814	-8.757516	0.276701	2.927793	-0.732242	0.211844	-0.587430	-0.271791
35815	-8.892379	0.162874	2.911995	-0.729943	0.213904	-0.588061	-0.274976
35816	-9.008015	0.002442	3.000408	-0.727761	0.215751	-0.588732	-0.277869
35817	-9.091330	-0.035331	3.040748	-0.725589	0.217360	-0.589522	-0.280604
35818	-9.107380	-0.063074	3.028835	-0.723379	0.218930	-0.590282	-0.283478
35819	-9.213663	-0.317847	2.940086	-0.721129	0.220334	-0.591183	-0.286232
35820	-9.205858	-0.166615	3.011734	-0.719039	0.221370	-0.592169	-0.288642
35821	-9.080069	0.107442	3.111882	-0.717047	0.222482	-0.593045	-0.290934
35822	-8.896750	0.329597	3.099078	-0.715200	0.224102	-0.593552	-0.293195
35823	-8.754217	0.204090	3.044725	-0.713467	0.226316	-0.593644	-0.295520
35824	-8.757513	-0.177439	2.928933	-0.711836	0.228775	-0.593506	-0.297828
35825	-9.001076	-0.575509	2.931809	-0.710498	0.230724	-0.593387	-0.299750
35826	-9.232389	-0.622708	2.977228	-0.709580	0.231609	-0.593493	-0.301031
35827	-9.556643	-0.352661	2.974302	-0.708814	0.232067	-0.593759	-0.301957
35828	-9.737333	-0.134044	2.994462	-0.708136	0.232562	-0.594012	-0.302670
35829	-9.713389	-0.009949	2.991299	-0.707574	0.233322	-0.594104	-0.303217
35830	-9.581648	-0.128007	2.977256	-0.707194	0.234054	-0.594150	-0.303449
35831	-9.439380	-0.319378	2.953205	-0.707086	0.234310	-0.594232	-0.303341
35832	-9.483419	-0.475600	2.855931	-0.707309	0.233724	-0.594515	-0.302719
35833	-9.582217	-0.184647	2.868521	-0.707917	0.232206	-0.594931	-0.301648
35834	-9.681279	0.349338	2.918979	-0.708697	0.230524	-0.595177	-0.300619
35835	-9.698439	0.853813	2.792811	-0.709555	0.229641	-0.594737	-0.300141
35836	-9.694220	0.721064	2.541177	-0.710465	0.229733	-0.593565	-0.300237
35837	-9.741231	0.366775	2.385351	-0.711658	0.229993	-0.591973	-0.300357
35838	-9.778434	0.047313	2.409709	-0.713095	0.229883	-0.590343	-0.300239
35839	-9.949589	-0.003957	2.524283	-0.714675	0.229208	-0.588837	-0.299958
35840	-10.321821	-0.151285	2.705907	-0.716118	0.228312	-0.587523	-0.299775
35841	-10.814158	-0.349166	2.620002	-0.717323	0.227213	-0.586527	-0.299680
35842	-11.152649	-0.246254	2.594217	-0.718552	0.225534	-0.585819	-0.299388
35843	-11.051555	0.081416	2.679529	-0.719883	0.223579	-0.585200	-0.298868
35844	-10.655234	0.507915	2.730294	-0.721372	0.221954	-0.584297	-0.298255
35845	-10.126620	0.629973	2.771806	-0.723043	0.221163	-0.582751	-0.297821
35846	-9.788457	0.338343	2.832862	-0.725013	0.220997	-0.580538	-0.297476
35847	-9.760012	-0.117302	2.824561	-0.727177	0.220921	-0.578034	-0.297126
35848	-10.076241	-0.331092	2.846326	-0.729519	0.220490	-0.575503	-0.296620
35849	-10.240625	-0.074240	2.872289	-0.731924	0.219922	-0.572893	-0.296166
35850	-9.924026	0.057448	2.994851	-0.734268	0.219539	-0.570242	-0.295766
35851	-9.305002	-0.132791	3.077753	-0.736641	0.219106	-0.567613	-0.295243
35852	-8.871145	-0.622870	2.976729	-0.739164	0.217803	-0.565430	-0.294088
35853	-8.925474	-0.755137	2.815409	-0.741878	0.214932	-0.564091	-0.291928
35854	-9.348500	-0.261016	2.795132	-0.744633	0.210878	-0.563352	-0.289286
35855	-9.460798	0.419985	2.836224	-0.747152	0.206906	-0.562660	-0.286996
35856	-9.090467	0.601847	2.834017	-0.749214	0.204056	-0.561730	-0.285479
35857	-8.657783	0.195590	2.648465	-0.750948	0.201695	-0.560871	-0.284288
35858	-8.736815	-0.122786	2.639996	-0.752443	0.198927	-0.560564	-0.282887
35859	-9.190987	0.033413	2.580236	-0.753835	0.195458	-0.560776	-0.281175
35860	-9.346390	0.421637	2.613713	-0.755087	0.191992	-0.561172	-0.279406
35861	-8.795514	0.626884	2.550727	-0.756190	0.188996	-0.561508	-0.277787
35862	-8.051162	0.491011	2.507662	-0.757263	0.186013	-0.561933	-0.276014
35863	-7.866507	0.314452	2.584059	-0.758296	0.182525	-0.562815	-0.273700
35864	-8.496305	0.409015	2.582698	-0.759011	0.178815	-0.564258	-0.271185
35865	-9.319665	0.705154	2.739617	-0.759420	0.175369	-0.565910	-0.268835
35866	-9.565485	0.930524	2.928855	-0.759528	0.172793	-0.567387	-0.267079
35867	-8.874391	0.983386	2.779750	-0.759529	0.170823	-0.568554	-0.265859
35868	-8.082015	0.878270	2.794707	-0.759586	0.168683	-0.569791	-0.264410
35869	-8.094024	0.670401	2.943938	-0.759676	0.166034	-0.571374	-0.262406
35870	-8.830007	0.835216	3.057234	-0.759813	0.162773	-0.573267	-0.259912
35871	-9.141509	1.350472	3.334575	-0.759820	0.159692	-0.575201	-0.257518
35872	-9.031217	1.532550	3.538598	-0.759464	0.157877	-0.576875	-0.255937
35873	-8.648908	1.036727	3.462006	-0.758922	0.156703	-0.578395	-0.254835
35874	-8.500864	0.661765	3.356471	-0.758384	0.154789	-0.580320	-0.253222
35875	-8.860072	0.899514	3.443429	-0.758116	0.151690	-0.582485	-0.250919
35876	-9.255856	1.495641	3.479833	-0.758040	0.148076	-0.584635	-0.248295
35877	-9.511749	2.016651	3.551344	-0.758099	0.145050	-0.586302	-0.245961
35878	-9.255436	2.029379	3.545961	-0.758175	0.143300	-0.587360	-0.244221
35879	-8.831415	1.678217	3.493056	-0.758402	0.142037	-0.587970	-0.242781
35880	-8.374216	1.609262	3.477954	-0.758898	0.140626	-0.588294	-0.241265
35881	-8.065641	1.730227	3.350787	-0.759669	0.139110	-0.588308	-0.239675
35882	-7.981013	1.871225	3.165839	-0.760678	0.137659	-0.588040	-0.237964
35883	-8.221998	1.867044	3.076386	-0.761786	0.136455	-0.587547	-0.236329
35884	-8.808246	1.706812	3.056587	-0.762693	0.135742	-0.587158	-0.234775
35885	-9.510302	1.535704	2.915408	-0.763242	0.135520	-0.587010	-0.233483
35886	-9.926470	1.336564	2.836443	-0.763617	0.135385	-0.587076	-0.232168
35887	-10.017875	1.359040	2.789138	-0.763875	0.135043	-0.587386	-0.230730
35888	-9.591236	1.501878	2.772704	-0.764155	0.134543	-0.587777	-0.229091
35889	-9.195650	1.554584	2.768838	-0.764281	0.133821	-0.588488	-0.227262
35890	-9.250175	1.546082	2.883064	-0.764270	0.132999	-0.589391	-0.225437
35891	-9.407782	1.572342	2.955323	-0.764109	0.132360	-0.590283	-0.224017
35892	-9.532605	1.684594	2.871854	-0.763757	0.132366	-0.591047	-0.223198
35893	-9.708735	1.537179	2.737332	-0.763306	0.132923	-0.591617	-0.222901
35894	-9.699974	1.360269	2.600916	-0.762762	0.133748	-0.592067	-0.223076
35895	-9.664030	1.123653	2.557435	-0.762128	0.134582	-0.592532	-0.223504
35896	-9.802730	0.792664	2.551720	-0.761347	0.135258	-0.593180	-0.224039
35897	-10.397491	0.414952	2.481128	-0.760252	0.135682	-0.594283	-0.224577
35898	-11.302069	0.081062	2.382432	-0.758789	0.135656	-0.595975	-0.225058
35899	-11.774798	-0.074649	2.128268	-0.757208	0.134911	-0.597973	-0.225528
35900	-10.731463	0.456005	2.021521	-0.755954	0.133381	-0.599783	-0.225838
35901	-9.341209	0.777652	2.205884	-0.754759	0.132262	-0.601320	-0.226405
35902	-8.407354	0.497935	2.114683	-0.753521	0.131912	-0.602599	-0.227333
35903	-7.979240	-0.002136	2.175708	-0.752453	0.131487	-0.603739	-0.228089
35904	-8.029378	-0.395483	2.237776	-0.751414	0.130760	-0.604988	-0.228623
35905	-8.457073	-0.691843	2.071438	-0.750311	0.129637	-0.606468	-0.228962
35906	-9.047944	-0.847765	1.912700	-0.749156	0.127885	-0.608211	-0.229108
35907	-9.515665	-0.668621	1.805261	-0.747969	0.125874	-0.610053	-0.229203
35908	-9.702780	-0.426126	1.608343	-0.746614	0.124509	-0.611851	-0.229574
35909	-9.756304	-0.404725	1.349409	-0.745224	0.123885	-0.613485	-0.230064
35910	-9.684991	-0.515257	1.036848	-0.743978	0.123590	-0.614989	-0.230241
35911	-9.687273	-0.516225	1.008319	-0.743054	0.123144	-0.616359	-0.229801
35912	-9.711108	-0.416391	1.000950	-0.742516	0.122636	-0.617483	-0.228790
35913	-9.692028	-0.172737	1.085109	-0.742260	0.122585	-0.618299	-0.227440
35914	-9.761109	-0.109172	1.063936	-0.742086	0.123510	-0.618776	-0.226210
35915	-9.882241	-0.282556	0.933723	-0.741861	0.125365	-0.619035	-0.225215
35916	-9.893695	-0.220990	0.792379	-0.741701	0.127454	-0.619226	-0.224042
35917	-9.913917	0.071858	0.779694	-0.741673	0.129812	-0.619248	-0.222714
35918	-9.829436	0.284825	0.736466	-0.741701	0.132874	-0.619030	-0.221418
35919	-9.940642	0.246074	0.711200	-0.741866	0.136744	-0.618473	-0.220061
35920	-9.954962	0.094083	0.770974	-0.742141	0.141118	-0.617750	-0.218395
35921	-9.887013	0.043603	1.004784	-0.742417	0.145435	-0.617101	-0.216453
35922	-9.839404	0.040409	1.254125	-0.742555	0.149570	-0.616631	-0.214490
35923	-9.729850	0.017159	1.379233	-0.742541	0.153558	-0.616378	-0.212443
35924	-9.469615	0.139837	1.463899	-0.742334	0.157414	-0.616385	-0.210314
35925	-9.383294	-0.171255	1.635159	-0.741862	0.161009	-0.616715	-0.208277
35926	-9.552964	-0.604871	1.547009	-0.741158	0.163289	-0.617716	-0.206031
35927	-9.770046	-0.282541	1.812151	-0.740542	0.163742	-0.619251	-0.203261
35928	-9.879231	0.216306	2.005054	-0.739696	0.163790	-0.621074	-0.200721
35929	-9.994654	0.286995	1.965225	-0.738585	0.164048	-0.622993	-0.198646
35930	-10.174085	0.153357	1.954270	-0.737425	0.164361	-0.624884	-0.196748
35931	-10.266486	-0.032907	1.957744	-0.736344	0.164343	-0.626736	-0.194914
35932	-10.207737	-0.104647	1.853262	-0.735481	0.163594	-0.628574	-0.192872
35933	-10.196230	0.129032	1.849463	-0.734879	0.162149	-0.630349	-0.190580
35934	-10.231631	0.478422	1.893694	-0.734567	0.160607	-0.631781	-0.188333
35935	-10.285958	0.636616	2.003113	-0.734421	0.159544	-0.632783	-0.186436
35936	-10.307155	0.482390	1.972011	-0.734478	0.159084	-0.633282	-0.184902
35937	-10.215075	0.260077	1.877859	-0.734816	0.158724	-0.633409	-0.183425
35938	-10.149850	0.265714	1.796843	-0.735518	0.158165	-0.633197	-0.181819
35939	-10.105275	0.259115	1.804524	-0.736462	0.157600	-0.632732	-0.180099
35940	-10.069958	0.258812	1.707530	-0.737625	0.156973	-0.632047	-0.178285
35941	-10.000885	0.286147	1.729354	-0.738989	0.156245	-0.631165	-0.176390
35942	-9.973412	0.336820	1.670108	-0.740412	0.155850	-0.630057	-0.174724
35943	-9.901704	0.223490	1.575026	-0.741827	0.155844	-0.628763	-0.173385
35944	-9.802119	0.067082	1.526413	-0.743256	0.155915	-0.627405	-0.172113
35945	-9.763093	0.045213	1.448795	-0.744647	0.156058	-0.626024	-0.170998
35946	-9.708615	-0.095409	1.427432	-0.746056	0.156002	-0.624702	-0.169736
35947	-9.665871	-0.218491	1.322596	-0.747501	0.155643	-0.623482	-0.168193
35948	-9.697250	-0.227796	1.319747	-0.748962	0.154876	-0.622397	-0.166407
35949	-9.634924	-0.120130	1.304194	-0.750505	0.153883	-0.621309	-0.164430
35950	-9.714454	-0.200721	1.406157	-0.751992	0.153031	-0.620267	-0.162353
35951	-9.602165	-0.426797	1.317142	-0.753307	0.152219	-0.619423	-0.160224
35952	-9.495064	-0.648283	1.188697	-0.754261	0.151180	-0.619114	-0.157900
35953	-9.507653	-0.887535	0.908755	-0.755051	0.149526	-0.619246	-0.155161
35954	-9.481882	-1.003495	0.796745	-0.755758	0.146902	-0.619907	-0.151539
35955	-9.456160	-0.868641	0.662777	-0.756555	0.143429	-0.620835	-0.147024
35956	-9.330124	-0.508291	0.664049	-0.757394	0.139621	-0.621900	-0.141776
35957	-9.079141	0.071535	0.981997	-0.757794	0.136702	-0.623148	-0.136921
35958	-9.058855	-0.028311	0.993190	-0.757603	0.135559	-0.624377	-0.133474
35959	-9.172487	-0.569503	1.033511	-0.756950	0.135553	-0.625754	-0.130707
35960	-9.250124	-0.938780	1.070828	-0.756090	0.135906	-0.627277	-0.127991
35961	-9.340206	-1.167617	1.026655	-0.755253	0.135954	-0.628907	-0.124839
35962	-9.445007	-1.043072	1.078871	-0.754464	0.135367	-0.630747	-0.120909
35963	-9.501307	-0.733945	1.315802	-0.753675	0.134579	-0.632676	-0.116545
35964	-9.528943	-0.509414	1.520893	-0.752717	0.134106	-0.634681	-0.112312
35965	-9.708260	-0.669584	1.541848	-0.751489	0.134170	-0.636793	-0.108433
35966	-9.822757	-0.843304	1.565238	-0.750215	0.134266	-0.638935	-0.104461
35967	-9.973187	-0.852758	1.670169	-0.749013	0.134070	-0.641059	-0.100244
35968	-10.080037	-0.881321	1.706036	-0.747940	0.133316	-0.643179	-0.095569
35969	-10.217673	-0.772864	1.823511	-0.747130	0.131694	-0.645235	-0.090141
35970	-10.330136	-0.690552	1.811987	-0.746697	0.129360	-0.647063	-0.083775
35971	-10.339549	-0.785102	1.873629	-0.746728	0.126137	-0.648604	-0.076155
35972	-10.356626	-0.881951	1.830728	-0.747211	0.121773	-0.649892	-0.066990
35973	-10.331793	-0.804285	1.803603	-0.748116	0.116125	-0.650892	-0.056367
35974	-10.418593	-0.607696	1.802809	-0.749273	0.109490	-0.651609	-0.044798
35975	-10.469328	-0.336869	1.806051	-0.750583	0.102648	-0.651929	-0.032831
35976	-10.525693	-0.116854	1.923274	-0.752007	0.096059	-0.651782	-0.020921
35977	-10.410283	0.029793	2.126526	-0.753527	0.090054	-0.651157	-0.009037
35978	-10.494710	-0.004169	2.141284	-0.754871	0.084839	-0.650356	0.002993
35979	-10.785155	-0.221527	2.057209	-0.756318	0.079686	-0.649135	0.016018
35980	-11.170487	-0.427042	1.932476	-0.758334	0.073873	-0.646946	0.030551
35981	-11.663504	-0.773162	1.671229	-0.761307	0.067313	-0.643174	0.046990
35982	-11.665777	-1.105510	1.597404	-0.765094	0.060181	-0.637760	0.065353
35983	-11.582960	-1.130250	1.788806	-0.769003	0.053036	-0.631298	0.085348
35984	-11.365914	-1.036962	2.151060	-0.772751	0.047396	-0.623994	0.106027
35985	-10.930875	-1.701453	2.360594	-0.776138	0.043410	-0.616223	0.126469
35986	-10.356140	-2.143469	2.392317	-0.779202	0.040369	-0.608132	0.146253
35987	-9.740500	-2.201269	2.624207	-0.782233	0.038451	-0.599597	0.164669
35988	-8.703096	-2.469589	2.774761	-0.785074	0.037741	-0.591041	0.181395
35989	-8.153866	-2.612613	2.876782	-0.787486	0.037998	-0.582907	0.196572
35990	-7.876966	-2.399208	2.940918	-0.789076	0.039561	-0.575929	0.209999
35991	-7.555403	-2.828964	2.982704	-0.790073	0.042053	-0.569861	0.221977
35992	-7.588060	-3.705341	2.734178	-0.790687	0.044330	-0.564381	0.233073
35993	-7.867293	-3.794135	2.746315	-0.790900	0.045550	-0.559246	0.244226
35994	-7.484052	-3.688031	2.797909	-0.790865	0.046461	-0.554417	0.254944
