// Start Time: Unknown
// Update Rate: 60.0Hz
// Filter Profile: human (46.1)
// Option Flags: AHS Disabled ICC Disabled 
// Firmware Version: 4.3.5
PacketCounter	Acc_X	Acc_Y	Acc_Z	Quat_q0	Quat_q1	Quat_q2	Quat_q3
43442	-5.449479	0.505629	8.104867	0.956196	0.024486	0.291664	0.004737
43443	-5.465182	0.514284	8.093556	0.956190	0.024424	0.291686	0.004761
43444	-5.470633	0.492107	8.079694	0.956184	0.024394	0.291709	0.004785
43445	-5.456962	0.502098	8.089408	0.956185	0.024351	0.291708	0.004809
43446	-5.462227	0.491223	8.106689	0.956192	0.024318	0.291689	0.004817
43447	-5.443077	0.490581	8.099674	0.956192	0.024297	0.291690	0.004829
43448	-5.467892	0.499016	8.060947	0.956194	0.024283	0.291684	0.004846
43449	-5.448813	0.488784	8.085277	0.956199	0.024226	0.291673	0.004883
43450	-5.439849	0.519002	8.080869	0.956204	0.024215	0.291659	0.004860
43451	-5.439561	0.476950	8.081796	0.956209	0.024194	0.291642	0.004868
43452	-5.445195	0.487047	8.098464	0.956208	0.024175	0.291647	0.004873
43453	-5.474938	0.485546	8.077175	0.956209	0.024164	0.291645	0.004894
43454	-5.466122	0.495714	8.072977	0.956199	0.024170	0.291677	0.004911
43455	-5.442584	0.496023	8.079515	0.956199	0.024159	0.291676	0.004932
43456	-5.452789	0.475551	8.114212	0.956203	0.024141	0.291667	0.004926
43457	-5.453303	0.484580	8.082502	0.956199	0.024136	0.291678	0.004937
43458	-5.454071	0.493931	8.050599	0.956192	0.024155	0.291700	0.004922
43459	-5.445341	0.494647	8.077741	0.956190	0.024157	0.291707	0.004917
43460	-5.445969	0.484748	8.108739	0.956194	0.024149	0.291695	0.004917
43461	-5.456217	0.494519	8.111672	0.956201	0.024136	0.291673	0.004909
43462	-5.465810	0.472381	8.084320	0.956202	0.024122	0.291670	0.004919
43463	-5.446997	0.492689	8.076745	0.956206	0.024105	0.291659	0.004931
43464	-5.442730	0.492702	8.090276	0.956205	0.024097	0.291662	0.004957
43465	-5.443130	0.492366	8.090027	0.956212	0.024093	0.291638	0.004957
43466	-5.443574	0.482404	8.121156	0.956213	0.024080	0.291636	0.004966
43467	-5.458824	0.501501	8.078671	0.956211	0.024093	0.291644	0.004962
43468	-5.449741	0.481404	8.106404	0.956206	0.024079	0.291659	0.004978
43469	-5.455527	0.501299	8.091565	0.956207	0.024077	0.291658	0.004989
43470	-5.455577	0.489883	8.060468	0.956209	0.024081	0.291648	0.004991
43471	-5.446425	0.490282	8.087936	0.956215	0.024060	0.291634	0.004979
43472	-5.446654	0.489497	8.087829	0.956224	0.024033	0.291606	0.004977
43473	-5.442391	0.509938	8.101059	0.956231	0.024019	0.291584	0.004968
43474	-5.441871	0.477498	8.070682	0.956236	0.024009	0.291567	0.004964
43475	-5.461895	0.497430	8.076847	0.956249	0.023985	0.291527	0.004962
43476	-5.437613	0.487660	8.115360	0.956260	0.023955	0.291494	0.004956
43477	-5.442514	0.486287	8.101477	0.956267	0.023922	0.291474	0.004950
43478	-5.442229	0.474352	8.070626	0.956276	0.023905	0.291445	0.004957
43479	-5.433017	0.495126	8.097846	0.956290	0.023868	0.291401	0.004943
43480	-5.452325	0.482824	8.073745	0.956293	0.023840	0.291394	0.004927
43481	-5.442238	0.451117	8.071076	0.956304	0.023830	0.291359	0.004918
43482	-5.452820	0.501832	8.073208	0.956320	0.023772	0.291314	0.004913
43483	-5.437721	0.490546	8.084291	0.956342	0.023712	0.291245	0.004897
43484	-5.451571	0.468460	8.105932	0.956367	0.023636	0.291169	0.004878
43485	-5.451043	0.467002	8.106371	0.956386	0.023601	0.291112	0.004852
43486	-5.436092	0.456124	8.117314	0.956398	0.023558	0.291074	0.004866
43487	-5.446151	0.474951	8.089035	0.956403	0.023527	0.291062	0.004845
43488	-5.422061	0.474086	8.096048	0.956413	0.023436	0.291035	0.004850
43489	-5.470753	0.471279	8.081943	0.956427	0.023390	0.290992	0.004845
43490	-5.421512	0.450802	8.096845	0.956442	0.023364	0.290946	0.004837
43491	-5.441068	0.459454	8.072271	0.956448	0.023344	0.290929	0.004844
43492	-5.422390	0.470313	8.096048	0.956447	0.023344	0.290932	0.004847
43493	-5.437482	0.479707	8.085102	0.956456	0.023327	0.290902	0.004853
43494	-5.422865	0.469186	8.095795	0.956464	0.023302	0.290879	0.004843
43495	-5.437449	0.457745	8.085469	0.956470	0.023301	0.290859	0.004847
43496	-5.428147	0.458058	8.113044	0.956477	0.023269	0.290836	0.004859
43497	-5.438679	0.467928	8.115808	0.956471	0.023280	0.290856	0.004888
43498	-5.434516	0.477738	8.097885	0.956473	0.023265	0.290850	0.004905
43499	-5.424752	0.446600	8.094907	0.956469	0.023281	0.290861	0.004925
43500	-5.436049	0.468200	8.128240	0.956462	0.023305	0.290883	0.004952
43501	-5.436651	0.457365	8.096701	0.956449	0.023328	0.290922	0.004984
43502	-5.418984	0.499014	8.088138	0.956440	0.023323	0.290953	0.005013
43503	-5.443783	0.477256	8.081006	0.956440	0.023303	0.290954	0.005024
43504	-5.439767	0.467544	8.125790	0.956439	0.023285	0.290960	0.005040
43505	-5.431142	0.498075	8.121280	0.956441	0.023261	0.290955	0.005047
43506	-5.436472	0.476367	8.107339	0.956426	0.023254	0.291005	0.005048
43507	-5.437781	0.475873	8.106491	0.956415	0.023239	0.291040	0.005048
43508	-5.444142	0.495551	8.091327	0.956403	0.023216	0.291081	0.005067
43509	-5.439994	0.484194	8.073675	0.956397	0.023194	0.291102	0.005066
43510	-5.445557	0.473303	8.090725	0.956401	0.023157	0.291094	0.005060
43511	-5.445201	0.461127	8.059876	0.956415	0.023120	0.291051	0.005044
43512	-5.450646	0.491194	8.076526	0.956432	0.023057	0.290999	0.005024
43513	-5.439963	0.469485	8.105399	0.956470	0.022969	0.290884	0.004980
43514	-5.449060	0.468099	8.140616	0.956495	0.022892	0.290806	0.004948
43515	-5.427979	0.434769	8.104078	0.956516	0.022833	0.290745	0.004921
43516	-5.447262	0.442869	8.079690	0.956527	0.022800	0.290711	0.004904
43517	-5.438205	0.463501	8.106923	0.956538	0.022769	0.290677	0.004899
43518	-5.418631	0.462785	8.100243	0.956549	0.022737	0.290644	0.004881
43519	-5.422868	0.440733	8.087010	0.956563	0.022712	0.290598	0.004872
43520	-5.428321	0.441176	8.135256	0.956567	0.022703	0.290586	0.004873
43521	-5.438625	0.450889	8.138193	0.956574	0.022688	0.290564	0.004867
43522	-5.428976	0.449790	8.103491	0.956572	0.022681	0.290572	0.004884
43523	-5.444392	0.459284	8.092317	0.956571	0.022681	0.290575	0.004887
43524	-5.425955	0.470398	8.115999	0.956570	0.022683	0.290579	0.004900
43525	-5.421205	0.459468	8.098709	0.956573	0.022676	0.290569	0.004915
43526	-5.435867	0.448357	8.088252	0.956578	0.022686	0.290551	0.004921
43527	-5.422201	0.458977	8.098070	0.956570	0.022677	0.290577	0.004912
43528	-5.427580	0.458077	8.083813	0.956577	0.022666	0.290557	0.004926
43529	-5.423327	0.458264	8.097357	0.956573	0.022670	0.290566	0.004948
43530	-5.414320	0.468354	8.093385	0.956577	0.022651	0.290557	0.004942
43531	-5.448991	0.477257	8.089162	0.956584	0.022636	0.290534	0.004933
43532	-5.424537	0.456600	8.096640	0.956588	0.022619	0.290524	0.004922
43533	-5.429641	0.455335	8.082584	0.956593	0.022588	0.290508	0.004907
43534	-5.426009	0.465994	8.126930	0.956590	0.022561	0.290520	0.004909
43535	-5.431020	0.454048	8.081730	0.956585	0.022577	0.290537	0.004904
43536	-5.427062	0.454213	8.095082	0.956583	0.022558	0.290544	0.004922
43537	-5.418193	0.464495	8.091015	0.956579	0.022584	0.290554	0.004915
43538	-5.434082	0.464555	8.110896	0.956566	0.022575	0.290597	0.004931
43539	-5.454225	0.443185	8.117459	0.956565	0.022566	0.290604	0.004939
43540	-5.431185	0.464520	8.123556	0.956556	0.022590	0.290629	0.004960
43541	-5.421771	0.443518	8.088841	0.956541	0.022617	0.290677	0.004988
43542	-5.443125	0.464312	8.094129	0.956528	0.022645	0.290716	0.005003
43543	-5.443859	0.443593	8.093843	0.956518	0.022632	0.290750	0.005035
43544	-5.435304	0.453933	8.089566	0.956512	0.022642	0.290770	0.005065
43545	-5.426731	0.454909	8.116707	0.956507	0.022659	0.290784	0.005078
43546	-5.437701	0.465252	8.119155	0.956498	0.022674	0.290813	0.005103
43547	-5.423687	0.474642	8.066606	0.956489	0.022677	0.290839	0.005114
43548	-5.439099	0.453893	8.087017	0.956483	0.022676	0.290861	0.005122
43549	-5.445387	0.484673	8.103139	0.956492	0.022648	0.290832	0.005108
43550	-5.439543	0.452274	8.086809	0.956508	0.022606	0.290783	0.005090
43551	-5.429886	0.451956	8.114762	0.956524	0.022555	0.290734	0.005085
43552	-5.395094	0.450748	8.087815	0.956542	0.022502	0.290680	0.005073
43553	-5.429302	0.479343	8.083707	0.956571	0.022420	0.290590	0.005063
43554	-5.437535	0.446287	8.088492	0.956600	0.022348	0.290503	0.005022
43555	-5.427312	0.445404	8.116845	0.956626	0.022281	0.290424	0.004998
43556	-5.426207	0.432850	8.086444	0.956642	0.022239	0.290373	0.004966
43557	-5.407066	0.443229	8.110727	0.956654	0.022217	0.290337	0.004957
43558	-5.416790	0.462225	8.082679	0.956672	0.022185	0.290280	0.004951
43559	-5.412831	0.493057	8.127164	0.956691	0.022109	0.290224	0.004916
43560	-5.373486	0.502811	8.145223	0.956725	0.022046	0.290117	0.004831
43561	-5.428946	0.425087	8.074301	0.956738	0.021948	0.290084	0.004787
43562	-5.410512	0.465578	8.129273	0.956773	0.021828	0.289978	0.004702
43563	-5.439355	0.510484	8.077004	0.956813	0.021507	0.289872	0.004594
43564	-5.383635	0.455353	8.138755	0.956862	0.021276	0.289727	0.004487
43565	-5.404589	0.366772	8.134574	0.956893	0.021069	0.289642	0.004371
43566	-5.418567	0.342155	8.156008	0.956906	0.020938	0.289610	0.004297
43567	-5.429113	0.359458	8.127575	0.956900	0.020844	0.289637	0.004319
43568	-5.474332	0.366711	8.094953	0.956880	0.020813	0.289705	0.004355
43569	-5.447424	0.378803	8.145802	0.956865	0.020830	0.289751	0.004417
43570	-5.454124	0.399762	8.130490	0.956846	0.020875	0.289811	0.004490
43571	-5.411821	0.381793	8.129917	0.956803	0.020982	0.289942	0.004579
43572	-5.434686	0.384205	8.134292	0.956742	0.021166	0.290131	0.004609
43573	-5.497393	0.377195	8.120182	0.956648	0.021571	0.290412	0.004528
43574	-5.483293	0.356716	8.140908	0.956526	0.022301	0.290763	0.004325
43575	-5.423852	0.434074	8.141704	0.956373	0.023109	0.291203	0.004252
43576	-5.407101	0.447233	8.080414	0.956199	0.023844	0.291712	0.004279
43577	-5.436204	0.530672	8.047712	0.956058	0.024406	0.292126	0.004389
43578	-5.449239	0.562820	8.090047	0.955937	0.024904	0.292478	0.004500
43579	-5.537099	0.568739	8.035748	0.955838	0.025403	0.292760	0.004523
43580	-5.488498	0.529478	8.092746	0.955736	0.025942	0.293044	0.004516
43581	-5.507895	0.537773	8.046634	0.955623	0.026509	0.293364	0.004505
43582	-5.444630	0.498984	8.083213	0.955521	0.027050	0.293646	0.004549
43583	-5.449319	0.538016	8.047407	0.955442	0.027473	0.293861	0.004631
43584	-5.494797	0.598327	8.086164	0.955354	0.027899	0.294108	0.004662
43585	-5.530878	0.552025	8.018081	0.955267	0.028428	0.294339	0.004616
43586	-5.513572	0.676646	8.049106	0.955204	0.028933	0.294495	0.004506
43587	-5.541362	0.438203	8.096566	0.955144	0.029495	0.294638	0.004401
43588	-5.545354	0.369676	8.158317	0.955023	0.030252	0.294951	0.004428
43589	-5.651859	0.242460	8.177315	0.954857	0.031482	0.295356	0.004615
43590	-5.809488	0.527780	8.146603	0.954705	0.033299	0.295643	0.004963
43591	-5.882274	0.535171	8.090754	0.954649	0.035692	0.295536	0.005440
43592	-5.749281	0.627809	8.078959	0.954737	0.038258	0.294919	0.005953
43593	-5.783003	0.656827	8.071466	0.954950	0.040867	0.293871	0.006285
43594	-5.303459	0.360082	8.092279	0.955272	0.043423	0.292450	0.006556
43595	-5.092753	0.818831	7.997689	0.955544	0.045996	0.291159	0.006783
43596	-5.431642	1.537803	7.877268	0.955790	0.048184	0.289984	0.007335
43597	-5.046437	1.079406	7.890861	0.956035	0.049793	0.288888	0.007907
43598	-4.613252	1.408974	7.759106	0.956089	0.050869	0.288503	0.008473
43599	-4.868096	1.057339	7.965648	0.955911	0.051534	0.288965	0.008820
43600	-5.428159	1.442221	7.979286	0.955771	0.051879	0.289360	0.008990
43601	-5.070069	1.669821	7.845738	0.955603	0.051305	0.290014	0.009071
43602	-5.034326	0.811997	7.982081	0.955430	0.050042	0.290807	0.008983
43603	-5.234912	1.118419	7.993966	0.955135	0.048472	0.292046	0.008762
43604	-5.698171	0.735656	8.155777	0.954839	0.046973	0.293262	0.008540
43605	-5.750135	1.064079	8.065880	0.954540	0.045534	0.294466	0.008383
43606	-5.703393	0.912893	8.059634	0.954385	0.044224	0.295171	0.008258
43607	-5.448469	0.897991	8.041678	0.954207	0.042838	0.295953	0.008109
43608	-5.561527	0.850963	8.067815	0.954025	0.041416	0.296745	0.007925
43609	-5.711618	0.811478	8.075705	0.953907	0.039947	0.297330	0.007731
43610	-5.681060	0.803390	8.058592	0.953879	0.038557	0.297611	0.007536
43611	-5.692598	0.470750	8.108648	0.953886	0.037543	0.297720	0.007347
43612	-5.577322	0.494441	8.067844	0.953882	0.036861	0.297821	0.007236
43613	-5.605248	0.635808	8.020121	0.953863	0.036391	0.297940	0.007222
43614	-5.597685	0.616932	8.016456	0.953852	0.035981	0.298026	0.007237
43615	-5.614985	0.863652	7.930496	0.953874	0.035541	0.298008	0.007269
43616	-5.487854	0.775419	7.988190	0.953944	0.034971	0.297853	0.007169
43617	-5.535741	0.835661	8.003414	0.954051	0.034338	0.297589	0.007018
43618	-5.519914	0.666575	8.011295	0.954163	0.033617	0.297316	0.006807
43619	-5.541090	0.713981	8.004816	0.954287	0.033000	0.296992	0.006603
43620	-5.507477	0.822836	7.963740	0.954448	0.032278	0.296559	0.006342
43621	-5.528482	0.784070	7.949853	0.954661	0.031419	0.295972	0.006003
43622	-5.533773	0.764912	7.978958	0.954932	0.030413	0.295211	0.005589
43623	-5.500891	0.641646	8.049470	0.955246	0.029283	0.294313	0.005203
43624	-5.461822	0.598096	8.069340	0.955573	0.028135	0.293370	0.004813
43625	-5.366006	0.411710	8.122774	0.955881	0.026963	0.292481	0.004444
43626	-5.450343	0.435426	8.070513	0.956155	0.025845	0.291689	0.004139
43627	-5.412258	0.322986	8.120916	0.956398	0.024883	0.290977	0.003906
43628	-5.450470	0.499340	8.091158	0.956616	0.024057	0.290334	0.003736
43629	-5.473620	0.470945	8.095664	0.956856	0.023215	0.289613	0.003512
43630	-5.439401	0.496266	8.110323	0.957089	0.022401	0.288910	0.003281
43631	-5.363605	0.430983	8.144963	0.957319	0.021677	0.288203	0.002971
43632	-5.337354	0.540187	8.143129	0.957532	0.020976	0.287551	0.002602
43633	-5.385161	0.521396	8.108908	0.957753	0.020247	0.286870	0.002149
43634	-5.357424	0.568600	8.171262	0.957989	0.019496	0.286136	0.001628
43635	-5.233639	0.400279	8.207718	0.958208	0.018729	0.285455	0.001032
43636	-5.294763	0.173369	8.245532	0.958371	0.017988	0.284957	0.000456
43637	-5.316541	0.249376	8.272361	0.958481	0.017300	0.284631	-0.000033
43638	-5.334568	0.304418	8.250129	0.958570	0.016585	0.284372	-0.000515
43639	-5.283728	0.331815	8.266584	0.958665	0.015877	0.284091	-0.000984
43640	-5.285913	0.523412	8.341670	0.958705	0.015132	0.283994	-0.001519
43641	-5.221372	0.352950	8.354851	0.958692	0.014336	0.284078	-0.002164
43642	-5.231756	0.342436	8.307361	0.958582	0.013428	0.284484	-0.002887
43643	-5.288884	0.449317	8.146495	0.958494	0.012316	0.284821	-0.003787
43644	-5.496487	-0.002702	8.070970	0.958456	0.011241	0.284981	-0.004746
43645	-5.326760	-0.086852	8.274031	0.958394	0.010467	0.285202	-0.005566
43646	-5.331547	0.134619	8.278710	0.958265	0.009904	0.285640	-0.006332
43647	-5.411833	0.187060	8.109606	0.958095	0.009421	0.286203	-0.007238
43648	-5.495679	0.043472	7.993048	0.957945	0.009011	0.286696	-0.008101
43649	-5.506921	-0.196914	7.934683	0.957869	0.008719	0.286939	-0.008765
43650	-5.455233	-0.427586	7.921383	0.957880	0.008709	0.286897	-0.008962
43651	-5.377210	-0.407594	7.988947	0.957940	0.009190	0.286689	-0.008702
43652	-5.312847	-0.078047	8.099771	0.957989	0.009956	0.286515	-0.008209
43653	-5.307430	0.013031	8.158485	0.957988	0.010809	0.286503	-0.007692
43654	-5.331621	0.239338	8.252033	0.957966	0.011721	0.286552	-0.007165
43655	-5.444194	0.406051	8.174745	0.957921	0.012519	0.286678	-0.006748
43656	-5.505469	0.043270	8.004425	0.957904	0.013248	0.286712	-0.006324
43657	-5.446124	0.118208	8.090371	0.957923	0.014215	0.286615	-0.005723
43658	-5.432927	0.441172	8.137709	0.957933	0.015148	0.286546	-0.005216
43659	-5.380036	0.484604	8.227510	0.957955	0.015912	0.286436	-0.004783
43660	-5.366329	0.458023	8.193917	0.957972	0.016515	0.286351	-0.004413
43661	-5.376567	0.593468	8.240121	0.958006	0.016873	0.286220	-0.004121
43662	-5.369183	0.514699	8.180934	0.958068	0.016962	0.286010	-0.003989
43663	-5.340159	0.280085	8.260305	0.958133	0.016948	0.285795	-0.003896
43664	-5.314414	0.272578	8.299459	0.958129	0.017020	0.285805	-0.003791
43665	-5.372934	0.342929	8.237586	0.958086	0.017106	0.285945	-0.003687
43666	-5.354048	0.397051	8.210470	0.958036	0.017166	0.286110	-0.003586
43667	-5.363432	0.231105	8.169968	0.957984	0.017202	0.286284	-0.003503
43668	-5.323649	0.234914	8.167684	0.957910	0.017303	0.286527	-0.003351
43669	-5.309262	0.126310	8.176714	0.957796	0.017586	0.286894	-0.003163
43670	-5.325178	0.082839	8.175410	0.957614	0.018128	0.287468	-0.002897
43671	-5.336054	0.169351	8.148227	0.957354	0.018937	0.288286	-0.002452
43672	-5.388968	0.361957	8.143424	0.957061	0.019812	0.289203	-0.001978
43673	-5.361683	0.289012	8.089643	0.956733	0.020773	0.290220	-0.001476
43674	-5.383365	0.279527	8.095045	0.956393	0.021843	0.291265	-0.000955
43675	-5.368537	0.359941	8.159394	0.955967	0.023137	0.292561	-0.000328
43676	-5.447767	0.283708	8.164587	0.955463	0.024599	0.294085	0.000347
43677	-5.523150	0.133939	7.951513	0.954834	0.026456	0.295957	0.001191
43678	-5.525270	0.304552	7.959948	0.954218	0.028872	0.297707	0.002080
43679	-5.620158	1.010884	7.832214	0.953639	0.031310	0.299308	0.002831
43680	-5.630568	0.795377	7.975153	0.953174	0.033519	0.300541	0.003420
43681	-5.652643	0.886353	7.910695	0.952792	0.035478	0.301517	0.003949
43682	-5.680755	0.885311	7.811947	0.952510	0.037045	0.302215	0.004382
43683	-5.610663	0.686722	7.947372	0.952359	0.038526	0.302499	0.004788
43684	-5.716477	1.116046	7.931470	0.952250	0.039804	0.302671	0.005101
43685	-5.674833	1.219383	7.925202	0.952243	0.040530	0.302593	0.005215
43686	-5.681335	1.008639	7.928858	0.952353	0.040604	0.302238	0.005138
43687	-5.630732	0.807498	7.902253	0.952494	0.040304	0.301836	0.005018
43688	-5.574564	0.715384	8.035739	0.952643	0.039874	0.301425	0.004944
43689	-5.597844	0.684340	8.019037	0.952733	0.039467	0.301195	0.004892
43690	-5.686719	0.842464	7.900816	0.952823	0.038948	0.300977	0.004872
43691	-5.692417	0.860601	7.906938	0.953009	0.038139	0.300494	0.004795
43692	-5.593837	0.782751	7.922627	0.953293	0.037089	0.299724	0.004661
43693	-5.642966	0.713896	8.047910	0.953618	0.035912	0.298835	0.004494
43694	-5.622066	0.638175	8.045409	0.953945	0.034737	0.297933	0.004314
43695	-5.610309	0.661497	7.947467	0.954265	0.033582	0.297042	0.004143
43696	-5.381872	0.410726	8.043187	0.954600	0.032472	0.296090	0.003988
43697	-5.549821	0.682999	8.004208	0.954929	0.031430	0.295140	0.003846
43698	-5.554458	0.732573	7.989398	0.955310	0.030310	0.294025	0.003663
43699	-5.518578	0.732445	8.059252	0.955732	0.029032	0.292785	0.003408
43700	-5.460222	0.622738	8.052324	0.956195	0.027602	0.291410	0.003102
43701	-5.357767	0.615024	8.044459	0.956749	0.026030	0.289735	0.002673
43702	-5.347813	0.500948	8.136729	0.957332	0.024354	0.287955	0.002155
43703	-5.301783	0.108582	8.212861	0.957862	0.022936	0.286306	0.001660
43704	-5.325132	0.134906	8.257045	0.958209	0.021977	0.285221	0.001399
43705	-5.418146	0.526264	8.179551	0.958459	0.021320	0.284430	0.001192
43706	-5.284832	0.568795	8.192535	0.958741	0.020608	0.283532	0.000930
43707	-5.293810	0.674206	8.145290	0.959063	0.019776	0.282501	0.000474
43708	-5.130770	0.178674	8.309823	0.959356	0.018964	0.281560	-0.000008
43709	-5.307095	0.576686	8.229563	0.959567	0.018275	0.280887	-0.000435
43710	-5.193107	0.420524	8.267617	0.959753	0.017500	0.280300	-0.000905
43711	-5.176006	0.413554	8.269777	0.959892	0.016702	0.279868	-0.001453
43712	-5.064170	0.016666	8.249381	0.959978	0.015908	0.279617	-0.001977
43713	-5.062336	0.106703	8.325036	0.960002	0.015393	0.279559	-0.002418
43714	-5.101745	0.259624	8.363098	0.959959	0.014928	0.279727	-0.002859
43715	-5.157505	0.452331	8.370672	0.959849	0.014391	0.280126	-0.003402
43716	-5.181338	0.279714	8.268467	0.959730	0.013737	0.280558	-0.004057
43717	-5.007877	0.111818	8.451363	0.959520	0.013197	0.281291	-0.004712
43718	-5.095215	0.237211	8.322375	0.959218	0.012652	0.282330	-0.005444
43719	-5.246188	0.358745	8.335380	0.958868	0.011930	0.283533	-0.006182
43720	-5.222018	0.537029	8.331131	0.958519	0.010848	0.284734	-0.007058
43721	-5.224220	0.685838	8.706667	0.958099	0.009009	0.286186	-0.007941
43722	-5.744078	-0.155093	8.016777	0.957724	0.006760	0.287474	-0.008792
43723	-5.280932	-0.513947	8.340677	0.957277	0.005134	0.288975	-0.009380
43724	-5.301796	-0.656984	8.151873	0.956735	0.004000	0.290773	-0.009644
43725	-5.548404	-0.606517	7.952102	0.956174	0.003453	0.292623	-0.009555
43726	-5.606093	-0.217925	7.942561	0.955532	0.003457	0.294726	-0.009167
43727	-5.721613	-0.392282	7.655568	0.954905	0.004115	0.296756	-0.008697
43728	-5.688784	-0.149588	7.715130	0.954357	0.005381	0.298508	-0.008149
43729	-5.807262	0.056785	7.430858	0.954000	0.006782	0.299634	-0.007561
43730	-5.796308	0.015579	7.446423	0.953873	0.008341	0.300016	-0.006924
43731	-5.672370	0.275353	7.722576	0.953972	0.009864	0.299666	-0.006312
43732	-5.610336	0.644279	8.113008	0.954133	0.011242	0.299110	-0.006076
43733	-5.548959	1.056447	8.331570	0.954212	0.012230	0.298810	-0.006449
43734	-5.654673	1.230197	8.051596	0.954214	0.012669	0.298754	-0.007794
43735	-5.340070	-0.820123	8.321429	0.954178	0.013161	0.298808	-0.009195
43736	-5.279303	-1.293234	8.269412	0.953867	0.014242	0.299752	-0.009099
43737	-5.285873	-1.080893	8.257119	0.953236	0.016408	0.301688	-0.007541
43738	-5.514164	-0.126002	8.066908	0.952423	0.019243	0.304128	-0.005084
43739	-5.592578	0.435337	8.070004	0.951559	0.021799	0.306683	-0.002442
43740	-5.797983	0.736809	7.690134	0.950637	0.024396	0.309346	-0.000257
43741	-5.961064	0.437606	7.359377	0.949850	0.027027	0.311531	0.001634
43742	-5.961471	0.379769	7.225723	0.949288	0.029738	0.312978	0.003652
43743	-5.991277	1.018910	7.470650	0.948967	0.032044	0.313693	0.005676
43744	-5.970707	0.934347	7.615561	0.948892	0.034160	0.313655	0.007627
43745	-5.858145	1.043116	7.732740	0.948889	0.036127	0.313400	0.009229
43746	-5.928506	1.210890	7.762036	0.948934	0.037926	0.313013	0.010420
43747	-5.810403	1.269811	7.961198	0.949052	0.039342	0.312450	0.011252
43748	-5.801813	1.249091	7.877744	0.949214	0.040297	0.311819	0.011752
43749	-5.721349	1.028606	8.061175	0.949367	0.040944	0.311254	0.012118
43750	-5.806004	0.735066	7.819967	0.949416	0.041429	0.311023	0.012574
43751	-5.739932	0.624204	8.010083	0.949459	0.041953	0.310798	0.013098
43752	-5.749417	0.821019	7.957992	0.949500	0.042527	0.310568	0.013747
43753	-5.836032	0.964923	7.900102	0.949533	0.042987	0.310373	0.014398
43754	-5.800275	1.091079	7.779030	0.949607	0.043114	0.310098	0.015037
43755	-5.767290	0.923470	7.847644	0.949756	0.043095	0.309613	0.015720
43756	-5.790044	1.155069	7.879965	0.949976	0.042907	0.308928	0.016379
43757	-5.735873	0.876518	7.939499	0.950222	0.042605	0.308188	0.016838
43758	-5.818434	1.065123	7.872007	0.950451	0.042250	0.307507	0.017253
43759	-5.849064	0.929731	7.930858	0.950677	0.042009	0.306819	0.017639
43760	-5.731706	0.619327	7.955585	0.950836	0.041995	0.306301	0.018093
43761	-5.706139	0.581611	7.956042	0.950886	0.042170	0.306091	0.018587
43762	-5.803275	1.182622	7.798656	0.950878	0.042604	0.306027	0.019057
43763	-5.519358	1.178315	7.948976	0.950987	0.042897	0.305633	0.019287
43764	-5.457852	1.111162	7.957570	0.951158	0.043136	0.305062	0.019386
43765	-5.703656	0.962443	7.953771	0.951270	0.043593	0.304643	0.019452
43766	-5.715382	1.008718	7.886228	0.951450	0.044102	0.304000	0.019534
43767	-5.739299	0.597580	7.914109	0.951659	0.044928	0.303209	0.019764
43768	-5.602691	0.691532	8.003798	0.951882	0.045763	0.302361	0.020132
43769	-5.676076	1.067957	7.939817	0.952116	0.046608	0.301470	0.020443
43770	-5.233217	1.069432	7.972956	0.952330	0.047111	0.300710	0.020542
43771	-5.468736	1.462146	7.844902	0.952502	0.047228	0.300152	0.020439
43772	-5.241724	1.217249	7.845930	0.952691	0.046811	0.299637	0.020129
43773	-5.521060	1.155577	7.880070	0.952852	0.046023	0.299277	0.019711
43774	-5.349774	1.112789	7.867180	0.953037	0.044949	0.298883	0.019211
43775	-5.625866	0.974135	8.027538	0.953227	0.043733	0.298494	0.018617
43776	-5.737344	0.944999	8.008445	0.953429	0.042442	0.298078	0.017927
43777	-5.648240	1.309922	7.876691	0.953718	0.040862	0.297419	0.017134
43778	-5.506990	0.808760	7.950631	0.954070	0.038924	0.296608	0.016094
43779	-5.414059	0.535372	8.057013	0.954410	0.037192	0.295792	0.015023
43780	-5.400475	0.486717	8.037111	0.954738	0.035654	0.294976	0.013921
43781	-5.286664	0.375034	8.095684	0.955022	0.034395	0.294254	0.012802
43782	-5.577024	0.435334	8.148441	0.955290	0.033066	0.293576	0.011879
43783	-5.570023	0.584129	8.075221	0.955660	0.031318	0.292590	0.011155
43784	-5.576396	0.600110	8.123751	0.956034	0.029575	0.291566	0.010603
43785	-5.596373	0.696190	8.129053	0.956459	0.027683	0.290373	0.010155
43786	-5.529473	0.730696	8.127342	0.956914	0.025799	0.289061	0.009646
43787	-5.320009	0.379004	8.203153	0.957375	0.024046	0.287700	0.009150
43788	-5.302766	0.294926	8.236639	0.957774	0.022607	0.286495	0.008797
43789	-4.926019	0.063909	8.229607	0.958091	0.021668	0.285514	0.008608
43790	-5.089175	0.787613	8.087779	0.958341	0.021280	0.284707	0.008437
43791	-5.218381	0.680098	8.149834	0.958683	0.020755	0.283608	0.007882
43792	-5.472129	0.399349	8.277741	0.959011	0.020073	0.282563	0.007290
43793	-5.436199	0.158591	8.333537	0.959209	0.019531	0.281937	0.007016
43794	-5.323469	0.080101	8.288949	0.959289	0.019257	0.281683	0.007014
43795	-5.248619	0.511521	8.158412	0.959296	0.019111	0.281667	0.007041
43796	-5.255406	0.591082	8.206454	0.959378	0.018915	0.281406	0.006840
43797	-5.262012	0.327182	8.251650	0.959455	0.018713	0.281162	0.006626
43798	-5.171608	0.274657	8.347749	0.959464	0.018441	0.281155	0.006428
43799	-5.142901	0.496860	8.329491	0.959438	0.018130	0.281268	0.006247
43800	-5.168553	0.629106	8.146502	0.959437	0.017660	0.281306	0.005955
43801	-5.167110	0.442536	8.229592	0.959497	0.017109	0.281147	0.005493
43802	-5.340694	0.337392	8.155743	0.959588	0.016500	0.280881	0.005019
43803	-5.165094	0.404103	8.252567	0.959689	0.015853	0.280581	0.004538
43804	-5.145567	0.481292	8.216696	0.959781	0.015085	0.280315	0.003961
43805	-5.118040	0.454736	8.320351	0.959878	0.014255	0.280036	0.003246
43806	-5.186686	0.295533	8.258212	0.959933	0.013377	0.279900	0.002459
43807	-5.051326	0.291930	8.366955	0.959946	0.012431	0.279905	0.001542
43808	-5.067172	0.362015	8.443075	0.959815	0.011444	0.280399	0.000514
43809	-5.280192	0.282012	8.290402	0.959617	0.010284	0.281121	-0.000637
43810	-5.420717	0.101261	8.143549	0.959394	0.009267	0.281912	-0.001794
43811	-5.338159	0.165389	8.176717	0.959162	0.008354	0.282720	-0.002943
43812	-5.429678	-0.060537	8.060953	0.958972	0.007492	0.283374	-0.004025
43813	-5.437780	-0.276724	8.056969	0.958768	0.006936	0.284063	-0.004886
43814	-5.498369	-0.559917	8.041984	0.958584	0.006884	0.284676	-0.005331
43815	-5.370885	-0.442823	8.078601	0.958394	0.007490	0.285301	-0.005287
43816	-5.384504	-0.188375	8.080937	0.958190	0.008490	0.285965	-0.004919
43817	-5.471249	0.108411	7.998185	0.958016	0.009628	0.286519	-0.004389
43818	-5.381590	0.046698	8.040134	0.957906	0.010854	0.286851	-0.003765
43819	-5.418813	0.184514	8.058846	0.957836	0.012001	0.287047	-0.003067
43820	-5.384978	0.233518	8.105309	0.957800	0.013171	0.287125	-0.002320
43821	-5.399510	0.206676	8.155594	0.957759	0.014263	0.287214	-0.001572
43822	-5.404806	0.117376	8.095613	0.957659	0.015492	0.287487	-0.000748
43823	-5.486845	0.172141	8.024491	0.957596	0.016876	0.287619	0.000228
43824	-5.417939	0.562371	8.155321	0.957554	0.018261	0.287672	0.001175
43825	-5.513702	0.627590	8.198626	0.957541	0.019375	0.287641	0.001749
43826	-5.649794	0.567919	8.062861	0.957626	0.020624	0.287272	0.001552
43827	-5.368528	-0.148210	8.179011	0.957764	0.022261	0.286689	0.001080
43828	-5.311557	-0.061128	8.179388	0.957765	0.024344	0.286518	0.000903
43829	-5.322075	0.633670	8.424074	0.957564	0.026966	0.286955	0.000759
43830	-5.249628	0.428637	8.414041	0.957175	0.029728	0.287977	0.000564
43831	-5.376332	1.014807	7.984526	0.956744	0.032265	0.289136	0.000625
43832	-5.263512	1.343219	8.017522	0.956477	0.034046	0.289813	0.000864
43833	-5.153407	1.229594	8.025710	0.956336	0.034951	0.290171	0.001153
43834	-5.379157	1.125027	7.930842	0.956289	0.035380	0.290270	0.001419
43835	-5.380206	0.821954	8.137724	0.956366	0.035659	0.289984	0.001587
43836	-5.415232	0.761794	8.080181	0.956436	0.036056	0.289703	0.001763
43837	-5.512855	0.728650	7.996138	0.956564	0.036367	0.289240	0.001829
43838	-5.401681	0.566380	8.241631	0.956708	0.036770	0.288712	0.001897
43839	-5.556239	0.646617	8.154294	0.956803	0.037277	0.288331	0.001986
43840	-5.478533	0.806087	8.016644	0.956933	0.037685	0.287843	0.002174
43841	-5.479139	0.728643	8.154589	0.957098	0.038104	0.287238	0.002329
43842	-5.348821	0.639725	8.189866	0.957258	0.038523	0.286648	0.002470
43843	-5.292413	0.698336	8.176059	0.957411	0.038686	0.286114	0.002613
43844	-5.298440	0.695816	8.139337	0.957544	0.038547	0.285688	0.002646
43845	-5.314726	0.765006	8.177349	0.957691	0.038232	0.285236	0.002542
43846	-5.277137	0.630116	8.135513	0.957861	0.037752	0.284733	0.002261
43847	-5.257667	0.683182	8.179679	0.958050	0.037173	0.284173	0.001855
43848	-5.154736	0.490882	8.260484	0.958244	0.036582	0.283598	0.001366
43849	-5.180954	0.562022	8.301994	0.958368	0.036145	0.283237	0.000790
43850	-5.264437	0.573462	8.209132	0.958444	0.035839	0.283022	0.000119
43851	-5.092648	0.366836	8.245492	0.958483	0.035640	0.282912	-0.000540
43852	-5.129576	0.352950	8.303004	0.958395	0.035640	0.283208	-0.001088
43853	-5.173295	0.596484	8.277072	0.958243	0.035659	0.283720	-0.001584
43854	-5.212358	0.686381	8.457863	0.958020	0.035660	0.284469	-0.002020
43855	-5.372925	0.964571	8.441292	0.957639	0.035350	0.285785	-0.002341
43856	-5.415802	0.701429	8.418401	0.957198	0.034557	0.287351	-0.002525
43857	-5.386509	0.537494	8.712143	0.956580	0.033507	0.289527	-0.002237
43858	-5.533156	0.532306	8.725820	0.955596	0.031971	0.292938	-0.001393
43859	-5.574398	0.961028	8.946810	0.954192	0.029903	0.297697	-0.000620
43860	-5.980653	1.358702	8.848247	0.952040	0.029140	0.304576	-0.002107
43861	-7.383707	1.613624	7.785567	0.948971	0.031521	0.313617	-0.010203
43862	-10.999801	-0.610906	4.540728	0.944621	0.039588	0.324328	-0.030588
43863	-16.930481	-3.431515	-1.257597	0.939898	0.047461	0.332491	-0.061551
43864	-19.377386	-0.460744	-3.683522	0.934677	0.053151	0.337848	-0.097016
43865	-18.352735	0.057308	-2.840513	0.929637	0.055800	0.337406	-0.137180
43866	-11.760398	0.820780	-0.755199	0.923568	0.064380	0.333764	-0.177423
43867	-8.271261	4.225977	1.370789	0.915479	0.076408	0.332866	-0.212745
43868	-10.000366	3.543224	4.771656	0.907268	0.088601	0.333735	-0.240072
43869	-9.225709	7.927116	8.046596	0.901953	0.097234	0.331422	-0.259203
43870	-10.122091	1.966530	7.695378	0.898758	0.098576	0.328270	-0.273416
43871	-8.725804	-0.811470	6.611054	0.896724	0.102062	0.320813	-0.287314
43872	-6.762778	0.021490	5.564583	0.892146	0.108540	0.312361	-0.307774
43873	-7.859574	0.969455	5.991206	0.883244	0.114797	0.305464	-0.336740
43874	-9.916351	1.389460	6.490330	0.870785	0.119746	0.297882	-0.372371
43875	-8.160863	1.741717	5.603833	0.855089	0.124526	0.288475	-0.412429
43876	-7.243112	2.716828	4.686492	0.834471	0.131249	0.280849	-0.455583
43877	-8.130947	3.169459	4.641949	0.808907	0.140763	0.274631	-0.500432
43878	-8.636056	4.419803	5.033773	0.778888	0.152950	0.268946	-0.545535
43879	-9.242662	6.187432	6.076646	0.744826	0.164794	0.264397	-0.590061
43880	-8.878044	6.501463	6.881764	0.707183	0.175287	0.260270	-0.633582
43881	-7.585131	7.486935	7.272772	0.666238	0.186807	0.255219	-0.675347
43882	-6.696145	9.759118	7.779052	0.623430	0.199652	0.249467	-0.713611
43883	-5.177845	11.835517	8.032633	0.581317	0.212647	0.244426	-0.746396
43884	-1.866212	14.144867	8.206250	0.542947	0.226240	0.241327	-0.771871
43885	-1.533464	8.922848	8.535269	0.511455	0.243534	0.238405	-0.788840
43886	1.855765	12.593957	16.122660	0.492062	0.268047	0.207487	-0.801857
43887	4.360853	12.883076	18.158433	0.475173	0.281855	0.179753	-0.813915
43888	3.739489	8.973094	18.720842	0.456847	0.285410	0.157859	-0.827594
43889	-5.586590	3.630870	10.075893	0.440024	0.280809	0.147497	-0.840101
43890	-7.323805	-1.818980	7.450563	0.425274	0.274103	0.138947	-0.851295
43891	-4.251595	2.528294	11.308660	0.414249	0.264812	0.136014	-0.860101
43892	-0.210083	-14.004526	9.890258	0.413528	0.255530	0.140667	-0.862503
43893	-4.795990	-3.071327	9.060018	0.416295	0.259846	0.134380	-0.860883
43894	-6.335731	1.494661	8.018548	0.418670	0.262820	0.129564	-0.859566
43895	-3.916715	-4.464681	9.022028	0.421424	0.266664	0.123633	-0.857909
43896	-6.605241	2.763929	7.118131	0.424453	0.272748	0.118367	-0.855241
43897	-6.698362	5.895571	7.325219	0.425752	0.272258	0.115003	-0.855211
43898	-5.651351	1.865915	8.285128	0.425684	0.269443	0.113633	-0.856318
43899	-5.476712	0.592978	8.463593	0.425299	0.267513	0.112443	-0.857271
43900	-4.937689	-0.089947	8.695770	0.425088	0.266741	0.111159	-0.857784
43901	-4.990034	-0.434700	8.617008	0.425066	0.267511	0.109808	-0.857729
43902	-5.022123	0.056710	8.490965	0.425240	0.269052	0.108402	-0.857340
43903	-5.164813	0.293637	8.354646	0.425492	0.270857	0.107153	-0.856803
43904	-5.443623	0.971855	8.209662	0.425621	0.272599	0.106044	-0.856324
43905	-5.300845	1.070656	8.059271	0.425708	0.273916	0.105388	-0.855942
43906	-5.396167	0.912600	8.086445	0.425639	0.274900	0.105093	-0.855697
43907	-5.300130	0.288823	8.020324	0.425605	0.275622	0.104858	-0.855510
43908	-5.342436	0.115697	8.178777	0.425625	0.276387	0.104522	-0.855295
43909	-5.373302	0.343368	8.140336	0.425678	0.277159	0.104073	-0.855073
43910	-5.493084	0.457464	8.280061	0.425587	0.277964	0.103399	-0.854939
43911	-5.517237	0.520423	8.076069	0.425302	0.278798	0.102675	-0.854896
43912	-5.482151	1.067566	7.832189	0.424966	0.279218	0.102073	-0.854998
43913	-5.311845	1.181212	7.895316	0.424725	0.279181	0.101816	-0.855161
43914	-5.307572	1.156974	8.046374	0.424483	0.278936	0.102068	-0.855331
43915	-5.546319	0.818650	8.141343	0.424212	0.278581	0.102482	-0.855532
43916	-5.480142	0.671250	8.011800	0.423894	0.278092	0.102793	-0.855811
43917	-5.341150	0.439030	8.114471	0.423674	0.277468	0.103049	-0.856091
43918	-5.314384	0.732977	8.243685	0.423493	0.277021	0.103381	-0.856286
43919	-5.509888	0.566708	8.089954	0.423364	0.276651	0.103693	-0.856431
43920	-5.480419	0.890590	8.210479	0.423228	0.276046	0.104200	-0.856632
43921	-5.492994	0.656021	8.263371	0.423142	0.275594	0.105040	-0.856718
43922	-5.517014	0.661043	8.318312	0.422929	0.275248	0.105956	-0.856822
43923	-5.626443	0.266815	8.729753	0.422058	0.275450	0.106797	-0.857081
43924	-5.953329	-2.306966	8.798715	0.417820	0.276785	0.107049	-0.858695
43925	-7.775161	-12.599862	8.382520	0.398850	0.280163	0.105137	-0.866818
43926	-15.021220	-15.534610	6.330834	0.350655	0.285088	0.099155	-0.886529
43927	-20.937007	-4.852508	6.936346	0.281030	0.282241	0.101494	-0.911625
43928	-19.489263	-11.410028	4.676986	0.203698	0.271494	0.098283	-0.935489
43929	-19.182245	-5.763268	-4.211519	0.123993	0.262767	0.071857	-0.954157
43930	-18.482411	4.597519	-6.397472	0.044298	0.257739	0.029547	-0.964746
43931	-16.493108	12.917354	-4.150553	-0.029437	0.255808	0.005642	-0.966263
43932	-14.740324	8.529068	-2.225543	-0.091667	0.260164	0.001614	-0.961202
43933	-15.519506	3.928000	-1.148386	-0.142942	0.269014	-0.002851	-0.952466
43934	-16.070383	4.903522	0.920529	-0.186213	0.276750	-0.015436	-0.942600
43935	-14.013628	7.417098	3.675124	-0.223138	0.282545	-0.029451	-0.932475
43936	-11.689563	6.274237	6.087716	-0.254155	0.287074	-0.040250	-0.922699
43937	-9.705392	4.527307	7.476450	-0.280091	0.289869	-0.049720	-0.913812
43938	-6.937295	3.699464	7.245566	-0.304601	0.291470	-0.057002	-0.904994
43939	-5.775725	2.815857	7.046397	-0.331757	0.294774	-0.061379	-0.894024
43940	-6.536683	2.626009	7.594226	-0.362603	0.298233	-0.064161	-0.880602
43941	-7.309418	3.520804	7.771829	-0.395440	0.299622	-0.068299	-0.865557
43942	-6.960410	6.303721	7.527115	-0.428210	0.298273	-0.073785	-0.849838
43943	-5.697856	7.286906	6.946668	-0.460388	0.296232	-0.080989	-0.832905
43944	-5.634708	8.117730	6.995857	-0.492377	0.293510	-0.091067	-0.814324
43945	-5.099419	8.513784	7.269106	-0.524093	0.290208	-0.103999	-0.793908
43946	-4.848750	8.574225	7.437872	-0.554946	0.286895	-0.119402	-0.771667
43947	-3.880911	8.854635	7.339069	-0.583690	0.284586	-0.136918	-0.748044
43948	-7.816577	-0.954571	10.987794	-0.609498	0.270851	-0.162737	-0.727096
43949	-0.218663	17.458394	10.539103	-0.632458	0.245750	-0.192670	-0.708860
43950	3.305280	12.113858	17.030185	-0.651743	0.219068	-0.215334	-0.693449
43951	7.610342	20.906206	23.080152	-0.667692	0.202773	-0.215159	-0.683211
43952	0.295947	-13.173130	13.658450	-0.672792	0.204211	-0.201971	-0.681803
43953	-6.336179	-4.618020	8.001807	-0.668974	0.197655	-0.210289	-0.684971
43954	-6.158192	7.888451	8.494788	-0.667888	0.196705	-0.211595	-0.685901
43955	-4.839850	-0.984013	8.774159	-0.668007	0.196115	-0.210775	-0.686207
43956	-4.980418	-1.401413	8.593091	-0.667263	0.195769	-0.211972	-0.686660
43957	-6.323429	2.976029	7.395930	-0.666724	0.195691	-0.212283	-0.687110
43958	-5.730770	1.327463	7.707389	-0.667356	0.195617	-0.210111	-0.687185
43959	-5.345207	-0.208243	8.276069	-0.667901	0.195200	-0.207972	-0.687425
43960	-5.265904	-0.408353	8.466048	-0.667793	0.194699	-0.207694	-0.687756
43961	-5.525711	0.354378	8.085294	-0.667514	0.194027	-0.208090	-0.688097
43962	-5.280689	0.314772	8.412217	-0.667324	0.193416	-0.208369	-0.688368
43963	-5.138220	-0.022005	8.552177	-0.667132	0.193083	-0.209100	-0.688427
43964	-5.313142	-0.067570	8.372235	-0.666895	0.192656	-0.210552	-0.688333
43965	-5.385995	0.466934	8.294944	-0.666116	0.192353	-0.213212	-0.688354
43966	-5.525268	1.090563	8.090847	-0.665228	0.192133	-0.215972	-0.688413
43967	-5.381817	0.538859	8.066644	-0.664578	0.192000	-0.218013	-0.688435
43968	-5.311855	0.519494	8.155650	-0.664042	0.192137	-0.219712	-0.688374
43969	-5.367081	0.341744	8.057248	-0.663438	0.192287	-0.221406	-0.688372
43970	-5.433716	0.569058	7.969498	-0.662852	0.192351	-0.223064	-0.688383
43971	-5.466457	0.630239	8.024220	-0.662334	0.192302	-0.224590	-0.688399
43972	-5.535866	0.614753	8.083354	-0.661852	0.192253	-0.226085	-0.688387
43973	-5.549627	0.771643	7.988553	-0.661360	0.192243	-0.227550	-0.688380
43974	-5.557406	0.705765	7.919570	-0.660948	0.192231	-0.228759	-0.688378
43975	-5.518225	0.572753	8.089338	-0.660549	0.192214	-0.229853	-0.688401
43976	-5.532853	0.689109	8.159269	-0.660164	0.192278	-0.231057	-0.688350
43977	-5.687909	0.647909	7.973747	-0.659764	0.192478	-0.232269	-0.688269
43978	-5.776438	0.775872	7.930126	-0.659386	0.192668	-0.233352	-0.688212
43979	-5.767163	0.540227	7.922509	-0.659147	0.192709	-0.234257	-0.688122
43980	-5.807680	0.406344	8.065777	-0.659021	0.192366	-0.235283	-0.687989
43981	-5.846948	0.013751	8.200239	-0.659060	0.191359	-0.236403	-0.687848
43982	-5.938674	0.113923	8.117324	-0.659329	0.189466	-0.237674	-0.687676
43983	-5.981699	0.184676	8.197146	-0.659972	0.186627	-0.239060	-0.687355
43984	-5.936998	0.149875	8.213373	-0.661340	0.182689	-0.240375	-0.686639
43985	-6.011522	-0.798711	8.118459	-0.664180	0.177736	-0.241925	-0.684651
43986	-5.878748	-2.917185	8.298664	-0.669923	0.171156	-0.243721	-0.680080
43987	-5.516967	-8.216934	9.347801	-0.682041	0.162934	-0.246612	-0.668921
43988	-7.853374	-16.961982	9.962815	-0.705972	0.151277	-0.251650	-0.644509
43989	-14.316542	-21.083414	10.441575	-0.745319	0.133347	-0.257878	-0.600181
43990	-21.381964	-15.249986	6.851007	-0.795827	0.108522	-0.256757	-0.537548
43991	-19.810946	-6.395308	1.185403	-0.845055	0.082255	-0.251498	-0.464613
43992	-20.348767	-1.801025	-0.516495	-0.886803	0.055739	-0.246243	-0.387089
43993	-19.102491	-2.464343	-0.802434	-0.920299	0.030458	-0.241549	-0.306229
43994	-18.113371	0.180644	0.439830	-0.945180	0.003992	-0.237003	-0.224607
43995	-18.266173	1.068907	-1.669826	-0.961000	-0.022653	-0.233272	-0.146799
43996	-14.223997	5.395279	-3.079839	-0.968704	-0.038150	-0.232428	-0.078320
43997	-14.903294	3.464453	-3.315706	-0.969924	-0.044742	-0.238282	-0.021626
43998	-14.079418	3.508026	-1.473704	-0.967408	-0.049532	-0.247172	0.023971
43999	-12.307034	4.996178	0.872636	-0.962767	-0.050814	-0.259049	0.058231
44000	-12.231112	4.848765	2.960922	-0.957260	-0.046243	-0.273541	0.081790
44001	-13.667493	3.314934	4.667717	-0.951913	-0.038970	-0.287893	0.097271
44002	-13.491963	2.399606	5.426536	-0.947950	-0.032928	-0.297780	0.107858
44003	-10.049164	3.076301	5.389757	-0.944756	-0.028748	-0.304914	0.116774
44004	-8.722647	3.628843	5.133268	-0.940889	-0.025471	-0.313084	0.126718
44005	-9.404559	3.778355	5.265438	-0.936292	-0.023189	-0.321901	0.138562
44006	-10.037607	4.309016	5.127230	-0.931406	-0.022405	-0.330166	0.151561
44007	-10.023799	4.452310	4.572579	-0.926396	-0.022252	-0.338123	0.164218
44008	-9.907043	4.136727	7.732092	-0.924643	-0.037970	-0.338094	0.171130
44009	-6.688186	7.688826	6.498710	-0.923578	-0.052087	-0.337364	0.174576
44010	-4.836211	8.634491	9.029139	-0.922973	-0.067115	-0.336553	0.174208
44011	-2.257050	12.585163	11.737144	-0.923821	-0.074999	-0.334151	0.171094
44012	4.476939	7.836291	15.804756	-0.926333	-0.076849	-0.329082	0.166452
44013	9.816793	10.944889	19.976038	-0.929252	-0.078156	-0.323608	0.160189
44014	8.529161	9.080860	19.468311	-0.932032	-0.077174	-0.319853	0.151835
44015	-12.235816	2.671237	1.858707	-0.932348	-0.080343	-0.319663	0.148620
44016	-4.712016	-0.098699	9.058015	-0.935130	-0.080964	-0.311829	0.147442
44017	-5.934949	1.069183	8.167714	-0.937183	-0.081012	-0.306212	0.146148
44018	-5.778583	1.220955	8.487143	-0.938775	-0.081458	-0.301628	0.145212
44019	-5.045321	1.088855	9.561973	-0.939872	-0.082045	-0.298307	0.144644
44020	-5.803880	1.087888	8.503909	-0.940039	-0.083141	-0.297742	0.144094
44021	-5.734638	0.741994	8.119930	-0.940044	-0.084320	-0.297506	0.143867
44022	-5.882723	1.068402	7.780816	-0.940039	-0.085639	-0.297322	0.143502
44023	-5.871528	1.083416	7.926408	-0.940230	-0.086211	-0.296561	0.143484
44024	-5.782532	0.752179	8.033991	-0.940510	-0.086473	-0.295606	0.143460
44025	-5.603651	0.949167	8.059885	-0.940763	-0.086558	-0.294862	0.143280
44026	-5.542534	1.133044	7.941386	-0.940987	-0.086193	-0.294317	0.143148
44027	-5.477328	1.065211	7.972424	-0.941300	-0.085067	-0.293569	0.143299
44028	-5.468958	0.996350	8.035022	-0.941630	-0.083480	-0.292812	0.143617
44029	-5.442146	0.633248	8.127173	-0.941898	-0.081803	-0.292283	0.143901
44030	-5.537889	0.663421	8.065198	-0.942110	-0.080267	-0.291957	0.144039
44031	-5.639049	0.755102	7.935515	-0.942342	-0.078712	-0.291556	0.144188
44032	-5.593624	0.635744	7.983133	-0.942608	-0.077195	-0.290979	0.144441
44033	-5.564990	0.510985	8.069933	-0.942847	-0.075862	-0.290441	0.144665
44034	-5.509969	0.445442	8.112097	-0.943027	-0.074842	-0.290081	0.144744
44035	-5.477660	0.394894	8.073177	-0.943121	-0.074185	-0.289955	0.144722
44036	-5.518649	0.437728	8.021624	-0.943152	-0.073865	-0.289980	0.144636
44037	-5.593422	0.632723	7.977069	-0.943182	-0.073685	-0.289953	0.144588
44038	-5.568156	0.666770	8.007074	-0.943228	-0.073534	-0.289824	0.144622
44039	-5.537390	0.655830	7.987994	-0.943306	-0.073281	-0.289601	0.144691
44040	-5.545756	0.626811	8.002880	-0.943410	-0.072946	-0.289312	0.144762
44041	-5.507655	0.614743	8.031632	-0.943522	-0.072569	-0.289002	0.144838
44042	-5.482297	0.547728	8.082005	-0.943626	-0.072231	-0.288708	0.144913
44043	-5.440389	0.520903	8.081552	-0.943684	-0.072029	-0.288542	0.144964
44044	-5.466945	0.589978	8.051806	-0.943730	-0.071871	-0.288417	0.144995
44045	-5.487847	0.609210	8.036460	-0.943769	-0.071728	-0.288306	0.145033
44046	-5.479228	0.586848	8.042802	-0.943817	-0.071568	-0.288114	0.145184
44047	-5.495245	0.578531	8.051974	-0.943866	-0.071383	-0.287929	0.145319
44048	-5.465510	0.587390	8.074444	-0.943926	-0.071121	-0.287732	0.145452
44049	-5.444666	0.558450	8.047697	-0.943982	-0.070825	-0.287562	0.145570
44050	-5.467637	0.538350	8.030622	-0.944062	-0.070434	-0.287327	0.145699
44051	-5.438732	0.505310	8.083631	-0.944158	-0.070005	-0.287041	0.145849
44052	-5.450299	0.562525	8.055049	-0.944248	-0.069592	-0.286780	0.145978
44053	-5.406655	0.467635	8.107407	-0.944313	-0.069213	-0.286591	0.146108
44054	-5.410348	0.541565	8.085173	-0.944357	-0.068824	-0.286481	0.146221
44055	-5.460640	0.596014	8.049471	-0.944394	-0.068317	-0.286424	0.146337
44056	-5.466362	0.533479	8.087047	-0.944470	-0.067632	-0.286238	0.146530
44057	-5.483841	0.386408	8.124499	-0.944558	-0.066968	-0.285995	0.146739
44058	-5.444421	0.376735	8.132920	-0.944611	-0.066458	-0.285874	0.146866
44059	-5.409872	0.424632	8.138996	-0.944635	-0.066096	-0.285833	0.146953
44060	-5.414827	0.416665	8.093593	-0.944632	-0.065788	-0.285865	0.147050
44061	-5.438305	0.432186	8.077179	-0.944625	-0.065490	-0.285912	0.147135
44062	-5.438563	0.425673	8.077351	-0.944631	-0.065181	-0.285918	0.147224
44063	-5.454858	0.484055	8.046360	-0.944657	-0.064827	-0.285847	0.147354
44064	-5.438370	0.372534	8.108538	-0.944682	-0.064488	-0.285778	0.147472
44065	-5.423392	0.356042	8.140524	-0.944684	-0.064283	-0.285769	0.147567
44066	-5.442147	0.389475	8.085937	-0.944671	-0.064131	-0.285815	0.147629
44067	-5.465777	0.408104	8.069356	-0.944672	-0.063991	-0.285815	0.147680
44068	-5.452719	0.366690	8.077993	-0.944682	-0.063869	-0.285788	0.147725
44069	-5.425553	0.377741	8.098512	-0.944708	-0.063771	-0.285714	0.147741
44070	-5.423681	0.403473	8.121807	-0.944726	-0.063677	-0.285668	0.147753
44071	-5.425101	0.405026	8.089423	-0.944734	-0.063591	-0.285670	0.147737
44072	-5.435106	0.386846	8.081630	-0.944752	-0.063504	-0.285630	0.147735
44073	-5.414078	0.386541	8.107731	-0.944782	-0.063423	-0.285558	0.147721
44074	-5.413639	0.416062	8.098552	-0.944804	-0.063333	-0.285498	0.147734
44075	-5.429038	0.385828	8.096855	-0.944832	-0.063242	-0.285427	0.147728
44076	-5.411771	0.381411	8.109514	-0.944854	-0.063180	-0.285374	0.147718
44077	-5.406447	0.412324	8.146014	-0.944868	-0.063146	-0.285338	0.147714
44078	-5.420767	0.422038	8.114840	-0.944874	-0.063108	-0.285332	0.147705
44079	-5.412031	0.409290	8.099972	-0.944882	-0.063043	-0.285305	0.147731
44080	-5.424264	0.414098	8.101784	-0.944905	-0.062903	-0.285238	0.147776
44081	-5.425504	0.403386	8.121704	-0.944935	-0.062767	-0.285151	0.147809
44082	-5.427799	0.365287	8.118882	-0.944958	-0.062663	-0.285071	0.147856
44083	-5.408413	0.399209	8.102891	-0.944981	-0.062560	-0.285007	0.147881
44084	-5.423476	0.337803	8.110839	-0.944998	-0.062511	-0.284946	0.147904
44085	-5.423834	0.399323	8.091696	-0.945016	-0.062482	-0.284897	0.147901
44086	-5.422994	0.367379	8.101762	-0.945036	-0.062461	-0.284839	0.147894
44087	-5.402339	0.368471	8.127508	-0.945047	-0.062472	-0.284806	0.147880
44088	-5.411965	0.442134	8.122947	-0.945063	-0.062458	-0.284763	0.147871
44089	-5.414487	0.343616	8.138775	-0.945071	-0.062453	-0.284738	0.147867
44090	-5.408929	0.355542	8.132820	-0.945063	-0.062483	-0.284764	0.147852
44091	-5.407814	0.363671	8.112968	-0.945056	-0.062526	-0.284804	0.147808
44092	-5.399007	0.380436	8.120072	-0.945049	-0.062568	-0.284828	0.147786
44093	-5.413926	0.360213	8.097937	-0.945044	-0.062604	-0.284857	0.147749
44094	-5.407761	0.400362	8.114397	-0.945037	-0.062645	-0.284881	0.147727
44095	-5.398702	0.385894	8.131148	-0.945022	-0.062696	-0.284939	0.147687
44096	-5.398045	0.394301	8.110968	-0.945006	-0.062756	-0.284997	0.147657
44097	-5.388736	0.348725	8.137377	-0.944996	-0.062808	-0.285036	0.147622
44098	-5.388180	0.326728	8.126587	-0.944956	-0.062964	-0.285160	0.147571
44099	-5.364101	0.370767	8.166931	-0.944900	-0.063179	-0.285335	0.147501
44100	-5.389953	0.435036	8.118496	-0.944817	-0.063395	-0.285586	0.147456
44101	-5.401726	0.425379	8.120209	-0.944718	-0.063570	-0.285875	0.147455
44102	-5.453282	0.439361	8.093298	-0.944618	-0.063683	-0.286158	0.147495
44103	-5.446574	0.373387	8.075416	-0.944525	-0.063761	-0.286417	0.147553
44104	-5.454262	0.396836	8.081343	-0.944443	-0.063849	-0.286647	0.147596
44105	-5.454722	0.401177	8.091977	-0.944375	-0.063920	-0.286825	0.147651
44106	-5.468800	0.446648	8.062165	-0.944323	-0.063919	-0.286964	0.147716
44107	-5.457380	0.434254	8.091712	-0.944278	-0.063869	-0.287074	0.147811
44108	-5.440511	0.346327	8.080628	-0.944249	-0.063774	-0.287137	0.147914
44109	-5.489652	0.438365	8.079051	-0.944232	-0.063659	-0.287160	0.148029
44110	-5.491666	0.409943	8.024156	-0.944247	-0.063445	-0.287079	0.148185
44111	-5.484637	0.405314	8.071790	-0.944287	-0.063181	-0.286917	0.148355
44112	-5.445066	0.428634	8.102448	-0.944346	-0.062824	-0.286699	0.148549
44113	-5.433137	0.397807	8.142267	-0.944403	-0.062406	-0.286480	0.148788
44114	-5.427866	0.385149	8.177819	-0.944446	-0.061978	-0.286281	0.149079
44115	-5.399145	0.361538	8.177706	-0.944471	-0.061544	-0.286148	0.149354
44116	-5.421799	0.362729	8.214287	-0.944449	-0.061176	-0.286142	0.149654
44117	-5.386958	0.414777	8.232623	-0.944385	-0.060811	-0.286262	0.149977
44118	-5.384522	0.448166	8.215978	-0.944267	-0.060436	-0.286507	0.150401
44119	-5.413232	0.430443	8.174345	-0.944113	-0.059964	-0.286830	0.150939
44120	-5.474081	0.482370	8.101740	-0.943907	-0.059421	-0.287260	0.151629
44121	-5.460078	0.423247	8.027093	-0.943708	-0.058795	-0.287571	0.152515
44122	-5.464806	0.364704	8.054436	-0.943549	-0.058047	-0.287715	0.153510
44123	-5.468982	0.135074	7.977719	-0.943394	-0.057227	-0.287847	0.154521
44124	-5.622494	0.555735	8.057776	-0.943352	-0.056235	-0.287637	0.155529
44125	-5.223771	0.437915	8.677987	-0.943038	-0.055487	-0.287896	0.157214
44126	-5.307036	-0.439724	8.670646	-0.942356	-0.055395	-0.289392	0.158582
44127	-5.378662	0.135144	8.553038	-0.941447	-0.055660	-0.291889	0.159312
44128	-5.476281	0.198676	8.351626	-0.940260	-0.056265	-0.295062	0.160260
44129	-5.549946	0.124946	8.179105	-0.938959	-0.056975	-0.298538	0.161198
44130	-5.613919	-0.108820	7.925595	-0.937641	-0.057699	-0.302132	0.161916
44131	-5.783332	-0.111685	7.719474	-0.936421	-0.058423	-0.305508	0.162381
44132	-5.868993	0.164808	7.520032	-0.935386	-0.058968	-0.308460	0.162566
44133	-5.932194	0.456397	7.381440	-0.934538	-0.059228	-0.310762	0.162967
44134	-6.106797	0.522374	7.331890	-0.933881	-0.059114	-0.312320	0.163794
44135	-6.007567	0.244035	7.406478	-0.933363	-0.058868	-0.313183	0.165182
44136	-5.980863	0.127200	7.531791	-0.932854	-0.058924	-0.313667	0.167107
44137	-5.909740	-0.034795	7.667782	-0.932298	-0.059455	-0.313990	0.169398
44138	-5.963178	0.198448	7.719745	-0.931611	-0.060633	-0.314262	0.172234
44139	-6.058843	0.575117	7.681115	-0.930490	-0.062788	-0.314717	0.176632
44140	-6.505479	0.435684	7.371377	-0.928674	-0.067140	-0.315343	0.183347
44141	-7.292740	0.699580	7.052676	-0.926252	-0.074302	-0.315731	0.191966
44142	-8.756521	1.824819	6.328560	-0.923838	-0.081897	-0.314958	0.201541
44143	-9.954402	3.030383	5.212896	-0.921871	-0.087127	-0.312539	0.211853
44144	-11.033137	5.263800	3.429922	-0.920888	-0.087140	-0.309692	0.220143
44145	-9.223088	6.142931	1.596419	-0.922051	-0.086142	-0.306289	0.220429
44146	-6.969595	2.140566	3.270178	-0.923254	-0.089811	-0.305092	0.215534
44147	-8.024115	0.392247	9.556073	-0.923782	-0.094840	-0.301317	0.216424
44148	-0.945821	-5.560528	10.548368	-0.922316	-0.097288	-0.295914	0.228699
44149	1.763764	-4.012225	13.718469	-0.918315	-0.102325	-0.289065	0.250338
44150	4.791103	0.600267	15.880124	-0.914108	-0.103194	-0.283369	0.271036
44151	-2.057442	-5.339490	11.000898	-0.913187	-0.094619	-0.283927	0.276628
44152	-7.701150	-3.416518	6.699799	-0.912989	-0.095712	-0.284289	0.276533
44153	-4.958345	-2.117684	8.662124	-0.913158	-0.098056	-0.284609	0.274818
44154	-6.303639	1.166534	7.886497	-0.913175	-0.102089	-0.285660	0.272192
44155	-5.920962	1.500489	7.996806	-0.913453	-0.104306	-0.286037	0.270014
44156	-5.746248	1.088268	7.993668	-0.913568	-0.105618	-0.286396	0.268731
44157	-6.119554	1.642352	7.572152	-0.913613	-0.106375	-0.286836	0.267805
44158	-5.884764	1.254932	7.710703	-0.913884	-0.105780	-0.286306	0.267684
44159	-5.663180	0.180078	7.810317	-0.914234	-0.105081	-0.285535	0.267591
44160	-5.572287	0.210410	8.091953	-0.914578	-0.104722	-0.284739	0.267403
44161	-5.490845	0.136816	8.212452	-0.914825	-0.104835	-0.284194	0.267093
44162	-5.531118	0.353077	8.127297	-0.914966	-0.105263	-0.283951	0.266702
44163	-5.571492	0.435505	8.078360	-0.915029	-0.105789	-0.283882	0.266350
44164	-5.569615	0.367922	8.033699	-0.915045	-0.106438	-0.283941	0.265973
44165	-5.606322	0.478787	7.998951	-0.915037	-0.107171	-0.284064	0.265576
44166	-5.636527	0.657414	7.992491	-0.915027	-0.107759	-0.284189	0.265237
44167	-5.674190	0.659107	7.931493	-0.915037	-0.108063	-0.284237	0.265025
44168	-5.667836	0.542600	7.910475	-0.915085	-0.108155	-0.284184	0.264879
44169	-5.606099	0.300832	7.916292	-0.915187	-0.108361	-0.283959	0.264685
44170	-5.568253	0.369204	8.063123	-0.915278	-0.108812	-0.283775	0.264380
44171	-5.592367	0.503295	8.048560	-0.915298	-0.109358	-0.283798	0.264064
44172	-5.602789	0.495182	8.039651	-0.915278	-0.109928	-0.283925	0.263759
44173	-5.661631	0.581241	7.986446	-0.915250	-0.110468	-0.284093	0.263449
44174	-5.650186	0.595875	7.941802	-0.915229	-0.110893	-0.284247	0.263176
44175	-5.605035	0.559662	8.038231	-0.915246	-0.111181	-0.284295	0.262946
44176	-5.623985	0.564393	8.055545	-0.915227	-0.111447	-0.284469	0.262710
44177	-5.634860	0.505585	8.003040	-0.915192	-0.111740	-0.284722	0.262432
44178	-5.641301	0.512126	7.913070	-0.915166	-0.112076	-0.284963	0.262119
44179	-5.672059	0.487616	7.931171	-0.915163	-0.112495	-0.285114	0.261785
44180	-5.670129	0.515643	7.932753	-0.915178	-0.112975	-0.285181	0.261451
44181	-5.626704	0.667731	7.926223	-0.915210	-0.113334	-0.285203	0.261160
44182	-5.601394	0.802495	7.916038	-0.915271	-0.113501	-0.285118	0.260967
44183	-5.627491	0.724132	7.915304	-0.915328	-0.113538	-0.285040	0.260838
44184	-5.617040	0.613816	7.942036	-0.915369	-0.113591	-0.284960	0.260756
44185	-5.632371	0.615132	7.962108	-0.915398	-0.113680	-0.284912	0.260667
44186	-5.646795	0.574485	7.971308	-0.915423	-0.113817	-0.284874	0.260562
44187	-5.638111	0.606577	7.935751	-0.915449	-0.113977	-0.284821	0.260459
44188	-5.656035	0.649850	7.933266	-0.915489	-0.114099	-0.284746	0.260347
44189	-5.681680	0.618511	7.923403	-0.915549	-0.114139	-0.284600	0.260278
44190	-5.691187	0.584186	7.947139	-0.915624	-0.114178	-0.284380	0.260238
44191	-5.629853	0.622533	7.951840	-0.915723	-0.114202	-0.284112	0.260172
44192	-5.602991	0.695196	7.994710	-0.915799	-0.114189	-0.283896	0.260147
44193	-5.643536	0.612016	7.983264	-0.915854	-0.114167	-0.283749	0.260124
44194	-5.639127	0.622633	7.944124	-0.915901	-0.114204	-0.283627	0.260073
44195	-5.633250	0.590146	7.979744	-0.915946	-0.114218	-0.283509	0.260036
44196	-5.600591	0.641533	7.962931	-0.915983	-0.114253	-0.283428	0.259982
44197	-5.597947	0.649466	7.975630	-0.916003	-0.114289	-0.283379	0.259947
44198	-5.614635	0.647638	7.962827	-0.916012	-0.114331	-0.283368	0.259911
44199	-5.603915	0.636738	7.949500	-0.916015	-0.114387	-0.283367	0.259876
44200	-5.614738	0.653767	7.941556	-0.916021	-0.114407	-0.283359	0.259856
44201	-5.620817	0.636900	7.968559	-0.916023	-0.114423	-0.283363	0.259834
44202	-5.622494	0.634686	7.935372	-0.916022	-0.114437	-0.283356	0.259840
44203	-5.594343	0.627497	7.967416	-0.916019	-0.114447	-0.283347	0.259856
44204	-5.623783	0.634051	7.934509	-0.916015	-0.114442	-0.283348	0.259872
44205	-5.623405	0.635594	7.966837	-0.916018	-0.114430	-0.283332	0.259885
44206	-5.607447	0.589936	7.988879	-0.916028	-0.114414	-0.283302	0.259889
44207	-5.598542	0.618676	7.953685	-0.916043	-0.114426	-0.283286	0.259848
44208	-5.620738	0.646934	7.958577	-0.916043	-0.114446	-0.283286	0.259839
44209	-5.627901	0.627679	7.952817	-0.916041	-0.114447	-0.283305	0.259825
44210	-5.622242	0.645946	7.957595	-0.916051	-0.114398	-0.283288	0.259829
44211	-5.618559	0.609279	7.959825	-0.916064	-0.114360	-0.283254	0.259836
44212	-5.614986	0.620844	7.952189	-0.916074	-0.114372	-0.283246	0.259807
44213	-5.611577	0.632918	7.944398	-0.916082	-0.114389	-0.283218	0.259801
44214	-5.629869	0.625500	7.951595	-0.916083	-0.114405	-0.283213	0.259797
44215	-5.626271	0.637395	7.943952	-0.916104	-0.114396	-0.283164	0.259780
44216	-5.631746	0.620406	7.971393	-0.916109	-0.114413	-0.283141	0.259780
44217	-5.616470	0.620908	7.951136	-0.916125	-0.114427	-0.283086	0.259777
44218	-5.615318	0.622880	7.983991	-0.916146	-0.114400	-0.283029	0.259775
44219	-5.614436	0.625312	7.931504	-0.916166	-0.114392	-0.282970	0.259775
44220	-5.603146	0.610868	7.971772	-0.916189	-0.114394	-0.282906	0.259762
44221	-5.613000	0.627673	7.964527	-0.916209	-0.114414	-0.282854	0.259738
44222	-5.624435	0.639729	7.977259	-0.916232	-0.114434	-0.282798	0.259709
44223	-5.612618	0.628364	7.964742	-0.916251	-0.114438	-0.282727	0.259718
44224	-5.606798	0.645287	7.937551	-0.916271	-0.114437	-0.282651	0.259731
44225	-5.597745	0.623506	7.965340	-0.916296	-0.114402	-0.282594	0.259721
44226	-5.611031	0.627804	7.965904	-0.916323	-0.114403	-0.282495	0.259733
44227	-5.593971	0.630533	7.978915	-0.916347	-0.114413	-0.282413	0.259733
44228	-5.615032	0.658992	7.984599	-0.916370	-0.114427	-0.282336	0.259729
44229	-5.603105	0.647324	7.972181	-0.916388	-0.114407	-0.282280	0.259736
44230	-5.594893	0.623013	7.967381	-0.916417	-0.114351	-0.282205	0.259739
44231	-5.604307	0.638752	7.960539	-0.916440	-0.114317	-0.282137	0.259746
44232	-5.612736	0.609159	7.996114	-0.916475	-0.114268	-0.282050	0.259740
44233	-5.604510	0.632510	7.981596	-0.916489	-0.114244	-0.282006	0.259747
44234	-5.592871	0.620763	7.968976	-0.916507	-0.114261	-0.281953	0.259734
44235	-5.602158	0.639606	7.994164	-0.916507	-0.114281	-0.281929	0.259753
44236	-5.590986	0.627742	7.981228	-0.916512	-0.114268	-0.281909	0.259760
44237	-5.607413	0.624642	7.968700	-0.916527	-0.114245	-0.281865	0.259767
44238	-5.592562	0.621388	8.001323	-0.916535	-0.114198	-0.281843	0.259784
44239	-5.580007	0.613970	7.968302	-0.916537	-0.114199	-0.281845	0.259775
44240	-5.608567	0.622672	7.968042	-0.916542	-0.114192	-0.281846	0.259757
44241	-5.604459	0.636301	7.992815	-0.916546	-0.114174	-0.281850	0.259746
44242	-5.575740	0.631765	7.972159	-0.916552	-0.114178	-0.281839	0.259737
44243	-5.584088	0.607684	7.986639	-0.916551	-0.114197	-0.281839	0.259729
44244	-5.602803	0.647912	7.983843	-0.916549	-0.114226	-0.281855	0.259709
44245	-5.620155	0.645319	7.970610	-0.916546	-0.114234	-0.281872	0.259697
44246	-5.599559	0.616958	7.964574	-0.916542	-0.114245	-0.281894	0.259682
44247	-5.621212	0.646833	8.001945	-0.916545	-0.114230	-0.281903	0.259668
44248	-5.578731	0.637517	7.981111	-0.916543	-0.114212	-0.281914	0.259669
44249	-5.595934	0.634136	7.968035	-0.916539	-0.114190	-0.281938	0.259670
44250	-5.594799	0.640629	7.979816	-0.916524	-0.114208	-0.281982	0.259665
44251	-5.590997	0.609852	7.960912	-0.916516	-0.114236	-0.282031	0.259629
44252	-5.600303	0.633692	7.965001	-0.916503	-0.114287	-0.282074	0.259607
44253	-5.587687	0.629419	7.963976	-0.916498	-0.114313	-0.282089	0.259597
44254	-5.618203	0.633388	7.983391	-0.916491	-0.114319	-0.282124	0.259581
44255	-5.590013	0.628946	7.962380	-0.916485	-0.114327	-0.282144	0.259576
44256	-5.594830	0.616640	7.969187	-0.916488	-0.114327	-0.282157	0.259550
44257	-5.601806	0.644710	7.953851	-0.916490	-0.114312	-0.282156	0.259552
44258	-5.606306	0.632324	7.960885	-0.916497	-0.114315	-0.282155	0.259526
44259	-5.613190	0.613163	7.955266	-0.916503	-0.114327	-0.282152	0.259504
44260	-5.607823	0.632358	7.959814	-0.916503	-0.114355	-0.282165	0.259477
44261	-5.626433	0.624925	7.966755	-0.916507	-0.114363	-0.282160	0.259464
44262	-5.616988	0.655850	7.964025	-0.916515	-0.114363	-0.282155	0.259443
44263	-5.583614	0.618114	7.978254	-0.916512	-0.114374	-0.282163	0.259439
