// Start Time: Unknown
// Update Rate: 60.0Hz
// Filter Profile: human (46.1)
// Option Flags: AHS Disabled ICC Disabled 
// Firmware Version: 4.3.5
PacketCounter	Acc_X	Acc_Y	Acc_Z	Quat_q0	Quat_q1	Quat_q2	Quat_q3
40913	9.790503	-1.576720	2.341540	0.009938	0.616933	-0.121205	0.777563
40914	9.838641	-1.620347	2.343524	0.010195	0.616216	-0.120600	0.778222
40915	9.847357	-1.702490	2.227634	0.009991	0.615523	-0.120288	0.778821
40916	9.756772	-1.831267	2.370277	0.009463	0.614451	-0.120138	0.779697
40917	9.477084	-2.004505	2.347741	0.009151	0.613116	-0.120227	0.780737
40918	9.188188	-1.927965	2.434459	0.009049	0.611833	-0.120149	0.781756
40919	9.070175	-1.763585	2.503534	0.008892	0.610853	-0.119996	0.782547
40920	9.103595	-1.752287	2.526335	0.008804	0.610123	-0.119897	0.783133
40921	9.153937	-1.766006	2.426539	0.008832	0.609691	-0.119846	0.783477
40922	9.231832	-1.786799	2.301898	0.008905	0.609473	-0.119793	0.783654
40923	9.368937	-1.809036	2.307917	0.008981	0.609427	-0.119834	0.783682
40924	9.432622	-1.863575	2.257451	0.009079	0.609481	-0.120022	0.783610
40925	9.403222	-1.894962	2.170021	0.009158	0.609584	-0.120375	0.783476
40926	9.510886	-1.849382	2.086037	0.009270	0.609588	-0.120962	0.783380
40927	9.451151	-1.916895	2.099613	0.009478	0.609407	-0.121726	0.783400
40928	9.389065	-1.875112	2.089452	0.009689	0.609126	-0.122643	0.783474
40929	9.401719	-1.819579	2.176185	0.009809	0.608692	-0.123770	0.783631
40930	9.413851	-1.904746	2.265507	0.009882	0.608334	-0.124853	0.783737
40931	9.350622	-1.935021	2.248800	0.009990	0.608157	-0.125958	0.783696
40932	9.401071	-1.978848	2.248936	0.010224	0.608204	-0.126988	0.783491
40933	9.431821	-1.981173	2.213895	0.010351	0.608285	-0.127743	0.783303
40934	9.502576	-1.937696	2.193670	0.010387	0.608265	-0.128289	0.783229
40935	9.500627	-1.869195	2.172286	0.010545	0.608080	-0.128829	0.783282
40936	9.477952	-1.913065	2.165422	0.010816	0.607662	-0.129400	0.783509
40937	9.490625	-1.881895	2.247883	0.011132	0.607128	-0.129971	0.783823
40938	9.473845	-1.917154	2.264704	0.011363	0.606574	-0.130420	0.784175
40939	9.425376	-1.889046	2.303949	0.011590	0.606027	-0.130773	0.784535
40940	9.402455	-1.939025	2.331195	0.011800	0.605519	-0.131043	0.784879
40941	9.418101	-1.885543	2.297817	0.011999	0.605092	-0.131225	0.785175
40942	9.401362	-1.866547	2.268223	0.012244	0.604659	-0.131406	0.785475
40943	9.400076	-1.881544	2.318915	0.012416	0.604285	-0.131540	0.785737
40944	9.398602	-1.892234	2.354416	0.012498	0.603987	-0.131652	0.785946
40945	9.376980	-1.899930	2.359052	0.012537	0.603751	-0.131733	0.786113
40946	9.343060	-1.870586	2.375410	0.012592	0.603541	-0.131877	0.786250
40947	9.328671	-1.870989	2.396860	0.012743	0.603269	-0.132058	0.786425
40948	9.332525	-1.881884	2.368323	0.012976	0.602995	-0.132283	0.786594
40949	9.329707	-1.940085	2.339033	0.013078	0.602761	-0.132332	0.786763
40950	9.368826	-1.942414	2.388593	0.013135	0.602603	-0.132367	0.786877
40951	9.329416	-1.933537	2.426895	0.013213	0.602477	-0.132438	0.786961
40952	9.395655	-1.887048	2.491136	0.013302	0.602321	-0.132544	0.787061
40953	9.358462	-1.947717	2.366909	0.013290	0.602170	-0.132528	0.787179
40954	9.345335	-1.965805	2.443819	0.013234	0.601918	-0.132502	0.787377
40955	9.308287	-1.884740	2.307913	0.012922	0.601762	-0.132414	0.787516
40956	9.464697	-1.935868	2.403312	0.012457	0.601471	-0.132409	0.787747
40957	9.384507	-2.052694	2.562402	0.012212	0.600965	-0.132399	0.788139
40958	9.346292	-2.061747	2.496025	0.012189	0.600452	-0.132254	0.788554
40959	9.292623	-1.947538	2.562950	0.011936	0.600049	-0.131948	0.788916
40960	9.296345	-1.925190	2.549260	0.011756	0.599749	-0.131697	0.789189
40961	9.353724	-1.916048	2.590612	0.011595	0.599466	-0.131515	0.789437
40962	9.312041	-1.928367	2.594804	0.011369	0.599198	-0.131324	0.789675
40963	9.264005	-1.958493	2.607375	0.011076	0.599028	-0.131166	0.789834
40964	9.248869	-1.980258	2.589509	0.010737	0.598941	-0.130998	0.789933
40965	9.227530	-1.969894	2.534072	0.010278	0.598970	-0.130804	0.789949
40966	9.247216	-1.940526	2.560196	0.009770	0.599033	-0.130654	0.789933
40967	9.259855	-1.919371	2.568666	0.009386	0.599008	-0.130574	0.789970
40968	9.220238	-1.970675	2.678982	0.009013	0.598895	-0.130363	0.790094
40969	9.312854	-1.959806	2.808179	0.008529	0.598920	-0.130032	0.790136
40970	9.229115	-1.911495	2.855372	0.007837	0.599142	-0.129463	0.790068
40971	9.237853	-1.896728	2.854588	0.007126	0.599619	-0.128781	0.789824
40972	9.340790	-1.830709	2.864991	0.006535	0.600182	-0.127988	0.789530
40973	9.314469	-1.746661	2.943730	0.006006	0.600650	-0.127047	0.789331
40974	9.224119	-1.720492	3.111723	0.005419	0.601242	-0.125834	0.789078
40975	9.098206	-1.705919	3.283558	0.004606	0.602448	-0.124267	0.788412
40976	9.024109	-1.558785	3.342499	0.003697	0.604391	-0.122337	0.787230
40977	9.181150	-1.333734	3.253270	0.003136	0.606608	-0.120402	0.785825
40978	9.361406	-1.306048	2.928255	0.002906	0.608719	-0.118153	0.784534
40979	9.273008	-1.289250	2.802844	0.003020	0.611244	-0.115899	0.782904
40980	9.133379	-1.437715	2.634908	0.002987	0.614359	-0.113454	0.780822
40981	9.234913	-1.411056	2.408324	0.002641	0.617678	-0.110858	0.778574
40982	9.346764	-1.263597	2.520972	0.002462	0.620750	-0.108880	0.776408
40983	9.403949	-1.176566	2.498896	0.002728	0.623714	-0.107419	0.774231
40984	9.513900	-1.210375	2.301553	0.003192	0.626538	-0.105966	0.772147
40985	9.575239	-1.271286	2.101785	0.003186	0.629309	-0.104448	0.770098
40986	9.479902	-1.241626	1.846147	0.003215	0.631260	-0.103063	0.768686
40987	9.302443	-1.107520	1.993164	0.004200	0.632894	-0.101803	0.767505
40988	9.322205	-1.168473	1.355629	0.006248	0.633957	-0.100351	0.766805
40989	9.651588	-1.531063	1.488134	0.008005	0.634172	-0.098085	0.766903
40990	9.988612	-1.485000	1.448112	0.008548	0.633845	-0.095459	0.767499
40991	10.104639	-1.206980	1.805032	0.008693	0.632717	-0.093034	0.768725
40992	9.762395	-0.871213	1.638235	0.009951	0.631481	-0.091103	0.769956
40993	9.633475	-1.074413	1.532506	0.012879	0.629953	-0.089377	0.771366
40994	9.584245	-1.242826	1.737040	0.014783	0.628277	-0.086872	0.772983
40995	9.852966	-1.180930	1.518016	0.014129	0.625917	-0.083703	0.775256
40996	9.776751	-1.027847	1.966623	0.013448	0.623010	-0.081929	0.777796
40997	9.349106	-0.867385	2.168164	0.014249	0.620507	-0.081265	0.779849
40998	9.197861	-0.654154	1.816462	0.017105	0.618155	-0.080956	0.781689
40999	9.308410	-1.036831	2.272743	0.020199	0.615817	-0.079995	0.783557
41000	9.090630	-1.208398	2.448565	0.021191	0.614213	-0.077978	0.784992
41001	9.090882	-1.513970	1.868748	0.019935	0.613415	-0.075465	0.785894
41002	9.369527	-1.271449	2.454962	0.018683	0.611048	-0.073308	0.787970
41003	9.384159	-0.663882	3.175070	0.019016	0.608552	-0.071969	0.790015
41004	9.235640	-0.371782	2.810280	0.020922	0.605987	-0.071072	0.792017
41005	9.203745	-0.803578	2.939097	0.023005	0.603594	-0.070125	0.793869
41006	9.316691	-1.399550	3.147225	0.023955	0.602078	-0.069085	0.795082
41007	9.443159	-1.773676	2.792081	0.023923	0.601239	-0.068723	0.795749
41008	9.517289	-1.634160	2.906864	0.023908	0.600232	-0.068840	0.796499
41009	8.965688	-0.768203	2.952895	0.025551	0.599682	-0.069936	0.796767
41010	8.550279	-0.618715	2.716264	0.029066	0.599586	-0.072041	0.796531
41011	8.813191	-0.934449	2.859127	0.032845	0.600087	-0.074208	0.795807
41012	9.862416	-1.304661	2.843744	0.036589	0.600812	-0.076719	0.794859
41013	10.803874	-1.497590	3.057569	0.040239	0.600920	-0.079452	0.794332
41014	10.619693	-0.932314	3.400148	0.044355	0.600297	-0.082454	0.794278
41015	9.880756	-0.756917	3.407371	0.049522	0.599360	-0.086209	0.794282
41016	9.352967	-0.755317	3.700156	0.055556	0.598068	-0.090355	0.794396
41017	8.700217	-0.857649	3.453974	0.062234	0.596954	-0.094924	0.794205
41018	8.282968	-1.084666	3.345039	0.069586	0.596199	-0.100294	0.793502
41019	8.098854	-1.523586	3.414255	0.077156	0.595809	-0.106127	0.792336
41020	8.306449	-1.855544	3.285943	0.084880	0.595662	-0.112724	0.790744
41021	8.539985	-2.289474	3.364018	0.092440	0.595594	-0.119807	0.788903
41022	8.873351	-2.661814	3.047922	0.099563	0.595513	-0.126961	0.786977
41023	8.809680	-2.207730	3.545815	0.106725	0.595410	-0.134161	0.784918
41024	8.595116	-2.151358	3.484375	0.114051	0.596120	-0.141526	0.782051
41025	8.326538	-2.449542	3.316135	0.121674	0.597049	-0.148547	0.778885
41026	8.077220	-2.400759	3.587090	0.129330	0.597811	-0.155230	0.775757
41027	8.313364	-2.806689	3.561830	0.136368	0.598907	-0.161411	0.772438
41028	8.972465	-3.106930	2.861898	0.143213	0.600151	-0.167305	0.768972
41029	9.109382	-3.550939	2.947799	0.149976	0.601095	-0.173069	0.765663
41030	8.728422	-3.886050	3.252772	0.156349	0.601666	-0.179044	0.762559
41031	8.714801	-3.753345	2.855767	0.162049	0.601948	-0.185121	0.759690
41032	8.930583	-3.469313	2.779425	0.167507	0.601771	-0.191315	0.757107
41033	9.287939	-3.162746	2.371598	0.173051	0.601662	-0.197501	0.754354
41034	9.608402	-2.706849	2.065696	0.179319	0.601889	-0.204128	0.750936
41035	9.903434	-2.481301	2.278978	0.186532	0.602324	-0.211138	0.746882
41036	10.353387	-2.458062	2.286615	0.194509	0.602760	-0.218503	0.742364
41037	11.309829	-2.621198	2.542676	0.203617	0.601957	-0.226447	0.738180
41038	11.583565	-2.175654	2.629921	0.213988	0.600292	-0.234629	0.734035
41039	10.796835	-1.686647	1.541016	0.223962	0.599396	-0.242647	0.729169
41040	10.472122	-0.556537	0.704285	0.233473	0.599558	-0.250495	0.723376
41041	10.346772	0.067728	0.468794	0.240794	0.600970	-0.258042	0.717125
41042	10.852006	0.861255	-0.036175	0.245885	0.602685	-0.264077	0.711740
41043	11.722047	2.145746	0.057486	0.250937	0.603091	-0.269636	0.707537
41044	12.011798	2.690612	0.387217	0.257270	0.601788	-0.275423	0.704134
41045	10.787725	2.216793	0.381195	0.263972	0.599821	-0.281538	0.700907
41046	10.068606	1.564455	0.394033	0.269916	0.598094	-0.287665	0.697623
41047	10.116739	0.945566	0.305578	0.274592	0.597029	-0.293696	0.694189
41048	10.505173	0.553691	0.629864	0.278224	0.595782	-0.299299	0.691415
41049	10.175034	0.807571	0.694536	0.281175	0.594177	-0.304350	0.689395
41050	9.392611	1.178311	0.395934	0.283759	0.592261	-0.309385	0.687742
41051	8.852731	1.441608	0.055724	0.285652	0.590459	-0.313874	0.686472
41052	8.799252	1.524352	-0.342269	0.287069	0.589081	-0.317449	0.685421
41053	8.942584	1.516700	-0.421817	0.288302	0.588174	-0.320268	0.684369
41054	9.081416	1.546100	0.089094	0.289233	0.587472	-0.322550	0.683507
41055	8.703056	1.533516	0.402152	0.289572	0.587011	-0.324617	0.682781
41056	8.150411	1.350799	0.482558	0.289318	0.586678	-0.326891	0.682090
41057	8.030105	0.894749	0.446730	0.288256	0.586513	-0.329486	0.681432
41058	7.902148	0.589424	0.961444	0.287057	0.586396	-0.332502	0.680574
41059	7.897637	0.103577	1.404002	0.285905	0.586430	-0.336121	0.679250
41060	7.734751	-0.494337	1.655328	0.284569	0.586704	-0.340147	0.677568
41061	7.290801	-1.238993	1.511577	0.283241	0.587326	-0.344679	0.675292
41062	7.515606	-1.751560	0.912877	0.282737	0.588204	-0.350494	0.671736
41063	7.828533	-2.075357	1.093255	0.283425	0.589327	-0.358290	0.666327
41064	8.501163	-2.659763	0.129719	0.284320	0.591086	-0.367614	0.659272
41065	9.948324	-4.060551	-0.359395	0.285615	0.592811	-0.377483	0.651541
41066	10.778262	-5.318256	-0.072102	0.287185	0.594084	-0.385741	0.644820
41067	11.021597	-5.568433	0.328100	0.290439	0.594618	-0.392844	0.638552
41068	9.474655	-5.121420	1.054512	0.295693	0.594582	-0.398141	0.632868
41069	8.238607	-4.725563	-0.373246	0.301039	0.594671	-0.400284	0.628900
41070	8.101321	-4.757218	-1.571546	0.304465	0.595120	-0.398574	0.627910
41071	7.927317	-5.320401	-1.932506	0.305807	0.596299	-0.393642	0.629250
41072	8.624227	-5.101896	-0.888313	0.306928	0.597245	-0.386531	0.632208
41073	10.758586	-4.424246	-0.649936	0.307768	0.598335	-0.379379	0.635095
41074	14.174426	-5.359219	-0.852203	0.307802	0.599648	-0.373011	0.637607
41075	14.877851	-5.012949	-0.522976	0.303795	0.602901	-0.364680	0.641270
41076	13.279682	-5.219839	0.075229	0.292499	0.607506	-0.352735	0.648813
41077	12.989238	-6.026004	0.216217	0.275513	0.612488	-0.338147	0.659248
41078	13.731939	-6.156167	0.424209	0.256566	0.616867	-0.323673	0.669988
41079	13.712157	-5.989059	0.302962	0.234672	0.621047	-0.306838	0.681968
41080	11.458286	-6.410569	-1.402414	0.209090	0.625849	-0.282321	0.696340
41081	9.914501	-6.839214	-3.906919	0.179565	0.631858	-0.249934	0.711369
41082	11.242057	-3.404428	-2.596155	0.149058	0.638652	-0.219082	0.722432
41083	10.255577	-3.006493	-1.564976	0.117210	0.643489	-0.186623	0.733045
41084	8.436819	-1.564795	-3.143421	0.082488	0.647985	-0.151404	0.741881
41085	5.986003	0.513463	-3.284156	0.046200	0.652036	-0.114135	0.748123
41086	4.833600	1.416548	-4.249563	0.009377	0.657058	-0.075586	0.749983
41087	3.591973	2.179580	-5.742505	-0.026520	0.661533	-0.034578	0.748649
41088	2.557131	2.354626	-6.637959	-0.061636	0.665834	0.006008	0.743525
41089	2.921972	1.154273	-5.550179	-0.091444	0.668232	0.042131	0.737108
41090	5.232223	2.435528	-3.828407	-0.118988	0.669147	0.073813	0.729819
41091	11.226610	2.196235	-3.769474	-0.146309	0.668767	0.102845	0.721642
41092	11.902605	3.618989	-1.728323	-0.175409	0.666040	0.129980	0.713252
41093	10.180027	4.839376	-1.834902	-0.199309	0.665927	0.152666	0.702502
41094	10.430566	6.538568	-3.643774	-0.214613	0.665638	0.170038	0.694229
41095	11.514769	8.193350	-1.670981	-0.223100	0.666843	0.182457	0.687209
41096	12.720471	6.379601	1.586984	-0.230631	0.670275	0.191768	0.678797
41097	15.343638	3.773002	0.436502	-0.237089	0.673697	0.198514	0.671203
41098	16.366998	3.376598	-2.270560	-0.232234	0.678428	0.198714	0.668069
41099	15.696955	5.882931	-3.587252	-0.214245	0.684538	0.191276	0.670015
41100	15.802824	7.298511	-2.662125	-0.190976	0.690248	0.178918	0.674592
41101	15.914751	5.862440	-1.753715	-0.164441	0.695313	0.163026	0.680383
41102	15.995501	5.080759	-2.177664	-0.135017	0.699434	0.143493	0.687002
41103	15.523532	5.140606	-3.539177	-0.102378	0.701813	0.119064	0.694839
41104	14.165244	4.523677	-4.284719	-0.067189	0.702613	0.090533	0.702584
41105	11.770206	3.096120	-3.975531	-0.030047	0.702407	0.058893	0.708698
41106	8.900376	2.123127	-2.724087	0.006904	0.702241	0.025109	0.711463
41107	6.930115	2.739190	-3.011571	0.040840	0.701740	-0.008015	0.711216
41108	5.364120	3.674502	-4.001359	0.071265	0.701256	-0.040510	0.708181
41109	4.201057	5.717179	-5.130762	0.101730	0.700826	-0.076076	0.701930
41110	2.911518	6.988019	-5.662414	0.132159	0.699727	-0.114725	0.692643
41111	1.820341	5.892356	-6.892665	0.162516	0.697421	-0.157481	0.679994
41112	1.831914	2.904169	-8.774579	0.187386	0.693581	-0.200203	0.666146
41113	2.302217	-0.990523	-8.320509	0.202564	0.688216	-0.239335	0.654251
41114	4.680441	-6.252669	-8.172108	0.211897	0.681957	-0.272416	0.644844
41115	6.374356	-7.541405	-8.440147	0.225667	0.672334	-0.298633	0.638639
41116	8.587297	-6.095222	-6.218369	0.248917	0.658438	-0.324411	0.631868
41117	8.904666	-5.118267	-2.532512	0.276202	0.642661	-0.348656	0.623809
41118	8.363558	-5.034361	0.347633	0.298046	0.628969	-0.366422	0.617496
41119	10.036420	-5.281976	-0.299309	0.313491	0.619098	-0.380812	0.611084
41120	12.915897	-2.997750	-1.592256	0.325350	0.611892	-0.395719	0.602613
41121	16.514003	-2.543452	-2.060184	0.329494	0.606718	-0.408653	0.596934
41122	17.334164	-4.966987	-2.260334	0.328181	0.602729	-0.417136	0.595829
41123	14.838896	-7.588042	-3.029294	0.323937	0.601732	-0.419416	0.597556
41124	14.068273	-9.113948	-3.643787	0.319353	0.602021	-0.418257	0.600538
41125	15.329375	-8.921647	-1.954132	0.315899	0.601672	-0.414963	0.604983
41126	15.122601	-7.245445	0.888545	0.311670	0.601142	-0.408859	0.611821
41127	13.149081	-5.152160	2.238707	0.303587	0.601919	-0.400335	0.620694
41128	10.958953	-5.848474	0.571724	0.288672	0.605832	-0.387810	0.631854
41129	8.349708	-7.541682	-2.061990	0.270473	0.611462	-0.369278	0.645440
41130	6.015986	-6.172372	-2.723505	0.251617	0.618579	-0.344378	0.659888
41131	4.582659	-4.398933	-1.773715	0.232741	0.625773	-0.317615	0.673320
41132	4.225500	-3.694847	-0.603829	0.215196	0.632228	-0.292884	0.684249
41133	4.675026	-3.931569	-0.796038	0.198733	0.638639	-0.268538	0.693205
41134	5.801111	-3.381804	-2.103822	0.183926	0.643437	-0.243122	0.702177
41135	7.017227	-1.211079	-2.499411	0.172691	0.644885	-0.220151	0.711220
41136	8.508535	0.202393	-1.234186	0.164817	0.643744	-0.201376	0.719637
41137	9.414273	0.479258	2.700552	0.158747	0.640115	-0.185017	0.728575
41138	10.036346	-1.378888	4.877183	0.147589	0.638978	-0.168258	0.735944
41139	11.135355	-2.093063	2.139236	0.129264	0.639382	-0.148880	0.743179
41140	11.329684	-1.090269	1.809452	0.110674	0.638724	-0.131865	0.749930
41141	10.446930	1.135017	3.940246	0.092248	0.637464	-0.117253	0.755898
41142	10.574751	1.741468	3.972321	0.075207	0.636458	-0.105643	0.760332
41143	11.026233	1.363475	2.920580	0.061060	0.635489	-0.096778	0.763583
41144	10.798691	0.689773	3.079917	0.049297	0.634322	-0.090611	0.766156
41145	10.276758	0.435979	3.624501	0.038171	0.634059	-0.086822	0.767447
41146	9.867057	0.070346	3.103111	0.026291	0.634797	-0.083810	0.767670
41147	8.840351	0.156849	2.374245	0.015957	0.635911	-0.081838	0.767245
41148	7.882840	0.817709	1.557584	0.009083	0.636831	-0.081235	0.766658
41149	7.401706	2.059595	1.352680	0.006187	0.637635	-0.082176	0.765918
41150	7.364681	2.112751	2.175591	0.004751	0.638919	-0.083238	0.764743
41151	6.768188	1.814431	3.202922	0.004318	0.641568	-0.084200	0.762419
41152	5.883832	1.357561	2.901364	0.005763	0.645755	-0.085065	0.758770
41153	4.703531	1.564007	1.865880	0.009453	0.651255	-0.086062	0.753903
41154	3.053080	2.230011	1.237620	0.014605	0.657484	-0.087925	0.748178
41155	1.241417	2.718973	1.006264	0.019890	0.664327	-0.090255	0.741706
41156	-0.270588	2.497959	0.845259	0.024589	0.671351	-0.092673	0.734911
41157	-1.436554	2.000738	-0.067544	0.027776	0.678946	-0.094537	0.727546
41158	-1.942539	1.197440	-1.526515	0.029077	0.687584	-0.095449	0.719217
41159	-1.065942	0.288287	-1.683448	0.027993	0.696337	-0.096424	0.710657
41160	0.598330	-0.964067	-0.026385	0.026174	0.703466	-0.098435	0.703393
41161	0.515544	-1.210140	0.918276	0.026301	0.709229	-0.101348	0.697159
41162	-0.265790	-1.194281	-0.088748	0.026085	0.714717	-0.103469	0.691226
41163	0.334808	-1.505502	-1.170869	0.022962	0.720320	-0.103781	0.685449
41164	1.380730	-1.284011	-2.059450	0.017581	0.726703	-0.102024	0.679106
41165	2.673741	-0.744610	-2.455846	0.010770	0.733474	-0.099176	0.672357
41166	4.728694	-0.423895	-1.755627	0.004516	0.739193	-0.096939	0.666465
41167	5.583250	-0.319872	0.009286	0.001919	0.743983	-0.095810	0.661291
41168	4.903589	0.191444	0.142303	0.001325	0.748703	-0.094843	0.656085
41169	5.274640	0.194156	-2.578439	-0.002275	0.755108	-0.092396	0.649053
41170	8.523382	-0.425214	-4.750617	-0.009909	0.763529	-0.089290	0.639494
41171	13.247163	-0.934132	-3.561552	-0.019223	0.771061	-0.086625	0.630549
41172	15.002814	-2.101098	-2.545493	-0.024328	0.775426	-0.085038	0.625213
41173	12.792288	-2.336970	-2.562563	-0.021973	0.777663	-0.085795	0.622412
41174	12.202388	-1.990092	-3.975407	-0.022418	0.780041	-0.085677	0.619430
41175	15.451727	-1.357118	-6.558272	-0.024438	0.783109	-0.086702	0.615326
41176	19.476091	-1.801269	-6.624771	-0.022408	0.783636	-0.090702	0.614155
41177	19.151364	-2.860039	-3.953790	-0.019606	0.781379	-0.094515	0.616547
41178	18.250175	-3.288750	-4.543342	-0.017632	0.779569	-0.096271	0.618622
41179	19.635301	-3.497505	-7.741756	-0.016670	0.778501	-0.097785	0.619755
41180	22.709911	-3.836488	-8.872627	-0.014299	0.777393	-0.101419	0.620621
41181	27.326548	-4.849862	-8.298135	-0.010567	0.776201	-0.107132	0.621228
41182	30.437972	-6.409112	-6.401624	-0.005583	0.774489	-0.113399	0.622315
41183	30.303516	-6.420689	-5.541009	-0.000241	0.773749	-0.117894	0.622425
41184	29.336287	-4.902397	-7.631819	0.005955	0.773946	-0.121877	0.621384
41185	29.003415	-3.284146	-6.175093	0.013556	0.772970	-0.126459	0.621564
41186	25.174064	-1.914771	-3.660054	0.020421	0.771779	-0.130442	0.622033
41187	21.563677	-2.531299	-5.337877	0.024709	0.771617	-0.134234	0.621271
41188	19.584747	-3.128420	-5.809079	0.029239	0.771286	-0.138151	0.620627
41189	17.592059	-2.630439	-5.826389	0.034075	0.770515	-0.141549	0.620571
41190	15.972416	-1.485330	-6.153094	0.038119	0.769313	-0.144588	0.621127
41191	15.160768	-0.834593	-5.817420	0.042680	0.766978	-0.148525	0.622787
41192	14.584077	0.425547	-4.545555	0.048913	0.763199	-0.153580	0.625738
41193	13.976924	0.184150	-4.332470	0.056873	0.758366	-0.160240	0.629261
41194	12.540866	-1.052405	-4.236686	0.064700	0.752541	-0.167416	0.633615
41195	10.909918	-2.060662	-4.421029	0.072983	0.746487	-0.175220	0.637753
41196	10.101556	-2.532106	-4.395165	0.081547	0.740031	-0.183135	0.642001
41197	9.825079	-2.010899	-3.245397	0.090616	0.733429	-0.190813	0.646112
41198	9.758773	-1.658162	-2.580420	0.099718	0.726607	-0.197976	0.650310
41199	9.066776	-1.409786	-1.979980	0.110335	0.719454	-0.205580	0.654178
41200	8.198653	-1.317913	-1.183375	0.123208	0.711640	-0.214007	0.657715
41201	7.416815	-0.707521	0.083518	0.137115	0.703790	-0.223202	0.660348
41202	6.938434	-0.671352	0.448823	0.150459	0.696477	-0.233195	0.661741
41203	6.429440	-0.530009	-0.041096	0.161864	0.688953	-0.242475	0.663588
41204	5.969016	-0.192303	-0.884825	0.173773	0.680414	-0.251780	0.665918
41205	4.688266	-0.221894	-0.877254	0.185551	0.670503	-0.260633	0.669378
41206	3.057462	-1.344218	-0.992158	0.197283	0.660051	-0.269319	0.672964
41207	1.984784	-1.622335	-1.198835	0.208353	0.649780	-0.276727	0.676607
41208	1.483199	-1.114564	-1.129723	0.217236	0.640899	-0.281707	0.680219
41209	1.413344	-0.238044	-0.705267	0.224247	0.632660	-0.284071	0.684659
41210	0.375827	-0.273165	0.048593	0.231650	0.624370	-0.285232	0.689306
41211	-0.979023	0.458884	0.909033	0.238639	0.616856	-0.286558	0.693127
41212	-0.743976	0.480042	0.608859	0.243887	0.610615	-0.288416	0.696049
41213	-0.253123	-0.221932	-0.093652	0.247692	0.605711	-0.290125	0.698276
41214	1.147203	-0.190225	0.355219	0.250753	0.602048	-0.291758	0.699671
41215	2.647983	-0.549250	2.073829	0.254224	0.598166	-0.293700	0.700933
41216	3.389179	-0.249412	3.404881	0.257544	0.593344	-0.295622	0.703009
41217	3.587583	0.107613	3.411498	0.260511	0.588381	-0.297704	0.705205
41218	5.321428	0.356421	2.185867	0.264935	0.583290	-0.301096	0.706344
41219	7.584165	-0.726606	3.448011	0.270921	0.578878	-0.305378	0.705865
41220	9.675309	-2.455730	3.913639	0.277087	0.575311	-0.309767	0.704475
41221	10.885015	-3.689563	5.687466	0.283338	0.572656	-0.316888	0.700975
41222	10.623612	-4.537666	4.760796	0.288113	0.570786	-0.326007	0.696358
41223	10.590179	-3.646794	2.585788	0.294242	0.567591	-0.338346	0.690496
41224	9.819133	-3.230028	2.907890	0.301782	0.563585	-0.352401	0.683457
41225	8.684732	-2.870283	2.180702	0.308967	0.560634	-0.367170	0.674845
41226	8.008147	-3.637159	1.210813	0.315254	0.558724	-0.380900	0.665851
41227	7.233913	-4.546775	0.739371	0.322193	0.556862	-0.392849	0.657089
41228	6.532287	-6.142063	0.129410	0.329756	0.555148	-0.404861	0.647425
41229	5.657100	-6.346640	-0.569909	0.336624	0.553452	-0.417437	0.637277
41230	5.354138	-6.530741	-2.331615	0.340750	0.552372	-0.428434	0.628664
41231	5.588444	-6.650744	-4.421263	0.340133	0.552935	-0.436016	0.623268
41232	6.254927	-8.845179	-4.154938	0.334565	0.555545	-0.439161	0.621750
41233	7.986040	-10.992925	-2.822115	0.327187	0.558995	-0.435130	0.625408
41234	9.037002	-10.874306	-1.520898	0.318231	0.564673	-0.421290	0.634341
41235	10.368812	-9.542677	-0.695012	0.304478	0.572665	-0.401231	0.646809
41236	11.803782	-7.513077	1.284256	0.287862	0.580114	-0.381704	0.659474
41237	12.784728	-6.242087	3.086903	0.267047	0.587945	-0.363594	0.671421
41238	14.348750	-8.634245	3.280370	0.238160	0.597669	-0.342094	0.684867
41239	13.753173	-10.104790	2.308386	0.206441	0.608834	-0.317280	0.697163
41240	9.895656	-8.297265	-0.175580	0.173428	0.621269	-0.284697	0.709151
41241	8.543480	-5.814376	-1.847336	0.142316	0.633732	-0.246250	0.719369
41242	8.510584	-2.450333	-2.224439	0.112719	0.646679	-0.204878	0.726034
41243	7.151503	-0.277078	-2.461937	0.083761	0.659892	-0.162732	0.728728
41244	4.244433	0.279763	-5.506204	0.055200	0.671396	-0.117907	0.729574
41245	1.361342	0.282998	-8.994865	0.029091	0.680175	-0.071293	0.728995
41246	1.955466	3.626316	-10.433964	0.005287	0.687284	-0.032898	0.725624
41247	5.152091	4.447006	-9.048384	-0.015568	0.694824	-0.004393	0.718998
41248	12.067536	2.351704	-8.135445	-0.036163	0.704608	0.022130	0.708329
41249	13.050926	4.519262	-6.611984	-0.061732	0.711185	0.049253	0.698556
41250	15.087243	6.097191	-5.823439	-0.087442	0.712482	0.071598	0.692529
41251	12.641618	6.569870	-4.250164	-0.107110	0.712400	0.087236	0.688044
41252	11.226918	5.062913	-3.781749	-0.124912	0.712339	0.100865	0.683225
41253	11.083179	2.608876	-1.945189	-0.142688	0.714544	0.114038	0.675324
41254	14.875456	2.145626	-1.095420	-0.155171	0.719447	0.125414	0.665274
41255	16.286913	3.805247	-1.844360	-0.155470	0.723092	0.130462	0.660262
41256	14.675400	5.797647	-4.253898	-0.146141	0.726531	0.129991	0.658709
41257	13.872814	5.022741	-4.186871	-0.134189	0.729517	0.125944	0.658739
41258	14.000135	2.819125	-2.839291	-0.121055	0.733577	0.118499	0.658156
41259	14.036723	1.850906	-3.541080	-0.104171	0.737595	0.105861	0.658707
41260	13.597539	1.497032	-4.805916	-0.084375	0.740287	0.089009	0.661009
41261	12.836188	1.846905	-4.649639	-0.062886	0.741632	0.069879	0.664187
41262	11.799597	2.472682	-3.496065	-0.038265	0.741742	0.048854	0.667808
41263	10.711863	3.671513	-3.146194	-0.009991	0.740358	0.025081	0.671670
41264	9.897037	3.549983	-4.148997	0.019091	0.737517	-0.000486	0.675059
41265	9.204306	3.369480	-4.415486	0.046712	0.733854	-0.026831	0.677168
41266	8.501827	4.433854	-4.670272	0.075440	0.729617	-0.054413	0.677501
41267	8.012186	6.642605	-5.490994	0.105880	0.724060	-0.082666	0.676530
41268	7.079147	7.642436	-6.923558	0.133946	0.719426	-0.108671	0.672811
41269	5.856317	8.329623	-8.701850	0.155641	0.715453	-0.133308	0.667931
41270	5.017420	8.386275	-9.622213	0.171165	0.711867	-0.160887	0.661864
41271	6.708773	5.427641	-12.032425	0.186195	0.707698	-0.195930	0.652769
41272	8.400568	-0.823364	-11.814843	0.205093	0.697878	-0.234719	0.644834
41273	9.686472	-3.471574	-9.132012	0.235078	0.679513	-0.273867	0.638746
41274	8.497606	-0.098853	-7.456404	0.276325	0.652772	-0.311148	0.633024
41275	7.077449	-1.414880	-6.268822	0.321870	0.622457	-0.347298	0.623163
41276	4.190307	-1.889168	-4.932778	0.365330	0.591042	-0.377433	0.612166
41277	1.425676	-2.420779	-3.465264	0.404591	0.561111	-0.405032	0.597837
41278	1.071203	-3.165670	-2.866635	0.439312	0.532401	-0.431604	0.580752
41279	2.075932	-3.041075	-2.007094	0.471234	0.503564	-0.457190	0.561550
41280	3.248987	-2.532199	-1.134933	0.500003	0.474448	-0.481558	0.541292
41281	3.381794	-3.056461	-1.303820	0.523998	0.446568	-0.504903	0.520651
41282	4.626721	-4.234854	-2.355492	0.541314	0.423163	-0.528108	0.499013
41283	7.928581	-5.871517	-4.566832	0.550964	0.405435	-0.548127	0.481266
41284	12.088476	-8.473244	-5.429141	0.555695	0.392014	-0.564602	0.467710
41285	13.512543	-10.381795	-3.366689	0.558597	0.381641	-0.576189	0.458612
41286	13.339852	-8.874252	0.912208	0.560490	0.371612	-0.588586	0.448689
41287	16.205070	-6.268740	1.695630	0.561138	0.362605	-0.601050	0.438613
41288	18.616237	-5.264108	-1.142473	0.562519	0.355022	-0.609713	0.431023
41289	17.373468	-5.709629	-2.064200	0.567922	0.347995	-0.614003	0.423515
41290	15.193773	-5.916667	-0.725154	0.572878	0.344289	-0.615501	0.417653
41291	14.582200	-4.743283	-0.444946	0.574183	0.344714	-0.614500	0.416985
41292	13.539756	-4.187404	-1.089727	0.572694	0.347337	-0.612030	0.420472
41293	12.691296	-4.231395	-1.485206	0.569504	0.350493	-0.609629	0.425642
41294	12.156158	-3.767135	-1.368695	0.566597	0.352593	-0.608171	0.429854
41295	10.998477	-3.167385	-0.695999	0.564777	0.353711	-0.606601	0.433532
41296	9.207261	-2.832163	-0.109348	0.564065	0.354918	-0.603644	0.437581
41297	7.865358	-2.754184	-0.311753	0.562744	0.357117	-0.600223	0.442175
41298	7.528274	-2.708498	-0.450637	0.560449	0.360538	-0.596229	0.447683
41299	7.976442	-3.122421	-0.457512	0.557246	0.364995	-0.591831	0.453864
41300	8.545589	-4.042689	-0.609894	0.553129	0.370959	-0.586555	0.460859
41301	9.010143	-4.777200	-0.573940	0.547863	0.378395	-0.581155	0.467891
41302	9.201868	-4.913741	-0.173997	0.541141	0.387462	-0.575726	0.474951
41303	9.971894	-5.270453	-0.359360	0.531714	0.399227	-0.568756	0.484165
41304	11.787707	-6.394982	-1.228141	0.519164	0.414496	-0.557689	0.497639
41305	12.973395	-7.594509	-1.954353	0.504294	0.432479	-0.541212	0.515499
41306	12.361811	-8.562130	-2.374923	0.486812	0.452443	-0.520128	0.536448
41307	11.082120	-8.108146	-2.152079	0.466411	0.473598	-0.496131	0.558587
41308	9.433919	-6.187888	-2.271185	0.442107	0.495731	-0.467872	0.583000
41309	8.151846	-4.821517	-2.048323	0.413024	0.517718	-0.435841	0.609444
41310	7.231547	-4.756134	-2.040082	0.379268	0.538484	-0.400411	0.637073
41311	4.881067	-4.260698	-1.639794	0.344554	0.555256	-0.365901	0.662639
41312	2.964712	-3.538335	-1.096651	0.304343	0.572558	-0.332159	0.684998
41313	2.395208	-3.765752	-3.391079	0.256536	0.592813	-0.297704	0.702947
41314	2.882335	-2.502964	-5.727332	0.206697	0.611678	-0.260376	0.717865
41315	1.565037	0.160221	-5.348401	0.160385	0.627412	-0.224402	0.728200
41316	1.453532	0.422071	-4.071383	0.115368	0.641415	-0.189599	0.734390
41317	2.950528	-0.949930	-4.279877	0.068308	0.655582	-0.153234	0.736251
41318	5.372314	-1.131113	-5.469328	0.021541	0.668010	-0.117559	0.734492
41319	6.722011	0.029370	-5.580367	-0.019596	0.676926	-0.084633	0.730907
41320	8.583086	1.717536	-5.686534	-0.054302	0.685228	-0.055660	0.724165
41321	10.393903	2.151348	-6.036391	-0.081405	0.693338	-0.030187	0.715363
41322	11.931705	1.891644	-5.712569	-0.101438	0.701477	-0.007966	0.705392
41323	13.252587	1.208678	-4.890903	-0.116585	0.709284	0.011173	0.695126
41324	14.280898	0.784102	-4.406515	-0.127490	0.717403	0.026684	0.684374
41325	15.623697	0.645402	-4.645960	-0.134139	0.725706	0.038629	0.673695
41326	17.673649	2.300184	-5.210427	-0.134769	0.732955	0.045722	0.665224
41327	18.018218	2.131829	-4.815359	-0.131349	0.737041	0.048609	0.661177
41328	16.876853	1.576915	-2.632547	-0.125386	0.738826	0.049466	0.660278
41329	16.364779	0.955928	-2.116667	-0.119472	0.739627	0.049140	0.660502
41330	16.298656	-0.016707	-2.709187	-0.111828	0.740803	0.046481	0.660715
41331	15.891961	-0.182002	-2.342592	-0.102418	0.741500	0.042086	0.661753
41332	15.146870	-0.049157	-1.173491	-0.091638	0.741451	0.036202	0.663733
41333	14.620174	0.150409	-0.765327	-0.079977	0.739762	0.029580	0.667444
41334	13.569727	0.415625	-0.586833	-0.067269	0.736696	0.022281	0.672501
41335	12.182204	0.245191	-0.644302	-0.053582	0.732974	0.014182	0.677995
41336	11.315844	0.071604	-1.353151	-0.039686	0.729427	0.005299	0.682885
41337	10.457964	0.031321	-1.797852	-0.025948	0.726114	-0.004283	0.687071
41338	9.619896	0.488213	-1.764918	-0.012337	0.722786	-0.014622	0.690807
41339	8.553337	0.885421	-1.083606	0.001390	0.718890	-0.025942	0.694638
41340	6.685162	0.595260	-0.750874	0.014883	0.715738	-0.038544	0.697145
41341	6.049701	0.818380	-1.969239	0.028474	0.713289	-0.052161	0.698346
41342	5.922473	1.475180	-2.395176	0.042088	0.710716	-0.066578	0.699056
41343	5.826267	1.614127	-2.953906	0.054326	0.709188	-0.080973	0.698243
41344	6.036171	1.387953	-3.076483	0.064760	0.708802	-0.094730	0.696011
41345	6.967891	1.672992	-2.781352	0.073641	0.708555	-0.107371	0.693541
41346	7.639438	1.368984	-2.170216	0.084507	0.707057	-0.121029	0.691579
41347	7.773692	1.345084	-2.354866	0.097459	0.703685	-0.135295	0.690670
41348	7.209025	1.839577	-2.821740	0.110654	0.699418	-0.149689	0.690046
41349	6.876528	2.281177	-2.942944	0.121437	0.695464	-0.163036	0.689204
41350	6.701435	1.385196	-2.505958	0.128180	0.692343	-0.174122	0.688413
41351	7.268106	-0.105237	-2.062812	0.133304	0.689088	-0.183376	0.688302
41352	8.153770	-1.223192	-1.494837	0.137121	0.686363	-0.190689	0.688289
41353	8.918830	-1.558614	-1.381652	0.137696	0.684591	-0.194597	0.688845
41354	8.551120	-1.132460	-1.912608	0.135628	0.683221	-0.195568	0.690339
41355	8.456923	-0.741594	-1.723991	0.132157	0.682063	-0.194847	0.692358
41356	9.471612	-0.613173	-0.779194	0.128464	0.680150	-0.192670	0.695536
41357	10.177570	-0.839825	0.589815	0.125415	0.677134	-0.189666	0.699848
41358	10.221809	-1.877457	1.633123	0.121699	0.674035	-0.185507	0.704595
41359	9.534206	-2.678603	1.637852	0.115558	0.671565	-0.179203	0.709601
41360	9.272325	-3.254629	0.429927	0.108388	0.670044	-0.172396	0.713843
41361	9.018344	-3.234618	-0.208483	0.101621	0.669334	-0.165900	0.717037
41362	8.515868	-3.476573	0.897486	0.095462	0.668332	-0.160154	0.720118
41363	8.187713	-3.436437	1.742874	0.090010	0.666505	-0.155352	0.723557
41364	8.562068	-3.496991	1.303047	0.084750	0.664732	-0.151793	0.726572
41365	9.073297	-4.634839	0.454263	0.080233	0.663573	-0.147582	0.729009
41366	8.688845	-4.259243	0.326064	0.074855	0.663945	-0.141391	0.730467
41367	8.932542	-2.959616	0.979810	0.067144	0.666410	-0.133874	0.730388
41368	9.409529	-2.591353	1.678369	0.059621	0.668805	-0.126810	0.730112
41369	9.786592	-1.778263	2.469014	0.053000	0.670004	-0.120610	0.730574
41370	10.297764	-0.917842	2.714738	0.047968	0.670471	-0.115773	0.731276
41371	9.753147	-0.661160	2.185490	0.043762	0.671068	-0.112135	0.731558
41372	9.104349	-0.717372	2.049276	0.040860	0.671708	-0.109499	0.731538
41373	8.807328	-1.932894	2.608491	0.040451	0.671717	-0.107830	0.731801
41374	9.083627	-3.151371	2.478456	0.041250	0.670865	-0.106024	0.732801
41375	9.071964	-3.393407	2.686577	0.042394	0.669561	-0.104579	0.734135
41376	8.727824	-3.402564	1.978936	0.042827	0.669167	-0.103011	0.734691
41377	8.579393	-3.361257	1.411092	0.042422	0.669378	-0.102434	0.734603
41378	8.657550	-3.427017	1.187961	0.042047	0.668854	-0.103088	0.735009
41379	9.042142	-3.759411	0.693798	0.040777	0.666858	-0.103558	0.736827
41380	8.682716	-3.048485	0.898957	0.039816	0.663584	-0.104453	0.739703
41381	7.883496	-2.279563	1.298418	0.039772	0.660618	-0.105838	0.742159
41382	7.288471	-2.250476	0.786698	0.040106	0.658127	-0.107143	0.744165
41383	7.221139	-3.445068	0.649749	0.038875	0.655622	-0.107209	0.746428
41384	7.647123	-3.792831	0.428863	0.036868	0.652806	-0.106323	0.749120
41385	8.020178	-2.914251	0.848625	0.034995	0.649591	-0.104628	0.752237
41386	8.176020	-1.725806	0.698958	0.033005	0.646787	-0.102317	0.755055
41387	8.455266	-0.813706	1.157761	0.031471	0.643870	-0.099854	0.757938
41388	8.439205	-0.498223	1.880974	0.030109	0.640673	-0.097281	0.761031
41389	7.861890	-0.650137	2.118361	0.028361	0.637617	-0.094478	0.764012
41390	7.299822	-0.673342	2.335370	0.027220	0.634895	-0.092217	0.766592
41391	6.868096	-0.419069	2.761987	0.026720	0.632950	-0.090452	0.768426
41392	7.041182	-0.344819	2.579954	0.026814	0.631614	-0.088864	0.769707
41393	8.146501	-0.230551	1.971666	0.027273	0.631622	-0.087655	0.769822
41394	9.484570	-0.131289	1.381811	0.027261	0.632126	-0.086824	0.769503
41395	9.980547	0.025727	1.156258	0.026764	0.632639	-0.086081	0.769183
41396	10.194485	0.349109	0.942836	0.026469	0.633347	-0.085758	0.768646
41397	10.585927	0.386776	0.879154	0.026475	0.634339	-0.085456	0.767861
41398	11.616307	0.089435	1.260079	0.026482	0.635308	-0.085035	0.767106
41399	12.072952	-0.354584	1.567805	0.026289	0.635587	-0.084278	0.766965
41400	11.915736	-0.567486	2.058839	0.025929	0.635211	-0.083685	0.767354
41401	11.306616	-0.437526	2.296466	0.024720	0.634697	-0.083109	0.767881
41402	10.845887	-0.261977	2.899782	0.023188	0.634423	-0.082735	0.768195
41403	11.319477	0.090906	3.160495	0.022350	0.634745	-0.082525	0.767977
41404	13.024479	-0.058986	2.958074	0.022300	0.635153	-0.082627	0.767630
41405	15.148368	-0.687798	2.993102	0.022405	0.635017	-0.082867	0.767714
41406	15.821696	-1.208484	3.375000	0.022295	0.634349	-0.082990	0.768256
41407	15.177851	-1.076762	3.474440	0.022225	0.633594	-0.083093	0.768869
41408	14.620885	-1.087698	3.331957	0.022245	0.633186	-0.083242	0.769189
41409	15.229626	-1.456260	3.035625	0.022271	0.633303	-0.083338	0.769081
41410	16.533932	-1.463948	2.738611	0.022400	0.633527	-0.083539	0.768871
41411	17.338212	-1.239321	2.607018	0.022696	0.633395	-0.084045	0.768916
41412	17.545292	-1.256027	2.803927	0.023216	0.632586	-0.084678	0.769497
41413	16.690299	-1.593354	3.115075	0.024059	0.631342	-0.085487	0.770403
41414	15.315788	-2.073524	3.537214	0.025061	0.630059	-0.086420	0.771316
41415	14.086341	-2.169521	3.736420	0.025941	0.629384	-0.087303	0.771739
41416	14.025729	-1.978221	3.474421	0.026696	0.629208	-0.088118	0.771764
41417	15.119464	-1.642007	2.856419	0.027350	0.628592	-0.088482	0.772201
41418	15.868139	-1.145885	3.073554	0.027740	0.626866	-0.088084	0.773635
41419	15.313835	-0.874689	3.174612	0.028031	0.624350	-0.087090	0.775769
41420	14.204511	-1.029075	3.395164	0.028227	0.621447	-0.085932	0.778217
41421	12.954781	-1.268682	3.631691	0.028513	0.618766	-0.085227	0.780417
41422	12.141970	-1.572061	3.519881	0.029042	0.616710	-0.085348	0.782011
41423	11.954243	-1.635912	3.346905	0.029719	0.615297	-0.086101	0.783015
41424	11.878367	-1.572833	3.392260	0.030462	0.614144	-0.087145	0.783776
41425	11.300253	-1.340084	3.536317	0.031214	0.613123	-0.088294	0.784417
41426	10.286270	-0.922918	3.584136	0.032025	0.612028	-0.089497	0.785103
41427	9.208540	-0.509563	3.357875	0.032807	0.610584	-0.090590	0.786069
41428	8.245852	-0.246739	3.034332	0.033625	0.608879	-0.091756	0.787221
41429	6.921256	-0.036707	2.652634	0.034206	0.607157	-0.092595	0.788426
41430	5.854159	-0.038528	2.688256	0.034369	0.606134	-0.093595	0.789088
41431	4.789304	0.096901	2.337062	0.034569	0.605751	-0.094790	0.789231
41432	3.661411	-0.118408	1.723140	0.035208	0.605563	-0.096069	0.789193
41433	2.920445	-0.094397	0.543465	0.036319	0.605236	-0.096717	0.789313
41434	2.575766	0.458206	-0.203104	0.037549	0.604368	-0.096328	0.789969
41435	2.787285	0.718434	-0.282028	0.038409	0.602765	-0.094912	0.791322
41436	2.911751	0.826558	0.119424	0.038941	0.600478	-0.092981	0.793262
41437	3.027986	0.729391	0.502465	0.039451	0.597845	-0.091087	0.795442
41438	3.329894	0.692415	0.723011	0.039968	0.595206	-0.089251	0.797601
41439	3.662639	0.682677	0.877833	0.040356	0.592925	-0.087575	0.799463
41440	4.110828	0.496669	0.976733	0.040843	0.591074	-0.086038	0.800975
41441	4.765205	0.144921	0.933392	0.041367	0.589588	-0.084600	0.802195
41442	5.656457	-0.034623	1.045059	0.041849	0.588216	-0.083238	0.803319
41443	6.988037	-0.324288	1.633802	0.042252	0.586250	-0.081799	0.804881
41444	8.511799	-0.894084	3.038179	0.042710	0.583711	-0.080208	0.806861
41445	9.554537	-1.485892	3.923612	0.042820	0.581048	-0.078324	0.808959
41446	10.010486	-2.104109	4.796657	0.042246	0.578378	-0.076478	0.811077
41447	10.055466	-3.079061	4.618426	0.040634	0.575815	-0.074469	0.813167
41448	9.390803	-3.124960	4.095686	0.037799	0.573649	-0.072109	0.815045
41449	8.505737	-2.870449	4.262085	0.033738	0.572287	-0.069076	0.816442
41450	8.298608	-2.994096	4.427923	0.028787	0.572124	-0.064925	0.817086
41451	8.784031	-3.016305	4.453776	0.022214	0.572806	-0.059188	0.817249
41452	8.904476	-3.223627	4.111179	0.014018	0.573659	-0.051726	0.817339
41453	8.768467	-3.825691	3.541967	0.004074	0.574446	-0.042633	0.817421
41454	8.570130	-4.020417	3.222419	-0.007419	0.574816	-0.031972	0.817624
41455	8.169339	-3.578336	3.243480	-0.020038	0.575137	-0.020091	0.817565
41456	8.300030	-3.273642	3.329415	-0.033547	0.575683	-0.007077	0.816954
41457	8.784019	-3.017655	3.133695	-0.047811	0.575953	0.006763	0.816056
41458	9.230570	-3.139967	2.814590	-0.062379	0.575303	0.021531	0.815274
41459	8.976118	-3.598614	2.272337	-0.076835	0.573782	0.037648	0.814526
41460	8.757521	-3.223573	2.218714	-0.091045	0.571520	0.055282	0.813646
41461	8.946659	-2.763141	2.482412	-0.104984	0.568844	0.074238	0.812332
41462	8.645008	-2.648324	2.404412	-0.119372	0.565275	0.094996	0.810673
41463	8.147299	-2.483679	2.176973	-0.134422	0.561119	0.117781	0.808210
41464	7.582464	-2.468421	1.381739	-0.149502	0.556523	0.142076	0.804826
41465	7.629829	-2.400828	0.977524	-0.163661	0.550971	0.166709	0.801158
41466	8.093142	-2.191171	1.656082	-0.176627	0.544382	0.190825	0.797519
41467	8.793468	-1.503578	2.356701	-0.189024	0.537075	0.215869	0.793234
41468	9.083360	-0.373482	2.504576	-0.200395	0.529461	0.242182	0.787947
41469	8.141068	1.029281	1.723016	-0.211004	0.521674	0.270192	0.781236
41470	6.532525	1.970739	0.722722	-0.220710	0.514552	0.300149	0.772291
41471	6.912208	2.390615	0.194759	-0.229313	0.508992	0.331814	0.760422
41472	8.646619	2.076223	-0.059925	-0.235963	0.504647	0.362326	0.747243
41473	10.329311	1.139277	0.181086	-0.240982	0.501369	0.390084	0.733752
41474	12.272652	1.425187	0.163142	-0.244275	0.498192	0.415943	0.720504
41475	10.822243	3.473976	-0.851156	-0.247055	0.492771	0.441348	0.708062
41476	9.383321	5.124453	-2.007160	-0.249434	0.485695	0.468301	0.694678
41477	10.283865	6.555110	-2.392108	-0.249313	0.478095	0.494093	0.682012
41478	11.168880	6.335019	-1.414454	-0.248163	0.468731	0.517322	0.671628
41479	9.065878	5.535176	0.527645	-0.247674	0.456837	0.538427	0.663365
41480	5.889373	4.448924	0.520845	-0.248714	0.444909	0.558137	0.654737
41481	4.817105	3.618108	-0.746202	-0.249011	0.435310	0.575565	0.645928
41482	4.612099	4.701838	-1.326907	-0.247484	0.427638	0.590255	0.638339
41483	4.661056	5.334600	-1.677141	-0.244807	0.421243	0.604039	0.630683
41484	4.672084	4.570157	-1.706378	-0.242722	0.414219	0.618146	0.622418
41485	3.770164	3.634568	-1.200581	-0.241713	0.405258	0.632600	0.614132
41486	3.196810	2.631700	-1.745901	-0.244182	0.392747	0.649145	0.603933
41487	2.663506	3.071468	-2.204796	-0.245419	0.382562	0.664171	0.593542
41488	3.123561	3.250103	-4.039434	-0.246442	0.373812	0.679170	0.581600
41489	3.815416	3.966599	-5.882351	-0.248544	0.365094	0.696750	0.565218
41490	5.557099	4.893545	-4.663990	-0.251401	0.354962	0.713099	0.549809
41491	5.267452	4.896395	-3.976949	-0.256622	0.343848	0.724679	0.539216
41492	5.488891	3.824410	-2.869549	-0.261397	0.335815	0.733843	0.529503
41493	5.386258	4.221896	-4.113646	-0.269004	0.329040	0.742654	0.517527
41494	6.070144	4.622245	-4.283623	-0.272205	0.326408	0.754072	0.500738
41495	5.530724	7.315466	-6.157565	-0.274383	0.325156	0.766685	0.480813
41496	6.892382	8.200984	-6.341427	-0.277019	0.322580	0.778453	0.461751
41497	6.435074	8.971361	-6.140842	-0.282593	0.316362	0.788758	0.444878
41498	6.363876	8.174389	-5.608741	-0.289663	0.309050	0.797774	0.429115
41499	7.212545	7.370846	-6.026874	-0.296490	0.302736	0.805954	0.413380
41500	7.409617	7.918072	-8.218043	-0.300717	0.298144	0.814045	0.397505
41501	7.616622	10.679786	-9.837510	-0.299907	0.295333	0.820720	0.386332
41502	11.714444	9.832560	-9.982021	-0.294707	0.293280	0.825750	0.381144
41503	12.715225	7.613766	-7.836852	-0.290498	0.289324	0.829504	0.379244
41504	10.333836	7.045618	-7.234398	-0.287588	0.285075	0.832640	0.377804
41505	9.577922	7.712988	-8.013698	-0.285383	0.282508	0.835511	0.375057
41506	11.117496	9.752297	-8.545801	-0.283947	0.280737	0.839026	0.369590
41507	13.266064	12.463294	-7.645256	-0.283623	0.279339	0.840705	0.367074
41508	11.745940	10.432310	-7.587280	-0.283256	0.279448	0.840579	0.367563
41509	10.548527	7.109843	-8.771637	-0.282855	0.281240	0.838960	0.370193
41510	10.553821	7.195298	-8.910469	-0.282751	0.284375	0.836342	0.373784
41511	11.268738	9.401462	-8.460630	-0.283095	0.287746	0.832569	0.379327
41512	11.129733	10.818724	-8.722091	-0.283565	0.290939	0.827133	0.388325
41513	11.074269	11.413613	-8.604008	-0.284564	0.292985	0.820112	0.400748
41514	11.272234	11.805828	-7.837634	-0.286089	0.293966	0.811435	0.416307
41515	10.443784	11.298760	-7.264277	-0.288423	0.294795	0.800913	0.434104
41516	9.447417	10.635785	-7.806573	-0.292716	0.295450	0.789137	0.451983
41517	9.776307	11.129021	-9.267240	-0.298584	0.294962	0.775800	0.471147
41518	9.380373	10.956657	-8.577972	-0.304180	0.294822	0.759815	0.493189
41519	8.983906	10.514157	-6.757815	-0.308795	0.295673	0.741380	0.517280
41520	8.719208	9.419470	-5.955237	-0.312393	0.297541	0.721460	0.541642
41521	8.857902	8.181146	-5.877808	-0.313851	0.301434	0.699720	0.566592
41522	9.279379	6.428660	-5.504699	-0.314558	0.305879	0.676256	0.591751
41523	9.446346	5.867861	-5.402755	-0.314799	0.310252	0.651875	0.616201
41524	9.139718	6.056818	-4.750713	-0.314548	0.313443	0.625734	0.641304
41525	7.040747	5.730313	-2.267965	-0.314482	0.313980	0.597223	0.667714
41526	4.650408	4.907413	-1.168208	-0.313715	0.313706	0.566712	0.694269
41527	3.026039	3.298889	-1.650694	-0.310409	0.315111	0.534362	0.720284
41528	1.822101	1.964556	-1.672267	-0.305142	0.318214	0.499596	0.745675
41529	0.754698	1.660147	-1.454079	-0.298612	0.322986	0.464355	0.768691
41530	-0.201114	1.629517	-0.909520	-0.291068	0.328445	0.428171	0.789983
41531	-1.705733	1.706893	0.627073	-0.282297	0.335376	0.393601	0.808028
41532	-0.397499	0.108017	0.055347	-0.272860	0.343525	0.359561	0.823562
41533	0.764259	-1.457330	-0.140338	-0.264888	0.351716	0.329658	0.835138
41534	2.300670	-2.017340	1.214738	-0.256710	0.361202	0.303068	0.843672
41535	3.309221	-1.776393	2.868781	-0.248389	0.370358	0.278630	0.850590
41536	2.921493	-0.712647	4.395004	-0.239681	0.379388	0.255179	0.856447
41537	3.505373	0.323617	3.868242	-0.231597	0.388960	0.233750	0.860485
41538	4.879762	0.831528	3.267826	-0.224143	0.398563	0.214608	0.863047
41539	6.659249	1.367564	4.163975	-0.215953	0.408646	0.196563	0.864717
41540	7.065256	1.331648	5.277730	-0.206813	0.418779	0.179216	0.865872
41541	6.488365	0.603340	5.409607	-0.196173	0.428849	0.161575	0.866890
41542	6.849536	0.198227	4.741537	-0.185456	0.438183	0.145463	0.867434
41543	7.567709	0.151655	5.031223	-0.175071	0.446832	0.130258	0.867597
41544	7.905185	0.403037	6.194227	-0.165416	0.455216	0.115562	0.867214
41545	7.427548	0.154936	6.688267	-0.156101	0.463698	0.101057	0.866259
41546	7.351583	-0.084084	5.951888	-0.147016	0.472214	0.087150	0.864757
41547	7.785756	0.153178	6.146943	-0.137511	0.480589	0.073742	0.862953
41548	8.407129	0.627552	5.782038	-0.127716	0.488446	0.061557	0.860999
41549	9.816484	1.260653	6.462813	-0.117666	0.494975	0.050959	0.859393
41550	11.123606	2.087361	7.840347	-0.107134	0.500431	0.041791	0.858105
41551	10.864480	2.278729	8.100327	-0.096886	0.505771	0.033981	0.856536
41552	9.514718	1.834174	6.597545	-0.087634	0.510811	0.027761	0.854764
41553	7.839426	1.215726	5.184876	-0.079189	0.515292	0.021705	0.853072
41554	6.532492	0.896913	3.797976	-0.071295	0.519597	0.015174	0.851297
41555	6.421419	0.700202	2.423003	-0.064051	0.523583	0.008328	0.849523
41556	7.674897	0.120161	2.528204	-0.057002	0.527771	0.000175	0.847472
41557	8.337269	-0.608612	2.852341	-0.051077	0.531916	-0.008802	0.845210
41558	9.444843	-0.962042	3.193403	-0.046422	0.535989	-0.018123	0.842753
41559	11.738908	-1.247930	3.455842	-0.041953	0.539435	-0.027388	0.840535
41560	13.554888	-1.585167	3.332282	-0.035862	0.541482	-0.036810	0.839140
41561	13.324527	-2.060922	2.941076	-0.028231	0.542206	-0.045090	0.838560
41562	11.813883	-1.580752	1.659865	-0.018963	0.540913	-0.052106	0.839249
41563	11.353708	-1.345337	2.144377	-0.008235	0.539120	-0.058659	0.840143
41564	11.466824	-1.674960	2.514214	0.003355	0.537906	-0.065276	0.840467
41565	10.865211	-2.958754	3.347002	0.014691	0.536857	-0.071823	0.840482
41566	10.205069	-3.535867	3.215029	0.024252	0.535387	-0.077948	0.840653
41567	9.835970	-3.553702	2.831061	0.032040	0.533045	-0.083917	0.841305
41568	9.117791	-3.508964	2.624446	0.038870	0.529515	-0.089696	0.842649
41569	8.172086	-3.205407	2.763698	0.045208	0.525537	-0.095275	0.844210
41570	7.833009	-2.910783	2.948127	0.051458	0.521653	-0.100546	0.845648
41571	8.028529	-2.557666	2.858971	0.058568	0.517881	-0.105864	0.846854
41572	7.865403	-2.253898	3.400854	0.067396	0.514552	-0.112077	0.847427
41573	7.286853	-1.996651	3.837541	0.077824	0.512102	-0.118868	0.847092
41574	8.412628	-2.086615	3.480806	0.089636	0.510516	-0.126299	0.845806
41575	9.950920	-2.115422	2.824788	0.102476	0.509494	-0.134308	0.843728
41576	10.218785	-2.475433	2.975559	0.116329	0.508019	-0.142833	0.841417
41577	9.539821	-2.752809	3.056693	0.130551	0.506124	-0.150790	0.839082
41578	9.023447	-2.737820	3.477846	0.144611	0.504603	-0.158520	0.836263
41579	9.403777	-2.491851	2.280893	0.158209	0.503044	-0.165939	0.833295
41580	9.941597	-2.317636	1.587461	0.172167	0.501049	-0.173680	0.830147
41581	9.675203	-2.036744	2.194245	0.187277	0.498478	-0.182659	0.826488
41582	9.023331	-1.244129	3.118769	0.202853	0.496322	-0.192608	0.821837
41583	8.694310	-0.596722	2.730750	0.218699	0.494153	-0.202701	0.816637
41584	8.922229	-0.459579	2.075169	0.235680	0.491381	-0.213563	0.810796
41585	8.826423	-0.567097	2.235022	0.253795	0.487912	-0.225056	0.804288
41586	9.019312	-0.848206	2.259577	0.272610	0.484082	-0.237166	0.796932
41587	9.298988	-1.314161	1.774665	0.291206	0.479906	-0.249176	0.789177
41588	9.303388	-1.917728	1.319556	0.309294	0.475217	-0.260493	0.781441
41589	9.495569	-2.124657	1.464826	0.326280	0.470427	-0.270719	0.773919
41590	9.734507	-2.060835	1.803509	0.342142	0.465451	-0.279758	0.766831
41591	9.888798	-2.106730	1.808362	0.357066	0.460006	-0.287752	0.760327
41592	9.642013	-2.274157	1.792102	0.371006	0.454307	-0.294855	0.754335
41593	9.019920	-2.048215	2.234088	0.383800	0.448607	-0.301252	0.748797
41594	8.763992	-1.765087	2.101764	0.395230	0.443318	-0.307278	0.743534
41595	8.983424	-1.726632	2.315890	0.405853	0.438145	-0.313034	0.738459
41596	9.022150	-1.578257	2.688668	0.415418	0.433447	-0.318201	0.733689
41597	9.023365	-1.420518	2.895225	0.423943	0.429403	-0.322946	0.729103
41598	8.871316	-1.477417	3.033326	0.431878	0.425759	-0.327497	0.724539
41599	8.677054	-1.301010	3.015808	0.439339	0.422533	-0.332082	0.719839
41600	8.765232	-1.179907	2.678738	0.446201	0.419748	-0.336790	0.715044
41601	8.879262	-1.002070	2.890742	0.452416	0.417397	-0.341353	0.710336
41602	9.003375	-0.942447	3.250161	0.458229	0.415439	-0.346491	0.705252
41603	9.057609	-1.185861	3.683849	0.463732	0.413933	-0.352162	0.699710
41604	8.995424	-1.341565	3.886252	0.468534	0.413197	-0.357645	0.694143
41605	9.016651	-1.273734	3.713939	0.472955	0.412848	-0.362549	0.688787
41606	9.067979	-1.075885	3.806557	0.477139	0.412688	-0.366822	0.683717
41607	9.293426	-0.849619	4.005344	0.480870	0.412946	-0.370887	0.678736
41608	9.590996	-0.571570	4.433153	0.484138	0.413503	-0.374640	0.673996
41609	10.098901	-0.505913	4.880790	0.486859	0.414534	-0.378300	0.669342
41610	10.688572	-0.614824	4.958179	0.489532	0.415491	-0.382325	0.664495
41611	10.976692	-0.720025	4.869049	0.492581	0.415827	-0.386234	0.659754
41612	10.676720	-0.237953	4.727052	0.496117	0.415395	-0.390166	0.655046
41613	10.499795	0.075889	4.700523	0.500032	0.414466	-0.394556	0.650009
41614	10.407569	0.044509	4.080188	0.504614	0.412735	-0.399085	0.644783
41615	10.507619	0.149324	4.223478	0.509923	0.410141	-0.403658	0.639392
41616	10.272186	0.148266	4.298138	0.515904	0.406609	-0.408338	0.633855
41617	9.885282	0.078492	4.142657	0.522435	0.402315	-0.413228	0.628050
41618	9.737350	-0.027332	3.827595	0.529239	0.397537	-0.418174	0.622094
41619	9.682339	-0.207072	3.573754	0.536232	0.392444	-0.422880	0.616130
41620	9.708905	-0.326920	3.423308	0.543375	0.387142	-0.427028	0.610337
41621	9.585121	-0.440220	3.370644	0.550620	0.381598	-0.430373	0.604963
41622	9.158685	-0.485419	3.372730	0.557743	0.375892	-0.433150	0.600008
41623	8.703149	-0.475626	3.261557	0.564501	0.370171	-0.435528	0.595506
41624	8.483010	-0.424131	3.492333	0.570920	0.364389	-0.437725	0.591327
41625	8.536861	-0.366678	3.450252	0.576962	0.358604	-0.439791	0.587454
41626	8.655586	-0.315969	3.354740	0.582721	0.352860	-0.441552	0.583916
41627	8.981517	-0.199700	3.575289	0.588238	0.347143	-0.443112	0.580619
41628	9.204274	-0.081731	3.685318	0.593541	0.341482	-0.444390	0.577595
41629	8.990074	-0.161619	3.620106	0.598712	0.335888	-0.445380	0.574769
41630	8.598692	-0.248471	3.689977	0.603753	0.330415	-0.446049	0.572144
41631	8.385279	-0.134846	3.861404	0.608541	0.325191	-0.446444	0.569752
41632	8.448937	-0.066752	3.954910	0.613243	0.320102	-0.446440	0.567590
41633	8.515463	-0.117508	3.802860	0.617876	0.315202	-0.446191	0.565500
41634	8.476299	-0.093166	3.853230	0.622498	0.310410	-0.445825	0.563367
41635	7.995280	0.135318	4.301988	0.627101	0.305628	-0.445569	0.561073
41636	7.604628	0.297764	4.540012	0.631402	0.301102	-0.445967	0.558375
41637	7.766765	0.326189	4.562455	0.635417	0.296841	-0.446989	0.555276
41638	7.900615	0.287144	4.615529	0.639203	0.292870	-0.448440	0.551859
41639	8.072278	0.193324	4.495447	0.642829	0.289376	-0.449810	0.548364
41640	8.572093	0.126797	4.660005	0.646632	0.285807	-0.451465	0.544389
41641	8.932505	0.051515	4.762063	0.651061	0.281966	-0.452849	0.539947
41642	8.597567	0.232231	4.776153	0.655824	0.278185	-0.453960	0.535190
41643	8.161279	0.522729	4.953153	0.660478	0.274876	-0.455514	0.529829
41644	8.192187	0.586071	5.036148	0.664880	0.272056	-0.457618	0.523934
41645	8.337938	0.404170	5.044265	0.669000	0.269741	-0.459822	0.517921
41646	8.381785	0.291280	5.019517	0.672615	0.267975	-0.462016	0.512171
41647	8.646863	0.273361	4.888292	0.675785	0.266566	-0.464154	0.506773
41648	8.734479	0.429630	4.420906	0.678725	0.265331	-0.466107	0.501674
41649	8.833895	0.554431	4.081495	0.681343	0.264460	-0.467952	0.496844
41650	8.675723	0.808313	3.960536	0.683643	0.263825	-0.469917	0.492146
41651	8.488489	0.698521	3.818312	0.685847	0.263339	-0.471780	0.487535
41652	8.622912	0.489863	4.062651	0.688158	0.262997	-0.473347	0.482922
41653	8.923702	0.585196	4.429946	0.690590	0.262696	-0.474778	0.478186
41654	9.071556	0.263729	4.552546	0.693136	0.262365	-0.475981	0.473464
41655	9.645351	-0.430362	5.010410	0.695352	0.262030	-0.477179	0.469175
41656	10.885554	-1.729389	4.802003	0.696846	0.261549	-0.478991	0.465365
41657	9.907656	-2.739837	4.329006	0.698405	0.260299	-0.480360	0.462308
41658	8.562977	-2.549061	3.831012	0.700094	0.258468	-0.480747	0.460375
41659	8.797027	-2.370867	3.881576	0.701707	0.255938	-0.481377	0.458671
41660	8.568938	-2.316365	3.941890	0.703570	0.253087	-0.482085	0.456651
41661	8.592999	-2.041091	3.905072	0.705710	0.250396	-0.482708	0.454168
41662	9.503555	-2.054093	4.020732	0.708087	0.248020	-0.483209	0.451230
41663	10.246025	-2.186756	3.849751	0.711035	0.245858	-0.483248	0.447721
41664	10.246581	-2.084223	4.419969	0.714329	0.243843	-0.482794	0.444055
41665	9.945986	-1.732002	4.512617	0.717690	0.242002	-0.481917	0.440581
41666	9.733321	-1.448841	4.350365	0.720779	0.240416	-0.481351	0.437012
41667	9.735193	-1.242753	4.544495	0.723792	0.239080	-0.481005	0.433127
41668	9.741567	-1.216208	4.297117	0.726929	0.237791	-0.480580	0.429037
41669	9.454614	-1.294749	4.323924	0.730251	0.236442	-0.480066	0.424695
41670	8.926765	-1.371396	4.217557	0.733819	0.234794	-0.479219	0.420392
41671	8.448037	-1.617487	4.065927	0.737360	0.232354	-0.478504	0.416348
41672	7.771052	-1.515767	3.961056	0.740533	0.229267	-0.478195	0.412768
41673	7.280661	-1.650036	3.695953	0.743248	0.225773	-0.478370	0.409599
41674	7.112893	-1.818381	3.851821	0.745418	0.221794	-0.479631	0.406341
41675	7.488426	-1.684213	3.901593	0.747376	0.217243	-0.481348	0.403160
41676	7.877073	-1.366590	4.042985	0.749323	0.211943	-0.483436	0.399855
41677	8.194248	-1.405961	4.019270	0.751413	0.205948	-0.485763	0.396230
41678	8.342350	-1.699111	3.878681	0.753630	0.199560	-0.488290	0.392160
41679	8.675262	-1.769466	4.243305	0.756112	0.192812	-0.490873	0.387506
41680	9.244816	-1.741153	4.510265	0.758948	0.185934	-0.493149	0.382402
41681	9.361843	-1.720160	4.726215	0.762239	0.179080	-0.494722	0.377058
41682	9.199294	-1.944934	5.099649	0.765678	0.172692	-0.495779	0.371643
41683	9.031661	-2.002020	5.330805	0.769329	0.166719	-0.496110	0.366350
41684	8.361829	-1.927721	5.235045	0.772981	0.161170	-0.496141	0.361065
41685	7.749192	-1.813825	5.068018	0.776251	0.156341	-0.496384	0.355800
41686	7.645414	-1.781491	4.974496	0.779045	0.152272	-0.497035	0.350511
41687	7.750209	-1.701880	4.995531	0.781406	0.148831	-0.498071	0.345224
41688	7.765167	-1.746850	4.925297	0.783359	0.145907	-0.499445	0.340021
41689	7.680202	-1.742612	4.975661	0.785017	0.143272	-0.501037	0.334939
41690	7.620243	-1.681559	4.935430	0.786417	0.140630	-0.502925	0.329905
41691	7.701998	-1.683370	4.810369	0.787618	0.137859	-0.505115	0.324826
41692	7.890271	-1.689115	4.590982	0.788669	0.135118	-0.507454	0.319742
41693	8.030490	-1.694843	4.589066	0.789687	0.132355	-0.509815	0.314587
41694	8.230737	-1.708304	4.741767	0.790694	0.129643	-0.512070	0.309484
41695	8.248073	-1.810295	4.871744	0.791656	0.126994	-0.514209	0.304536
41696	8.198209	-1.885860	4.941955	0.792565	0.124468	-0.516148	0.299901
41697	8.146181	-1.926092	4.894250	0.793376	0.122097	-0.517876	0.295722
41698	8.063076	-1.890716	4.877362	0.794062	0.119831	-0.519506	0.291923
41699	8.061914	-1.791859	4.952497	0.794599	0.117659	-0.521158	0.288382
41700	7.986691	-1.768041	4.772682	0.794809	0.115881	-0.522975	0.285216
41701	7.924077	-1.627312	4.802391	0.794863	0.114135	-0.525007	0.282017
41702	8.183387	-1.719345	4.806507	0.794841	0.112243	-0.527159	0.278806
41703	8.526399	-1.628723	4.971562	0.794902	0.110364	-0.529071	0.275742
41704	8.591787	-1.437496	4.927973	0.795063	0.108429	-0.530879	0.272553
41705	8.611752	-1.448079	4.794377	0.795344	0.106494	-0.532563	0.269191
41706	8.878600	-1.551701	4.827921	0.795945	0.104555	-0.533849	0.265602
41707	9.548748	-1.715615	5.076145	0.796937	0.102537	-0.534572	0.261935
41708	10.096731	-1.709289	5.331562	0.798450	0.100408	-0.534461	0.258356
41709	10.344431	-1.612659	5.400973	0.800408	0.098186	-0.533641	0.254822
41710	10.277710	-1.610940	5.312719	0.802632	0.096091	-0.532316	0.251372
41711	10.334286	-1.584422	5.280945	0.804804	0.094293	-0.530980	0.247912
41712	10.656908	-1.660010	5.363197	0.806814	0.092741	-0.529833	0.244392
41713	11.058747	-1.690841	5.297207	0.808602	0.091643	-0.528814	0.241082
41714	11.112723	-1.784182	5.134819	0.810300	0.090781	-0.527770	0.237974
41715	10.514552	-1.580026	4.479357	0.811903	0.090253	-0.526564	0.235367
41716	9.696314	-1.312685	3.953380	0.813427	0.090203	-0.525141	0.233296
41717	9.059847	-1.042858	3.682966	0.814733	0.090483	-0.523847	0.231532
41718	8.466284	-0.901185	3.422634	0.815852	0.090874	-0.522705	0.230014
41719	7.986388	-0.882349	3.148377	0.816819	0.091243	-0.521712	0.228690
41720	7.829722	-0.787205	2.922400	0.817533	0.091347	-0.521129	0.227423
41721	7.859231	-0.691863	2.830629	0.818007	0.091104	-0.520977	0.226158
41722	8.019305	-0.562920	2.849881	0.818268	0.090415	-0.521224	0.224916
41723	8.153590	-0.517344	2.730850	0.818295	0.089395	-0.521846	0.223784
41724	8.299780	-0.510687	2.695950	0.818118	0.088196	-0.522750	0.222796
41725	8.591135	-0.379731	2.721845	0.817785	0.086914	-0.523819	0.222009
41726	8.992357	-0.165473	2.861330	0.817323	0.085630	-0.525001	0.221416
41727	9.315103	-0.045562	2.870374	0.816866	0.084470	-0.526124	0.220878
41728	9.602860	0.027369	3.103980	0.816621	0.083382	-0.526971	0.220179
41729	9.753068	-0.011640	3.424202	0.816584	0.082446	-0.527513	0.219371
41730	9.735394	-0.166856	3.514657	0.816610	0.081695	-0.527900	0.218623
41731	9.686469	-0.261364	3.532641	0.816660	0.081337	-0.528057	0.218191
41732	9.718947	-0.472951	3.697235	0.816614	0.080835	-0.528334	0.217879
41733	9.377272	-0.591588	3.969200	0.816695	0.080491	-0.528150	0.218147
41734	8.962646	-0.588960	3.856800	0.816548	0.080574	-0.527966	0.219107
41735	8.849504	-0.564032	3.558909	0.816186	0.081021	-0.527895	0.220458
41736	8.696210	-0.474375	3.418006	0.815718	0.081612	-0.527851	0.222075
41737	8.907236	-0.467452	3.423972	0.815084	0.082486	-0.527842	0.224090
41738	9.027271	-0.460134	3.537707	0.814575	0.083271	-0.527594	0.226224
41739	9.081414	-0.414216	3.644129	0.814237	0.083933	-0.527074	0.228400
41740	9.183853	-0.397697	3.669703	0.814045	0.084522	-0.526252	0.230749
41741	9.184562	-0.476990	3.601869	0.814028	0.085066	-0.525077	0.233273
41742	9.229343	-0.491878	3.655037	0.814255	0.085540	-0.523510	0.235816
41743	9.307467	-0.539705	3.682534	0.814640	0.086119	-0.521622	0.238444
