// Start Time: Unknown
// Update Rate: 60.0Hz
// Filter Profile: human (46.1)
// Option Flags: AHS Disabled ICC Disabled 
// Firmware Version: 4.3.5
PacketCounter	Acc_X	Acc_Y	Acc_Z	Quat_q0	Quat_q1	Quat_q2	Quat_q3
40913	0.933640	-0.687664	8.648737	0.734921	-0.033225	-0.030166	-0.676666
40914	1.043451	-0.288689	8.665784	0.735383	-0.032672	-0.031917	-0.676110
40915	1.039406	-0.205389	8.862324	0.735976	-0.032154	-0.032444	-0.675465
40916	0.950270	-0.233893	9.235080	0.736700	-0.031916	-0.031457	-0.674733
40917	0.627629	-0.635344	9.499514	0.737333	-0.031830	-0.029808	-0.674120
40918	0.482854	-0.919552	9.612065	0.737734	-0.031626	-0.028736	-0.673738
40919	0.557115	-1.291192	9.630834	0.737899	-0.030684	-0.029172	-0.673582
40920	0.681388	-0.715352	9.709884	0.737702	-0.029028	-0.030722	-0.673802
40921	0.759174	-0.060546	9.793621	0.737220	-0.027738	-0.031780	-0.674335
40922	0.774054	0.232025	9.723582	0.736938	-0.027452	-0.031498	-0.674668
40923	0.684665	-0.262527	9.731948	0.736992	-0.027820	-0.030424	-0.674643
40924	0.675132	-0.559056	9.791868	0.737144	-0.028038	-0.029486	-0.674509
40925	0.691010	-0.608009	9.910975	0.737045	-0.028015	-0.028816	-0.674648
40926	0.669925	-0.563381	9.969026	0.736717	-0.027802	-0.028575	-0.675025
40927	0.706249	-0.554233	9.975769	0.736306	-0.027353	-0.028851	-0.675480
40928	0.738569	-0.317891	9.916213	0.735815	-0.026832	-0.029356	-0.676014
40929	0.703720	-0.195830	9.878733	0.735164	-0.026359	-0.029780	-0.676722
40930	0.757010	-0.015475	9.846630	0.734510	-0.026003	-0.030109	-0.677430
40931	0.699176	-0.019589	9.744163	0.733956	-0.025793	-0.030319	-0.678029
40932	0.786018	0.085734	9.732842	0.733471	-0.025587	-0.030481	-0.678555
40933	0.819099	0.033826	9.732627	0.733033	-0.025364	-0.030360	-0.679042
40934	0.803824	0.105401	9.814202	0.732648	-0.025137	-0.030007	-0.679482
40935	0.767238	0.050987	9.898514	0.732289	-0.025015	-0.029745	-0.679884
40936	0.725613	0.025631	9.887947	0.731878	-0.024784	-0.029940	-0.680327
40937	0.824040	0.094531	9.832396	0.731481	-0.024305	-0.030612	-0.680740
40938	0.874962	0.203257	9.801128	0.731183	-0.023655	-0.031415	-0.681047
40939	0.889438	0.292333	9.804183	0.731001	-0.023090	-0.031978	-0.681236
40940	0.899561	0.238395	9.835779	0.730875	-0.022832	-0.032068	-0.681375
40941	0.832685	0.122346	9.779365	0.730743	-0.022796	-0.031998	-0.681521
40942	0.846974	0.000010	9.756990	0.730599	-0.022740	-0.032107	-0.681672
40943	0.817758	-0.055311	9.648488	0.730419	-0.022460	-0.032550	-0.681854
40944	0.908815	0.153860	9.625089	0.730182	-0.022067	-0.033082	-0.682095
40945	0.908759	0.332913	9.645958	0.729939	-0.021800	-0.033146	-0.682360
40946	0.843893	0.251834	9.672003	0.729876	-0.021765	-0.032670	-0.682451
40947	0.744576	-0.131447	9.696821	0.729917	-0.021671	-0.032377	-0.682424
40948	0.726830	-0.144126	9.734835	0.729814	-0.021296	-0.032776	-0.682528
40949	0.827806	0.091855	9.766776	0.729545	-0.020963	-0.033422	-0.682794
40950	0.847043	0.254778	9.699564	0.729308	-0.020864	-0.033781	-0.683032
40951	0.856590	0.306000	9.679094	0.729188	-0.020914	-0.033715	-0.683163
40952	0.757243	0.025520	9.673944	0.729239	-0.020863	-0.033587	-0.683116
40953	0.779904	0.051680	9.700605	0.729269	-0.020723	-0.033688	-0.683082
40954	0.841063	-0.091506	9.747766	0.729161	-0.020686	-0.033968	-0.683186
40955	0.948894	-0.031008	9.710614	0.728878	-0.020582	-0.034280	-0.683475
40956	0.859786	0.073641	9.680475	0.728411	-0.020329	-0.034506	-0.683969
40957	0.753276	0.211032	9.648841	0.727907	-0.020010	-0.034550	-0.684513
40958	0.714898	0.233708	9.585952	0.727444	-0.019605	-0.034736	-0.685007
40959	0.841342	0.156758	9.555506	0.726986	-0.018911	-0.035177	-0.685490
40960	0.873477	0.203241	9.633172	0.726582	-0.017835	-0.035704	-0.685920
40961	0.838153	0.437320	9.724775	0.726129	-0.017042	-0.035961	-0.686405
40962	0.756090	0.471194	9.780694	0.725601	-0.016725	-0.035882	-0.686976
40963	0.771088	0.560378	9.646445	0.725067	-0.016522	-0.035739	-0.687552
40964	0.750521	0.649657	9.537888	0.724685	-0.016143	-0.035721	-0.687965
40965	0.773012	0.706330	9.520337	0.724552	-0.015747	-0.035778	-0.688110
40966	0.707142	0.658260	9.483415	0.724593	-0.015440	-0.035915	-0.688067
40967	0.722987	0.642677	9.382964	0.724680	-0.014974	-0.036236	-0.687969
40968	0.738643	0.811918	9.278675	0.724815	-0.014400	-0.036523	-0.687824
40969	0.711575	0.908026	9.216834	0.725172	-0.013690	-0.036648	-0.687456
40970	0.687361	0.612429	9.079176	0.725875	-0.012731	-0.036901	-0.686718
40971	0.584517	0.594831	8.911057	0.726831	-0.011382	-0.037699	-0.685686
40972	0.596276	0.740314	8.723476	0.727786	-0.009962	-0.038701	-0.684639
40973	0.546437	1.004724	8.380473	0.728845	-0.008371	-0.039631	-0.683480
40974	0.172228	1.557371	7.956246	0.730105	-0.006481	-0.040570	-0.682099
40975	-0.188923	1.903992	7.683015	0.731828	-0.004407	-0.041910	-0.680185
40976	-0.600587	1.892173	7.563534	0.734760	-0.001788	-0.044329	-0.676875
40977	-0.670264	1.700609	7.415654	0.739185	0.001677	-0.048390	-0.671759
40978	-0.768820	2.080468	6.793751	0.744331	0.006654	-0.053126	-0.665661
40979	-0.997502	2.412286	6.160327	0.749620	0.012972	-0.057908	-0.659203
40980	-0.287985	2.709875	6.312954	0.755484	0.020918	-0.060978	-0.651988
40981	-1.235412	2.198307	6.088493	0.762119	0.030683	-0.061918	-0.643739
40982	-2.127038	1.966646	5.430518	0.768944	0.042319	-0.062563	-0.634839
40983	-2.473988	2.789338	5.429826	0.775790	0.054683	-0.064077	-0.625343
40984	-1.450830	3.883395	6.132919	0.783467	0.065166	-0.064412	-0.614642
40985	-1.026258	4.644312	6.640570	0.792210	0.072470	-0.061151	-0.602836
40986	-1.544587	3.948555	6.533530	0.801520	0.077267	-0.054125	-0.590480
40987	-2.014945	2.437558	6.474343	0.810266	0.082965	-0.046036	-0.578331
40988	-3.248350	2.144990	6.233493	0.817609	0.092179	-0.039391	-0.566980
40989	-2.911102	2.830552	6.702087	0.824032	0.105041	-0.035217	-0.555605
40990	-2.680459	4.640751	6.762432	0.830096	0.119470	-0.030906	-0.543795
40991	-3.197702	5.168043	6.395203	0.835822	0.134301	-0.025918	-0.531689
40992	-3.413317	5.286292	6.442521	0.840917	0.150281	-0.019961	-0.519496
40993	-2.237960	5.870415	8.313292	0.846137	0.168121	-0.010345	-0.505648
40994	-2.426889	6.829092	9.652035	0.852768	0.185362	0.004683	-0.488267
40995	-3.808102	6.640971	9.601021	0.860481	0.200442	0.022236	-0.467869
40996	-4.933399	5.078395	8.711703	0.867863	0.215295	0.036685	-0.446224
40997	-5.612719	3.845286	7.566845	0.872576	0.233996	0.044454	-0.426474
40998	-6.343710	3.805285	6.683641	0.872956	0.259187	0.045249	-0.410758
40999	-4.421758	5.769867	7.941910	0.869450	0.290268	0.044701	-0.397245
41000	-4.237574	9.008516	8.641459	0.864928	0.320890	0.048862	-0.382807
41001	-5.399977	9.969070	8.117597	0.861639	0.346214	0.056225	-0.366816
41002	-5.937206	9.409203	7.169690	0.859942	0.366976	0.062894	-0.349102
41003	-5.954435	8.985093	6.394004	0.857766	0.387439	0.067572	-0.331002
41004	-6.053946	10.801577	7.120032	0.854146	0.408890	0.072423	-0.313047
41005	-5.549850	13.301217	9.204954	0.850851	0.428493	0.082362	-0.292682
41006	-6.234507	13.922992	10.300128	0.850499	0.442827	0.097885	-0.266409
41007	-7.152938	12.748331	10.366120	0.853316	0.451848	0.113983	-0.233865
41008	-6.849287	11.467564	10.428076	0.857040	0.457877	0.128035	-0.198587
41009	-5.885488	10.967475	11.440939	0.860222	0.462482	0.140687	-0.162281
41010	-5.965229	11.001074	12.602697	0.862716	0.465832	0.152574	-0.124270
41011	-6.506798	11.072891	13.020152	0.864701	0.467886	0.161671	-0.085074
41012	-6.964145	9.411661	12.392284	0.865574	0.470249	0.165726	-0.046728
41013	-7.053523	8.832563	11.806556	0.864553	0.474989	0.163665	-0.012079
41014	-5.984949	9.708764	11.962841	0.862331	0.480983	0.157144	0.018576
41015	-4.925670	10.240979	11.632873	0.860128	0.485804	0.148304	0.046692
41016	-4.382935	9.803609	10.823486	0.858463	0.488403	0.138155	0.073596
41017	-4.241466	9.063004	9.928826	0.856751	0.489897	0.127001	0.099241
41018	-3.960387	8.563266	9.493952	0.854622	0.491095	0.114603	0.123745
41019	-3.805137	8.017010	8.820826	0.852251	0.491806	0.099839	0.147738
41020	-3.232532	6.853286	7.835929	0.849872	0.491837	0.083030	0.170058
41021	-1.790502	6.324916	7.330648	0.847575	0.491169	0.066158	0.189715
41022	-0.261836	5.658559	7.052179	0.845435	0.489421	0.050649	0.207706
41023	0.480264	5.726404	6.674418	0.843727	0.486562	0.036753	0.223679
41024	0.166724	6.723227	6.581826	0.843134	0.482305	0.023236	0.236574
41025	0.046703	6.708695	6.203531	0.843601	0.476980	0.007323	0.246522
41026	0.755790	5.842276	5.386829	0.843666	0.472892	-0.011512	0.253907
41027	1.830885	5.929323	4.961162	0.842367	0.471783	-0.031261	0.258574
41028	2.484823	6.242308	4.661662	0.840095	0.472623	-0.050476	0.261380
41029	2.569484	5.989513	4.089958	0.837274	0.473971	-0.068856	0.263784
41030	2.528939	5.330010	3.339997	0.834291	0.475037	-0.086151	0.266227
41031	2.604213	4.284630	2.337381	0.831159	0.476220	-0.102193	0.268228
41032	3.016736	3.783249	1.463613	0.827657	0.478062	-0.117616	0.269457
41033	4.097772	4.098062	1.213075	0.824102	0.480132	-0.132096	0.269962
41034	5.162606	4.315213	1.113580	0.821370	0.481613	-0.144238	0.269436
41035	5.325799	4.696712	1.096601	0.819545	0.482572	-0.153413	0.268206
41036	5.237478	6.030256	1.419662	0.818763	0.482874	-0.159558	0.266460
41037	4.511814	7.691676	2.130775	0.819701	0.481369	-0.163963	0.263611
41038	3.928815	8.860142	3.109993	0.821747	0.477822	-0.168878	0.260572
41039	3.582723	10.102262	4.460375	0.824185	0.472161	-0.175972	0.258489
41040	4.212688	9.139981	5.351814	0.826585	0.465620	-0.183805	0.257238
41041	4.471384	7.224666	5.287390	0.827383	0.462270	-0.189959	0.256243
41042	4.408848	6.822854	4.847451	0.825569	0.464831	-0.193990	0.254431
41043	5.410595	8.021952	4.815026	0.821757	0.471395	-0.197068	0.252324
41044	5.687137	10.412981	5.502607	0.818415	0.476300	-0.200592	0.251193
41045	5.371503	11.026140	6.179158	0.817486	0.475019	-0.206430	0.251912
41046	4.839551	9.232103	6.794347	0.819134	0.467846	-0.213478	0.254099
41047	4.428595	6.359553	6.791007	0.821257	0.459279	-0.219860	0.257414
41048	4.123661	4.638180	6.533164	0.821802	0.453721	-0.224634	0.261379
41049	3.854329	5.625998	6.691174	0.820753	0.451789	-0.228224	0.264887
41050	3.532112	7.189935	6.951936	0.819608	0.450299	-0.232714	0.267053
41051	3.364903	7.537790	6.711237	0.819010	0.446847	-0.239925	0.268304
41052	3.583325	6.409440	6.118735	0.818397	0.442123	-0.248995	0.269729
41053	4.018579	4.871964	5.263561	0.816959	0.438125	-0.257711	0.272415
41054	3.979813	4.646851	4.562637	0.814659	0.435698	-0.264579	0.276579
41055	3.366564	4.589852	4.104669	0.812379	0.433906	-0.270083	0.280751
41056	2.759928	4.496228	3.636533	0.810849	0.431817	-0.275095	0.283514
41057	2.586214	4.245388	3.199338	0.810424	0.429025	-0.279712	0.284449
41058	2.525292	4.036759	3.107940	0.811349	0.425288	-0.283389	0.283783
41059	2.394774	3.346315	3.171674	0.813439	0.420531	-0.285654	0.282618
41060	2.310474	2.843633	3.055599	0.816194	0.415700	-0.286267	0.281198
41061	2.474382	2.909656	2.655956	0.818914	0.412488	-0.285240	0.279055
41062	3.157107	3.431979	2.316343	0.820982	0.411734	-0.283557	0.275790
41063	3.690148	4.699830	2.328458	0.822525	0.412638	-0.282197	0.271195
41064	3.976982	5.874552	2.609926	0.824560	0.413435	-0.281232	0.264729
41065	5.050568	5.799334	2.449159	0.827593	0.413100	-0.280652	0.256267
41066	6.738720	4.961690	1.762942	0.831007	0.412516	-0.279748	0.246978
41067	8.078254	4.539924	1.499221	0.834068	0.413275	-0.277412	0.237860
41068	8.414904	5.266256	1.944798	0.836962	0.415171	-0.273648	0.228570
41069	8.786028	5.919499	2.365017	0.839855	0.416659	-0.270392	0.218921
41070	9.772358	6.253159	2.783368	0.842530	0.416597	-0.269464	0.209714
41071	10.785755	5.366404	2.807754	0.844662	0.415741	-0.270855	0.200858
41072	12.459551	4.361510	2.708204	0.845499	0.416627	-0.272708	0.192829
41073	13.954683	4.469649	3.114917	0.845262	0.419430	-0.273305	0.186856
41074	14.708493	5.983152	4.003061	0.845223	0.420834	-0.273640	0.183352
41075	15.529003	5.381662	4.468834	0.845936	0.418539	-0.274954	0.183348
41076	16.427742	3.106383	4.646125	0.845954	0.415529	-0.276097	0.188331
41077	17.416455	1.880028	5.161190	0.843646	0.415739	-0.275140	0.199299
41078	18.481726	2.723225	5.501878	0.839427	0.418534	-0.270967	0.216259
41079	19.337942	4.784514	5.884773	0.835497	0.418851	-0.264372	0.237942
41080	19.825175	6.266044	6.577940	0.835245	0.410755	-0.256039	0.260942
41081	20.770079	5.129732	6.324955	0.839607	0.391860	-0.247053	0.283673
41082	21.429872	2.369723	5.302005	0.845902	0.365048	-0.238084	0.307418
41083	21.602383	-0.254301	4.429274	0.851691	0.334328	-0.228562	0.332575
41084	21.462590	-1.973627	3.701045	0.857154	0.300389	-0.218424	0.356854
41085	21.434605	-3.491917	2.467197	0.862895	0.263652	-0.207523	0.377935
41086	20.227734	-4.631804	1.282001	0.869405	0.225674	-0.195098	0.393881
41087	17.976769	-6.150235	0.561891	0.877207	0.189566	-0.179431	0.402960
41088	14.096792	-7.317421	-0.266818	0.886567	0.157947	-0.160547	0.404074
41089	8.460556	-8.182528	-1.841338	0.897049	0.134190	-0.141267	0.396661
41090	0.967990	-7.323598	-3.033673	0.908574	0.117745	-0.125938	0.380485
41091	-8.458115	-2.905198	-2.808419	0.921155	0.097851	-0.120235	0.356991
41092	-20.192963	0.288229	-1.776380	0.933674	0.061110	-0.124965	0.330003
41093	-30.799686	-3.284547	0.098738	0.943847	0.013776	-0.132155	0.302487
41094	-39.400837	-4.404494	6.068579	0.953729	-0.024102	-0.127646	0.271157
41095	-41.929916	5.958726	19.400915	0.966246	-0.054033	-0.101429	0.230566
41096	-35.716245	18.467847	28.402300	0.976190	-0.097014	-0.058383	0.185024
41097	-33.661964	18.373415	24.318351	0.977915	-0.144267	-0.025988	0.148977
41098	-29.042234	8.387406	16.748250	0.977285	-0.158802	-0.022774	0.138483
41099	-28.612969	0.280485	11.282105	0.977431	-0.126429	-0.045480	0.163023
41100	-31.277204	-1.221427	12.617736	0.975351	-0.061843	-0.074014	0.198464
41101	-29.727944	4.864222	17.823359	0.967712	-0.001835	-0.098289	0.232097
41102	-23.226988	2.474445	15.906208	0.957464	0.036738	-0.111361	0.263650
41103	-21.386585	-3.392482	14.040239	0.946595	0.071264	-0.111509	0.294015
41104	-17.497824	-5.393557	12.281155	0.932362	0.120745	-0.104248	0.324430
41105	-9.797612	-2.615799	9.618113	0.913618	0.184300	-0.091575	0.350641
41106	-2.270531	2.027680	9.536963	0.892493	0.249292	-0.072794	0.368798
41107	1.177786	4.474965	9.642020	0.871438	0.304625	-0.052437	0.380854
41108	2.937048	1.843913	7.356093	0.849802	0.353431	-0.042034	0.388789
41109	8.313428	-1.763447	1.680418	0.825499	0.406859	-0.046655	0.388382
41110	13.536973	-1.999953	-3.770779	0.796067	0.470176	-0.063866	0.375678
41111	17.816312	-0.125101	-5.703613	0.762309	0.536965	-0.089271	0.350120
41112	23.295252	6.736324	-2.550874	0.731594	0.590630	-0.116277	0.320011
41113	24.238779	12.161689	1.601526	0.717492	0.616114	-0.140799	0.292888
41114	22.865329	9.388717	2.347034	0.721662	0.615136	-0.164263	0.271715
41115	20.519660	3.442045	0.481920	0.732694	0.600872	-0.189251	0.257479
41116	16.729405	-0.052070	-1.566921	0.740225	0.587145	-0.216538	0.245844
41117	14.950978	-1.377672	-1.521455	0.740377	0.580534	-0.243853	0.235280
41118	15.106214	0.354701	0.107614	0.736142	0.578778	-0.266190	0.228592
41119	14.366603	2.236157	1.024473	0.733341	0.575523	-0.281159	0.227890
41120	11.912064	2.172776	0.553824	0.734184	0.568520	-0.290477	0.231045
41121	10.556947	0.988364	-0.256765	0.737109	0.560465	-0.296516	0.233724
41122	9.832436	1.140073	-1.206830	0.739169	0.555401	-0.301588	0.232815
41123	10.490482	2.982673	-2.364823	0.739380	0.554763	-0.306779	0.226808
41124	11.736980	6.548282	-2.442284	0.739610	0.555993	-0.311015	0.217071
41125	13.213691	9.495395	-1.725699	0.743377	0.553935	-0.312530	0.207054
41126	15.016138	10.637948	-1.070857	0.752368	0.545219	-0.310710	0.200345
41127	15.262018	9.212746	-0.857644	0.765305	0.529926	-0.306278	0.199201
41128	13.411425	6.930245	-0.694575	0.778682	0.510985	-0.302316	0.202862
41129	11.921000	4.439585	-0.560177	0.790001	0.491217	-0.301399	0.209196
41130	11.930882	2.120855	-0.173373	0.797772	0.473771	-0.302932	0.217559
41131	12.893087	1.329593	0.402286	0.802110	0.460848	-0.303776	0.227943
41132	12.813187	1.840322	1.346691	0.803823	0.452386	-0.301498	0.241484
41133	10.878191	3.375691	2.144708	0.803791	0.447232	-0.296235	0.257194
41134	8.419484	5.847118	2.874872	0.801959	0.443884	-0.291931	0.273140
41135	7.109034	8.116633	3.738182	0.798132	0.439513	-0.293260	0.289503
41136	6.650145	8.568774	3.660491	0.791228	0.432974	-0.302127	0.308564
41137	7.755027	7.079083	2.830290	0.779497	0.426069	-0.316730	0.332464
41138	8.575887	6.365108	2.597017	0.764616	0.420066	-0.330951	0.359693
41139	8.555179	5.951676	3.101087	0.750612	0.414467	-0.340031	0.386234
41140	7.679945	5.170185	3.881146	0.739898	0.407721	-0.343634	0.410159
41141	6.403793	3.867145	4.461964	0.731330	0.399794	-0.345095	0.431544
41142	5.624117	2.863118	4.836173	0.722399	0.393530	-0.348667	0.449116
41143	5.938347	2.481526	5.451924	0.713034	0.391695	-0.354542	0.460932
41144	6.247521	2.569732	6.200360	0.704312	0.394011	-0.361551	0.466883
41145	6.836576	2.808672	6.406088	0.696492	0.398025	-0.368689	0.469620
41146	6.905953	3.125513	6.243631	0.689427	0.401091	-0.375758	0.471828
41147	7.465826	3.218421	6.538993	0.682568	0.401185	-0.383669	0.475342
41148	7.467828	3.064448	6.637243	0.676271	0.397553	-0.392827	0.479892
41149	6.416771	2.091100	6.380397	0.670898	0.392048	-0.403026	0.483492
41150	5.603430	0.419031	5.650573	0.666217	0.386960	-0.414038	0.484758
41151	5.244825	-0.495652	4.665885	0.662197	0.383366	-0.424780	0.483827
41152	4.896596	-1.280532	3.966818	0.659699	0.379914	-0.434510	0.481314
41153	3.970543	-1.009083	3.393878	0.658803	0.373844	-0.443719	0.478886
41154	2.936790	-0.963230	2.368900	0.659871	0.364521	-0.452731	0.476161
41155	2.030829	-1.374840	1.867649	0.662902	0.353711	-0.460042	0.473086
41156	0.976897	-1.487257	1.718196	0.667289	0.343812	-0.463847	0.470494
41157	-1.146379	-0.681409	1.146877	0.671645	0.336864	-0.465117	0.468062
41158	-3.645601	-0.421128	0.124049	0.673255	0.334390	-0.466438	0.466204
41159	-4.399031	-0.005375	-0.474621	0.671050	0.335807	-0.468765	0.466031
41160	-3.656010	1.440617	-0.736868	0.666859	0.338064	-0.471602	0.467550
41161	-3.421543	1.769504	-1.295034	0.662731	0.339225	-0.475414	0.468717
41162	-3.506062	0.819102	-1.728765	0.658874	0.340499	-0.480040	0.468516
41163	-2.932569	-0.122167	-2.062215	0.654075	0.344623	-0.485440	0.466657
41164	-0.783829	-0.829867	-2.053575	0.647784	0.353612	-0.490427	0.463482
41165	2.462687	0.073013	-1.644485	0.641641	0.366177	-0.493137	0.459377
41166	5.333761	1.482903	-1.108586	0.638351	0.378110	-0.492921	0.454500
41167	6.613806	2.569312	-0.291951	0.637818	0.386569	-0.490378	0.450868
41168	7.158341	2.690512	1.168324	0.637224	0.390587	-0.487346	0.451532
41169	7.552852	1.474234	2.349867	0.634721	0.392114	-0.484968	0.456270
41170	9.322599	-0.196068	2.664484	0.630501	0.395704	-0.482832	0.461258
41171	12.408720	-0.843598	3.043752	0.626220	0.403630	-0.479192	0.464012
41172	15.025661	0.745072	4.311335	0.624219	0.412861	-0.473652	0.464274
41173	16.304489	2.802682	5.308607	0.626031	0.419300	-0.465842	0.463967
41174	16.619404	3.273894	4.920439	0.629128	0.422074	-0.457305	0.465752
41175	17.538943	3.848296	5.450548	0.629079	0.422538	-0.450766	0.471731
41176	17.957943	5.131739	6.687747	0.627019	0.421259	-0.448408	0.477827
41177	19.781917	5.015775	7.813446	0.626616	0.417635	-0.449216	0.480768
41178	20.773482	3.370313	7.462387	0.628368	0.413839	-0.449403	0.481589
41179	21.820809	2.576911	6.837012	0.629050	0.411722	-0.446807	0.484916
41180	23.695455	4.758630	6.543343	0.629769	0.407263	-0.442986	0.491214
41181	23.874735	5.236862	5.482092	0.633320	0.398491	-0.441111	0.495511
41182	24.601953	4.167703	4.984765	0.640181	0.389433	-0.439229	0.495568
41183	24.496029	3.024516	5.291100	0.649110	0.383825	-0.434140	0.492806
41184	22.916845	1.604445	7.262863	0.657032	0.384471	-0.426147	0.488763
41185	23.547254	2.481053	9.852325	0.660656	0.392041	-0.417303	0.485486
41186	24.037072	6.419040	11.885019	0.664029	0.396174	-0.412614	0.481520
41187	22.275971	6.166778	12.287047	0.671090	0.391530	-0.413334	0.474866
41188	18.823600	2.999572	10.723483	0.679711	0.381665	-0.417417	0.466999
41189	15.511091	0.778002	8.623262	0.687707	0.373280	-0.421704	0.458134
41190	13.318249	0.822247	6.080116	0.696048	0.368416	-0.424461	0.446787
41191	12.419211	1.635958	2.969828	0.706453	0.367353	-0.424081	0.431429
41192	11.119121	2.062402	0.516643	0.718792	0.372158	-0.417907	0.412541
41193	10.568634	3.489796	1.341123	0.731504	0.381523	-0.404778	0.394330
41194	9.015513	5.192588	2.581888	0.744312	0.389340	-0.387632	0.379677
41195	6.724767	5.835821	3.042273	0.756652	0.393150	-0.370722	0.368072
41196	5.158105	5.636476	2.452494	0.768644	0.393992	-0.355924	0.356756
41197	5.377554	4.225411	2.002289	0.779917	0.394834	-0.342194	0.344583
41198	7.309043	4.444208	2.907368	0.791614	0.396481	-0.326032	0.331440
41199	8.615026	3.631820	3.942298	0.804760	0.398228	-0.305578	0.316856
41200	7.577942	2.296311	4.232598	0.817903	0.401699	-0.281281	0.300921
41201	4.976949	1.419745	3.935775	0.827968	0.409337	-0.257141	0.284237
41202	2.608826	3.005429	3.599554	0.833068	0.421220	-0.238626	0.267635
41203	1.914833	4.425987	2.614643	0.834293	0.435035	-0.228330	0.250132
41204	2.630593	5.966989	1.931215	0.833675	0.449502	-0.222386	0.231253
41205	4.323826	4.612086	1.598256	0.832284	0.464630	-0.214925	0.212672
41206	5.717020	4.318735	2.795723	0.830162	0.480563	-0.201536	0.198175
41207	5.818044	5.704246	4.284921	0.829668	0.493144	-0.181758	0.188211
41208	4.681043	5.875638	5.075433	0.831900	0.499553	-0.159465	0.181549
41209	2.884485	5.114953	5.296528	0.835527	0.500355	-0.141282	0.177706
41210	1.863629	4.066127	4.174242	0.836752	0.501260	-0.130838	0.177386
41211	1.602128	4.381130	3.384935	0.833681	0.506764	-0.127042	0.178960
41212	2.506637	6.169968	3.846640	0.829045	0.513852	-0.127298	0.180101
41213	3.137118	7.406698	4.521246	0.826825	0.516913	-0.128506	0.180689
41214	3.098117	7.221534	4.351484	0.828061	0.513971	-0.130937	0.181672
41215	2.643553	5.897010	3.666247	0.831745	0.506679	-0.133445	0.183492
41216	1.915077	4.331979	2.987990	0.835260	0.499245	-0.135106	0.186659
41217	0.674813	3.659277	2.520448	0.835887	0.495332	-0.137488	0.192447
41218	0.677359	4.633663	2.763846	0.833191	0.495127	-0.141429	0.201593
41219	0.796496	6.705594	3.704427	0.829423	0.494879	-0.146208	0.213952
41220	0.722376	7.230598	4.389438	0.827051	0.491409	-0.150020	0.228030
41221	-0.710858	6.182034	4.311773	0.825772	0.486391	-0.151668	0.241910
41222	-2.246739	5.232655	3.492080	0.824578	0.482649	-0.153588	0.252056
41223	-2.506640	4.716051	2.210873	0.822083	0.483009	-0.159184	0.256012
41224	-0.347194	5.617859	1.510375	0.818232	0.487586	-0.169199	0.253237
41225	3.258924	5.708575	1.514744	0.813556	0.493490	-0.181480	0.248313
41226	5.547537	6.126960	1.407856	0.809245	0.498404	-0.192674	0.244117
41227	6.583420	6.873654	1.405545	0.807477	0.500113	-0.200826	0.239869
41228	7.528105	6.874666	1.114462	0.809866	0.496361	-0.206908	0.234376
41229	7.788204	6.414007	0.371969	0.816105	0.486771	-0.212633	0.227629
41230	9.100854	3.964485	-0.799210	0.824559	0.472717	-0.220725	0.218911
41231	11.583100	0.876598	-2.205213	0.832102	0.458346	-0.231843	0.209224
41232	15.216066	-1.227242	-3.633084	0.836417	0.448423	-0.243172	0.200474
41233	18.406661	-0.904528	-4.250660	0.837205	0.444201	-0.252236	0.195322
41234	21.061674	0.724629	-3.425749	0.836411	0.441338	-0.259214	0.196072
41235	22.169868	2.229789	-1.430386	0.836446	0.434180	-0.265204	0.203748
41236	23.069139	1.833188	0.276564	0.838734	0.420133	-0.270145	0.216876
41237	23.165451	0.925445	2.082827	0.843282	0.399851	-0.273930	0.232286
41238	23.778404	-1.880101	3.581715	0.849087	0.374593	-0.276280	0.249801
41239	23.174924	-5.466836	4.470738	0.854523	0.347127	-0.275460	0.270952
41240	23.032375	-7.384958	4.158698	0.857742	0.321938	-0.269577	0.296585
41241	22.242083	-6.389195	3.155283	0.858766	0.300651	-0.259086	0.324042
41242	20.915470	-4.867981	2.497873	0.858761	0.281019	-0.244848	0.351579
41243	19.901140	-3.601823	2.173431	0.859175	0.259771	-0.225823	0.378604
41244	19.094325	-3.123581	1.507386	0.862003	0.234394	-0.202446	0.401280
41245	15.749996	-4.367247	-0.291314	0.868026	0.206268	-0.177365	0.415363
41246	9.704064	-7.552046	-3.020497	0.876238	0.181201	-0.157235	0.417911
41247	3.119486	-7.825048	-4.831123	0.885485	0.161815	-0.146953	0.410045
41248	-3.461516	-3.287386	-5.020627	0.896458	0.136283	-0.146962	0.395212
41249	-15.741908	4.554137	-3.113444	0.911960	0.087449	-0.154190	0.370008
41250	-28.899964	3.779861	2.722341	0.929960	0.019159	-0.154591	0.333030
41251	-42.516683	-0.329963	13.422125	0.941901	-0.028993	-0.142401	0.302826
41252	-43.431924	12.498703	25.278638	0.951196	-0.040866	-0.122014	0.280481
41253	-32.689044	27.857802	36.742130	0.959479	-0.050602	-0.100714	0.258256
41254	-27.547315	24.226209	32.101019	0.962698	-0.070778	-0.088772	0.245608
41255	-27.437532	12.814057	22.560713	0.960997	-0.075471	-0.091628	0.249787
41256	-24.407349	6.304244	17.312171	0.956918	-0.053468	-0.099550	0.267466
41257	-23.199765	7.860326	16.289330	0.951141	-0.021497	-0.105332	0.289437
41258	-20.500249	7.177878	15.978721	0.943120	0.003694	-0.107672	0.314513
41259	-17.700140	3.947963	15.437540	0.933048	0.022648	-0.104554	0.343478
41260	-14.618450	1.443706	15.347758	0.921890	0.045600	-0.095096	0.372823
41261	-10.534378	-0.416114	14.955559	0.910157	0.077641	-0.078882	0.399203
41262	-6.653456	0.881049	14.487805	0.897707	0.114324	-0.058443	0.421470
41263	-3.879066	2.016781	15.028311	0.885439	0.147994	-0.038112	0.438911
41264	-4.573065	1.489914	14.429698	0.876119	0.175671	-0.023793	0.448319
41265	-3.572711	-3.329572	12.285354	0.870033	0.205357	-0.019154	0.447777
41266	-1.119785	-4.762969	9.205303	0.865589	0.245606	-0.022339	0.435816
41267	0.446923	0.444880	6.507173	0.862397	0.294235	-0.034517	0.410495
41268	2.598079	5.922930	3.477444	0.860585	0.342118	-0.058002	0.372808
41269	5.208454	12.233247	0.736858	0.860918	0.379895	-0.091332	0.325820
41270	10.957889	14.913313	3.930310	0.863901	0.399894	-0.125966	0.279092
41271	12.948847	15.070484	7.579535	0.871112	0.399075	-0.154725	0.240754
41272	12.489430	12.998087	7.780909	0.880531	0.385533	-0.180731	0.208246
41273	10.882619	12.674283	5.825271	0.889163	0.368496	-0.210305	0.171383
41274	8.229141	15.395443	2.185033	0.894956	0.348613	-0.249095	0.124398
41275	6.599157	12.953059	-1.940915	0.895154	0.325143	-0.296263	0.072177
41276	6.797115	8.345938	-5.390317	0.888968	0.301242	-0.343937	0.026374
41277	6.662561	4.923545	-6.554640	0.879962	0.278916	-0.384488	-0.006456
41278	6.175772	3.027801	-6.607431	0.872649	0.256026	-0.414738	-0.030445
41279	5.601191	3.017244	-5.706751	0.870294	0.229181	-0.432556	-0.054404
41280	4.767723	2.201334	-5.110208	0.871568	0.195659	-0.441331	-0.085521
41281	4.193210	-0.771119	-4.437002	0.872265	0.157615	-0.446968	-0.120546
41282	4.855597	-2.484545	-3.563529	0.869686	0.122389	-0.452774	-0.153827
41283	6.648924	-1.368336	-2.577835	0.863354	0.096413	-0.460230	-0.183064
41284	8.747717	3.183025	-1.687775	0.854651	0.080573	-0.468756	-0.208202
41285	11.145891	8.051207	-0.889687	0.845232	0.069441	-0.476547	-0.231653
41286	13.522889	10.885848	-0.655747	0.835646	0.057524	-0.482865	-0.255399
41287	15.437805	10.852925	-0.978627	0.825982	0.043536	-0.488476	-0.277939
41288	17.166563	9.334511	-0.901312	0.816626	0.030407	-0.494039	-0.296856
41289	18.021129	6.519625	-0.196553	0.809621	0.023110	-0.498641	-0.308768
41290	17.127241	5.678352	0.501567	0.805985	0.024030	-0.501921	-0.312866
41291	15.251616	5.810192	1.266547	0.804795	0.029444	-0.504310	-0.311623
41292	14.386235	5.483138	2.178666	0.805261	0.033937	-0.505689	-0.307703
41293	13.900962	4.639715	3.316679	0.807588	0.036378	-0.504987	-0.302434
41294	12.790217	4.597153	4.273864	0.811603	0.037604	-0.501519	-0.297262
41295	10.937792	4.640631	4.613421	0.816621	0.037928	-0.496445	-0.291948
41296	9.090997	4.679527	4.683098	0.821434	0.037660	-0.492023	-0.285905
41297	7.595678	4.776789	4.494567	0.825208	0.036687	-0.489743	-0.278993
41298	6.497043	4.164415	3.713195	0.827402	0.034818	-0.490385	-0.271506
41299	6.452539	3.103778	2.391111	0.828069	0.032889	-0.493766	-0.263467
41300	6.794557	2.443255	0.954179	0.827747	0.032693	-0.498689	-0.255099
41301	6.928081	2.009010	-0.463496	0.827079	0.035563	-0.503734	-0.246833
41302	6.912538	1.792274	-1.785167	0.826333	0.042161	-0.508650	-0.238058
41303	6.923487	1.806707	-2.852033	0.825550	0.052024	-0.513362	-0.228516
41304	8.165122	1.593762	-3.999520	0.824662	0.064445	-0.517933	-0.218005
41305	9.550256	1.977417	-5.271259	0.824610	0.080292	-0.520585	-0.206309
41306	9.884518	2.364073	-6.321922	0.826075	0.101141	-0.519620	-0.193301
41307	6.848381	2.565304	-5.744651	0.828504	0.128811	-0.515780	-0.175955
41308	7.308655	5.919762	-5.570251	0.830968	0.161080	-0.510612	-0.151065
41309	9.359208	9.042526	-5.104224	0.834049	0.192769	-0.501027	-0.127176
41310	6.562561	3.359582	-5.721096	0.841276	0.223160	-0.480225	-0.108802
41311	6.201901	3.103467	-5.118976	0.850509	0.252787	-0.452780	-0.087884
41312	3.920495	4.329749	-4.642666	0.859040	0.281007	-0.423204	-0.063112
41313	3.846235	5.753207	-4.351867	0.865408	0.307242	-0.394170	-0.036063
41314	5.372326	6.970580	-4.265080	0.869284	0.333575	-0.364671	-0.009333
41315	6.219706	9.226416	-3.725133	0.870849	0.362851	-0.331252	0.015280
41316	6.142957	12.101991	-1.831580	0.870835	0.392488	-0.293321	0.039523
41317	4.173258	14.575653	-0.128554	0.869617	0.416883	-0.255630	0.068028
41318	2.789558	16.196154	1.434147	0.866891	0.433178	-0.224244	0.102819
41319	4.352310	16.258598	3.952413	0.862868	0.442286	-0.198575	0.142862
41320	4.493644	15.939724	6.511152	0.858341	0.445536	-0.174424	0.185271
41321	1.692977	16.417372	8.687574	0.853167	0.444926	-0.153278	0.225062
41322	-2.860492	17.731284	10.367902	0.847743	0.441984	-0.139288	0.258034
41323	-6.240926	17.191693	11.011853	0.841972	0.439399	-0.136157	0.281909
41324	-5.622369	16.650285	11.439055	0.834764	0.440579	-0.140938	0.298656
41325	-4.821334	17.119777	11.875355	0.826852	0.444080	-0.148018	0.311768
41326	-4.598014	15.714094	12.154158	0.819182	0.446834	-0.154265	0.324780
41327	-4.060083	14.211632	12.248610	0.812818	0.447553	-0.158353	0.337562
41328	-2.644869	11.399950	11.817550	0.808717	0.446617	-0.159670	0.347872
41329	-0.793402	9.910163	11.417064	0.806404	0.446166	-0.158060	0.354495
41330	0.824258	9.320828	11.029185	0.805825	0.446117	-0.154896	0.357257
41331	2.927349	9.476126	11.627276	0.806971	0.444917	-0.150619	0.357994
41332	3.810462	9.226885	11.811221	0.810520	0.440449	-0.145368	0.357673
41333	3.472346	8.496550	10.748147	0.815933	0.433565	-0.140985	0.355526
41334	3.426048	6.922749	8.857536	0.822410	0.426646	-0.138674	0.349835
41335	4.241224	5.633263	7.338620	0.828741	0.422286	-0.137259	0.340622
41336	4.935875	4.822244	6.806488	0.834467	0.420648	-0.134229	0.329700
41337	4.634633	5.304790	6.616046	0.839304	0.421183	-0.129248	0.318541
41338	3.944740	6.448961	6.222152	0.843409	0.422984	-0.123750	0.307297
41339	2.899349	8.023407	5.566989	0.847476	0.424028	-0.121610	0.295291
41340	2.378812	7.598052	4.598567	0.851868	0.423084	-0.124963	0.282320
41341	2.534872	6.316070	3.393887	0.855838	0.421699	-0.132548	0.268596
41342	3.785795	4.987150	3.042181	0.858574	0.421734	-0.141622	0.254823
41343	5.073820	5.142110	3.872078	0.860755	0.421432	-0.148614	0.243743
41344	5.835205	5.627460	4.443221	0.863814	0.417589	-0.152997	0.236723
41345	5.893067	5.369618	4.563887	0.867992	0.409806	-0.154893	0.233790
41346	5.053208	3.938590	4.565483	0.872344	0.400790	-0.155024	0.233134
41347	4.168455	3.077615	5.095258	0.875649	0.393573	-0.154360	0.233480
41348	4.291275	5.374093	6.085487	0.878694	0.387442	-0.151785	0.233981
41349	4.861315	6.693234	6.629872	0.882176	0.380739	-0.145578	0.235817
41350	5.108652	7.706603	6.491215	0.884827	0.374274	-0.134985	0.242445
41351	4.180995	7.873149	6.533003	0.884597	0.370489	-0.121266	0.255969
41352	2.842100	8.009723	7.238916	0.879801	0.371231	-0.107712	0.276652
41353	1.961342	7.669038	7.802307	0.870018	0.376936	-0.096719	0.302710
41354	1.708617	6.001471	8.153994	0.855626	0.388550	-0.088488	0.330307
41355	3.840731	6.100233	7.587556	0.838693	0.402009	-0.080306	0.358517
41356	2.302641	5.597803	8.193510	0.820841	0.413274	-0.070144	0.387949
41357	1.515038	7.422594	9.410481	0.802723	0.422724	-0.062064	0.416038
41358	1.386483	7.657476	10.456774	0.786102	0.428904	-0.060368	0.440955
41359	0.960803	6.792400	10.747177	0.771394	0.433282	-0.062300	0.461884
41360	0.736403	6.221829	9.718411	0.758380	0.437648	-0.066309	0.478464
41361	1.229586	5.229756	8.476137	0.746076	0.443683	-0.072229	0.491222
41362	1.456102	5.088240	7.914574	0.733563	0.453249	-0.080819	0.499918
41363	1.457965	6.249749	7.765021	0.720583	0.465688	-0.097165	0.504435
41364	2.068698	5.209000	6.452557	0.707734	0.479709	-0.121203	0.504283
41365	3.003000	3.914200	4.758216	0.695171	0.493970	-0.148463	0.500690
41366	4.046182	3.998810	3.385447	0.684123	0.506757	-0.175344	0.494396
41367	4.726057	4.448477	1.818362	0.676420	0.515687	-0.201883	0.485557
41368	4.702662	3.186466	0.851945	0.671916	0.521155	-0.230518	0.473062
41369	5.112459	1.838161	0.939089	0.667224	0.527274	-0.259366	0.457738
41370	5.418680	2.019683	1.564417	0.660553	0.535408	-0.287026	0.441162
41371	4.546064	4.023140	0.510024	0.652548	0.544184	-0.314176	0.423484
41372	3.619183	5.894677	1.255181	0.644292	0.551502	-0.344640	0.402439
41373	4.111029	7.049119	0.175664	0.636316	0.555700	-0.378772	0.377929
41374	5.488341	6.251725	-0.690649	0.627553	0.558479	-0.412160	0.352707
41375	5.399179	4.861218	-1.682222	0.616614	0.561219	-0.442861	0.329688
41376	4.043922	4.868300	-2.393103	0.603175	0.563910	-0.473222	0.306998
41377	2.994493	4.810068	-3.394694	0.588562	0.563957	-0.507421	0.279411
41378	3.820565	2.898103	-5.031974	0.571312	0.562278	-0.544412	0.247107
41379	7.867601	1.980975	-6.910474	0.553567	0.560239	-0.576813	0.216756
41380	9.552751	3.315703	-7.402251	0.540519	0.558493	-0.598670	0.193698
41381	5.850666	4.309885	-7.504188	0.533271	0.555741	-0.613386	0.174732
41382	2.809420	4.315720	-6.970652	0.527204	0.552076	-0.627019	0.155288
41383	2.016561	3.456510	-5.977434	0.518880	0.546032	-0.643782	0.134748
41384	1.134796	2.590922	-5.322128	0.504988	0.538432	-0.665121	0.112662
41385	2.008176	0.788633	-7.027059	0.483778	0.534161	-0.687392	0.090124
41386	3.235680	1.847208	-8.544431	0.459371	0.535442	-0.705107	0.071446
41387	0.972816	3.140390	-8.606166	0.433590	0.538318	-0.720574	0.054648
41388	0.056867	3.515466	-8.999998	0.406408	0.539315	-0.736639	0.036542
41389	0.050822	1.935418	-9.295138	0.377446	0.538066	-0.753448	0.018290
41390	-0.149556	0.807063	-10.960002	0.346321	0.535997	-0.769915	0.000796
41391	1.947461	0.291223	-11.775540	0.318002	0.534587	-0.782873	-0.014169
41392	0.891814	0.111103	-11.703502	0.295167	0.533215	-0.792371	-0.026559
41393	1.385706	0.596585	-11.824672	0.279220	0.531130	-0.799017	-0.038852
41394	1.918720	0.232425	-12.005114	0.270143	0.529226	-0.802759	-0.050208
41395	1.823670	1.238381	-12.076367	0.264721	0.529303	-0.803859	-0.059768
41396	3.005642	2.308433	-12.239046	0.260398	0.531611	-0.803098	-0.067946
41397	5.631054	4.327766	-12.053821	0.257787	0.535012	-0.801208	-0.073306
41398	6.525680	5.909367	-11.702476	0.257476	0.538240	-0.798873	-0.076199
41399	6.976482	6.462285	-11.518947	0.256837	0.541036	-0.797030	-0.077837
41400	7.890221	6.791392	-11.375681	0.253729	0.544859	-0.795564	-0.076347
41401	7.443017	7.358536	-10.958288	0.249929	0.548076	-0.794871	-0.072989
41402	6.490004	6.395957	-10.745482	0.247614	0.547945	-0.796013	-0.069335
41403	5.177041	4.484439	-10.925758	0.247678	0.544441	-0.798705	-0.065647
41404	3.787063	2.769736	-11.281379	0.248501	0.540613	-0.801287	-0.062640
41405	3.526239	2.350848	-11.407571	0.248035	0.539752	-0.802143	-0.060928
41406	4.206774	3.321365	-11.339049	0.245656	0.542370	-0.801097	-0.061084
41407	5.347741	4.697617	-11.734160	0.242856	0.546314	-0.799143	-0.062704
41408	6.108996	5.767009	-12.575395	0.241284	0.549598	-0.797190	-0.064898
41409	5.637246	5.959982	-13.628267	0.240921	0.551548	-0.795799	-0.066747
41410	4.694726	6.228095	-14.870176	0.240029	0.552661	-0.795085	-0.069218
41411	5.094435	6.109559	-16.285538	0.237768	0.554189	-0.794382	-0.072789
41412	6.723579	6.625331	-16.968742	0.234765	0.557238	-0.792941	-0.074940
41413	7.238772	8.091333	-16.665545	0.233607	0.560318	-0.791137	-0.074654
41414	6.609480	8.649210	-16.031627	0.234836	0.562061	-0.789692	-0.072978
41415	5.573564	8.421691	-15.370884	0.236689	0.562316	-0.789213	-0.070155
41416	4.341703	8.237943	-14.675883	0.238408	0.560721	-0.790080	-0.067293
41417	4.895628	6.827167	-14.224363	0.241156	0.557764	-0.791599	-0.064149
41418	4.719512	5.606796	-13.245323	0.245849	0.554465	-0.792833	-0.059519
41419	4.351045	4.718316	-12.072493	0.251355	0.551137	-0.793720	-0.055483
41420	4.692127	4.029236	-11.233162	0.255436	0.549366	-0.793860	-0.052303
41421	4.958538	4.058713	-10.411103	0.256280	0.549187	-0.793927	-0.048934
41422	5.338390	4.435538	-9.806208	0.256001	0.548217	-0.794836	-0.046457
41423	4.916474	3.364986	-9.476544	0.257206	0.545361	-0.796480	-0.045225
41424	3.816667	2.115863	-9.197554	0.260926	0.541533	-0.797868	-0.045451
41425	2.241194	1.001903	-8.885874	0.266227	0.539106	-0.797646	-0.047430
41426	1.713572	0.676546	-8.381242	0.270956	0.540025	-0.795258	-0.050218
41427	2.192746	1.870794	-7.547194	0.274650	0.543046	-0.791745	-0.052995
41428	3.324497	2.532174	-6.583327	0.279696	0.545609	-0.788032	-0.055557
41429	3.492292	2.534880	-5.753166	0.287760	0.545848	-0.784756	-0.058329
41430	2.261012	1.743286	-5.287506	0.297725	0.544344	-0.781799	-0.061969
41431	1.207117	1.698623	-5.314374	0.306967	0.543511	-0.778361	-0.067245
41432	1.089598	1.217232	-5.485835	0.314680	0.544389	-0.774026	-0.074161
41433	1.436111	0.929430	-5.446253	0.320890	0.546369	-0.769572	-0.079176
41434	1.493952	1.786688	-5.158458	0.328282	0.546979	-0.765719	-0.081969
41435	1.112145	1.064574	-5.155095	0.338407	0.545673	-0.762096	-0.083258
41436	1.599559	0.888718	-5.053636	0.351007	0.544075	-0.757486	-0.083615
41437	1.812675	0.874718	-4.636020	0.365403	0.543499	-0.751123	-0.083092
41438	0.841649	2.151471	-4.480398	0.382013	0.542525	-0.743421	-0.084019
41439	0.443857	0.568616	-4.819035	0.399820	0.539540	-0.735819	-0.087233
41440	1.299742	-1.042275	-4.998016	0.415007	0.536241	-0.729863	-0.086689
41441	2.618252	-0.434246	-4.757096	0.426516	0.535650	-0.724349	-0.080512
41442	3.033839	0.966115	-5.199565	0.437243	0.537974	-0.717033	-0.072571
41443	2.707917	1.836358	-5.641024	0.449175	0.541798	-0.707364	-0.065824
41444	1.280659	3.257078	-6.761580	0.461898	0.544614	-0.697253	-0.062328
41445	0.630190	3.305482	-7.983051	0.473344	0.545721	-0.688690	-0.061968
41446	1.633681	2.846798	-9.440281	0.483062	0.547591	-0.680350	-0.062607
41447	3.883085	2.259565	-11.112385	0.491594	0.554305	-0.669051	-0.058762
41448	4.060614	6.159742	-11.510384	0.501550	0.564878	-0.653313	-0.050421
41449	4.902375	8.328358	-11.118117	0.516554	0.574371	-0.633609	-0.042536
41450	3.826892	8.732433	-11.748006	0.535437	0.581210	-0.611670	-0.036904
41451	3.518469	8.927656	-12.610003	0.556344	0.586407	-0.587721	-0.034524
41452	4.909693	9.080163	-12.780064	0.580559	0.591314	-0.558715	-0.033708
41453	7.133983	7.766358	-12.028687	0.609844	0.595340	-0.522353	-0.028426
41454	6.582680	6.952738	-11.284437	0.640697	0.598991	-0.480248	-0.008891
41455	3.583164	9.940800	-10.331572	0.669418	0.599946	-0.437492	0.023331
41456	1.801328	11.941940	-9.164839	0.696079	0.595566	-0.396239	0.061401
41457	0.382208	11.898021	-8.647980	0.721149	0.585288	-0.356746	0.100570
41458	-0.503574	10.985533	-8.399693	0.745028	0.569857	-0.317577	0.139072
41459	-1.563083	9.130396	-7.425953	0.766980	0.551257	-0.276948	0.176514
41460	-2.373884	7.268044	-6.200825	0.785882	0.531039	-0.233627	0.214021
41461	-3.729931	6.639843	-4.652734	0.801074	0.509114	-0.187079	0.253152
41462	-5.658589	6.271937	-2.924373	0.812357	0.484956	-0.137590	0.293194
41463	-7.508281	5.820139	-1.732514	0.820200	0.457934	-0.086766	0.331724
41464	-8.627059	4.265080	-1.302792	0.824872	0.428528	-0.036821	0.366870
41465	-9.376135	2.734663	-1.072277	0.826022	0.398717	0.011198	0.398231
41466	-10.232933	2.076005	-0.578023	0.824067	0.370325	0.057105	0.424867
41467	-9.953784	1.380129	0.523803	0.819680	0.343177	0.101541	0.447263
41468	-9.921834	1.825868	1.641451	0.813743	0.315460	0.145722	0.465910
41469	-10.727371	2.537063	2.411821	0.808000	0.284633	0.188992	0.480001
41470	-11.816701	3.991815	3.373711	0.802649	0.249582	0.228972	0.490953
41471	-13.214616	7.077827	4.284468	0.798514	0.207931	0.261730	0.500637
41472	-14.043630	7.794503	4.816974	0.795358	0.159499	0.284440	0.510939
41473	-14.462418	8.123865	5.379978	0.791413	0.104877	0.296400	0.524227
41474	-14.347956	6.428814	6.727544	0.783450	0.045603	0.301600	0.541445
41475	-14.949346	5.689326	8.098014	0.769662	-0.017325	0.304117	0.561100
41476	-14.677035	3.050881	8.516274	0.749503	-0.081569	0.307093	0.580763
41477	-14.382773	0.067179	8.327233	0.724474	-0.142981	0.314251	0.596608
41478	-14.443207	-1.134449	7.994533	0.697420	-0.199151	0.327150	0.605736
41479	-15.105998	-0.157037	7.798847	0.669701	-0.250778	0.342608	0.609287
41480	-15.798535	-1.063790	7.456823	0.641908	-0.298049	0.357003	0.609648
41481	-15.721540	-1.799997	7.208637	0.614335	-0.339110	0.369058	0.609420
41482	-14.765405	-2.338290	6.597217	0.586133	-0.374083	0.377952	0.611279
41483	-13.423609	-3.358914	5.453437	0.557566	-0.403705	0.383790	0.615506
41484	-11.687037	-3.889659	3.886674	0.528646	-0.430360	0.385806	0.621673
41485	-10.843483	-7.145114	2.248332	0.501440	-0.454530	0.385718	0.627042
41486	-10.404160	-7.427975	1.537941	0.477576	-0.476383	0.385358	0.629666
41487	-9.741893	-7.307832	0.265116	0.456903	-0.495993	0.382812	0.631415
41488	-8.624235	-6.907590	-0.894813	0.439934	-0.513019	0.378362	0.632544
41489	-7.849591	-5.521403	-2.493897	0.424994	-0.529675	0.372647	0.632422
41490	-6.759417	-4.853073	-2.957062	0.407931	-0.549650	0.368233	0.629191
41491	-7.876215	-4.429543	-2.982699	0.388084	-0.571839	0.364752	0.623977
41492	-8.497628	-5.360761	-2.754911	0.368024	-0.592521	0.359789	0.619701
41493	-9.226427	-5.895107	-3.726972	0.348381	-0.612776	0.351498	0.616105
41494	-9.924201	-8.307341	-1.648432	0.338708	-0.631918	0.345906	0.605231
41495	-10.467869	-2.655122	-0.988710	0.339711	-0.649997	0.346313	0.584951
41496	-11.574856	5.179973	0.298186	0.336284	-0.669969	0.346785	0.563733
41497	-12.088526	1.960686	1.034067	0.321196	-0.689446	0.346579	0.548981
41498	-12.298501	-1.966339	1.485204	0.300109	-0.705878	0.349581	0.538018
41499	-12.706801	-5.854025	1.163922	0.281714	-0.719921	0.353222	0.526863
41500	-13.614659	-5.753876	0.358903	0.271996	-0.733043	0.354187	0.513048
41501	-14.857711	-1.180076	0.892372	0.264794	-0.747986	0.349403	0.498315
41502	-16.998228	2.649434	0.339528	0.252019	-0.763758	0.340175	0.487279
41503	-16.815931	-0.963225	-1.053371	0.240172	-0.775560	0.330397	0.481313
41504	-15.348680	-1.193644	-2.977784	0.242500	-0.780135	0.324518	0.476730
41505	-13.009085	0.964243	-5.140295	0.253227	-0.780071	0.319865	0.474396
41506	-10.184497	2.911454	-6.331692	0.259958	-0.780564	0.314145	0.473766
41507	-9.121664	2.123416	-5.216868	0.257416	-0.784564	0.308528	0.472236
41508	-10.748439	-0.197552	-3.147697	0.250358	-0.790066	0.303934	0.469830
41509	-13.621434	-3.142564	-1.265314	0.251257	-0.792428	0.300760	0.467409
41510	-15.989388	-1.702486	0.066111	0.268333	-0.788301	0.297778	0.466805
41511	-16.969261	2.301611	0.637109	0.297398	-0.777313	0.293138	0.470541
41512	-17.021965	3.938136	1.882461	0.330139	-0.760832	0.289341	0.477938
41513	-18.489387	2.789430	4.265872	0.363595	-0.739243	0.288585	0.487891
41514	-21.945493	1.179788	6.396538	0.399452	-0.710893	0.289915	0.501017
41515	-25.716738	-1.030919	7.573202	0.438165	-0.672770	0.292051	0.519710
41516	-27.521218	-2.679063	7.021657	0.478551	-0.623447	0.295913	0.542898
41517	-29.265639	-2.220869	7.439667	0.518242	-0.563753	0.300508	0.568597
41518	-28.697878	-3.524608	6.715215	0.556401	-0.493651	0.304065	0.595207
41519	-26.061439	-3.792742	5.476141	0.591133	-0.414209	0.308390	0.619588
41520	-22.823470	-2.270226	5.142490	0.617862	-0.329279	0.313148	0.641686
41521	-20.494608	-1.147155	5.407629	0.633591	-0.242324	0.314887	0.663843
41522	-18.351718	-0.127939	5.304798	0.638436	-0.155543	0.309417	0.687362
41523	-15.314295	-0.613427	4.868463	0.633604	-0.072774	0.296294	0.710957
41524	-13.364461	-0.961382	4.848581	0.621050	0.002644	0.277067	0.733160
41525	-12.202127	-1.843832	4.887633	0.603844	0.068754	0.253422	0.752611
41526	-12.025332	-3.363971	4.558012	0.583845	0.126137	0.227038	0.769200
41527	-11.366077	-3.626522	4.418183	0.561444	0.176411	0.199366	0.783526
41528	-10.780410	-3.797508	4.060722	0.537844	0.219493	0.169698	0.796084
41529	-10.536073	-2.554385	3.968357	0.515484	0.255104	0.135560	0.806735
41530	-10.308627	-2.077231	4.602689	0.497582	0.284446	0.094134	0.814028
41531	-9.125171	-10.988506	0.170560	0.513280	0.293747	0.035848	0.805588
41532	-2.890014	-9.475640	-3.842367	0.524217	0.289248	-0.009725	0.800898
41533	-6.685397	-5.517267	-2.258914	0.520147	0.291478	-0.049625	0.801265
41534	-3.335463	-2.310118	0.425065	0.514900	0.299293	-0.090508	0.798192
41535	-0.916100	-0.946565	1.648291	0.516208	0.309598	-0.130240	0.787855
41536	0.713249	0.337207	0.730328	0.522688	0.321422	-0.166053	0.771953
41537	2.243535	0.195912	-0.081820	0.531934	0.333082	-0.196564	0.753303
41538	3.527568	-0.501118	-0.747861	0.539367	0.345783	-0.223282	0.734617
41539	4.894466	-1.273612	-1.689466	0.543627	0.360415	-0.246184	0.716913
41540	7.398971	-1.227874	-1.661109	0.545494	0.374709	-0.264088	0.701632
41541	8.251811	-0.300253	-0.737428	0.547499	0.384952	-0.277643	0.689181
41542	7.817840	0.645904	0.541581	0.552450	0.388981	-0.288413	0.678462
41543	6.805622	0.872844	1.239472	0.562002	0.387428	-0.298126	0.667213
41544	6.137199	-0.235859	1.512222	0.574275	0.383147	-0.307434	0.654897
41545	5.929120	-1.606184	1.523739	0.586169	0.378968	-0.315875	0.642660
41546	5.689804	-3.027277	1.298068	0.596288	0.377436	-0.321634	0.631296
41547	5.581480	-3.987812	0.945106	0.604756	0.379990	-0.322961	0.620946
41548	5.129647	-4.295268	0.491953	0.612123	0.386399	-0.319843	0.611312
41549	4.199270	-3.462020	0.079868	0.619618	0.395691	-0.313076	0.601237
41550	3.360440	-2.906950	-0.181731	0.628980	0.406599	-0.303352	0.589100
41551	2.047062	-3.069992	-0.312196	0.640890	0.418113	-0.290377	0.574563
41552	0.549042	-3.179386	-0.301791	0.655518	0.430045	-0.273267	0.557390
41553	-2.327900	-2.962602	1.220039	0.672333	0.443281	-0.252391	0.536441
41554	-4.311134	0.476139	3.165025	0.686303	0.458948	-0.232286	0.514196
41555	-1.059113	4.251535	2.299343	0.705685	0.470062	-0.208147	0.487570
41556	0.324536	2.088967	3.138745	0.735315	0.472268	-0.171577	0.454792
41557	-0.761007	2.406906	3.595368	0.766985	0.467362	-0.126462	0.421087
41558	-3.685319	0.941759	3.118809	0.796185	0.455369	-0.079568	0.390382
41559	-5.342498	3.356182	3.331434	0.818806	0.442245	-0.036258	0.364227
41560	-5.681949	7.500795	4.753601	0.840392	0.424130	0.005417	0.337381
41561	-6.620136	8.749604	5.880727	0.864367	0.397041	0.049192	0.304644
41562	-7.692316	6.337586	5.885668	0.888275	0.361116	0.095888	0.267148
41563	-11.562978	5.367183	6.928887	0.907704	0.322394	0.145418	0.225809
41564	-17.095661	5.482308	9.813268	0.920291	0.288380	0.196645	0.176725
41565	-21.620322	5.692433	12.193145	0.924639	0.265128	0.245954	0.119401
41566	-23.343115	5.872331	12.277936	0.921576	0.252214	0.289292	0.058271
41567	-23.971896	8.433571	12.076923	0.912139	0.246687	0.327325	-0.002467
41568	-23.804133	9.872433	11.544671	0.898160	0.241937	0.361961	-0.061315
41569	-23.212816	8.443013	10.260002	0.880035	0.236945	0.393622	-0.120235
41570	-24.028801	0.368307	9.809992	0.853209	0.242375	0.420889	-0.190109
41571	-26.138056	-6.528706	4.874075	0.802230	0.289180	0.431716	-0.293977
41572	-30.998277	23.708136	-1.270881	0.738996	0.351814	0.415546	-0.396778
41573	-17.890787	23.472357	1.088161	0.691128	0.383465	0.390994	-0.471614
41574	-18.611575	20.633189	1.942796	0.665673	0.389088	0.373547	-0.515705
41575	-15.942808	16.586258	1.852177	0.663397	0.378167	0.362245	-0.534483
41576	-14.229679	12.424812	0.681958	0.677868	0.358039	0.354221	-0.535566
41577	-12.876116	6.797168	0.634659	0.699283	0.334381	0.347889	-0.527414
41578	-11.179206	3.671586	1.458459	0.720164	0.314857	0.340253	-0.516194
41579	-9.404847	1.483786	2.398720	0.734872	0.303633	0.331761	-0.507646
41580	-8.736707	0.494803	2.520308	0.739898	0.303257	0.323164	-0.506114
41581	-9.081556	0.951149	2.244904	0.735242	0.312942	0.313223	-0.513204
41582	-10.084881	2.563175	2.084488	0.723606	0.328778	0.300534	-0.527236
41583	-10.555953	4.538753	2.224284	0.708676	0.346091	0.284763	-0.544894
41584	-10.660964	6.380692	2.483277	0.694175	0.361400	0.267052	-0.562311
41585	-11.340153	6.591975	2.292401	0.683648	0.372577	0.247409	-0.576716
41586	-11.108724	6.239614	2.192935	0.678369	0.380262	0.225342	-0.586888
41587	-11.045007	5.624600	2.294610	0.677253	0.385964	0.201638	-0.593045
41588	-10.865715	4.181645	2.316086	0.678316	0.391091	0.176259	-0.596547
41589	-10.462876	2.997586	2.199275	0.679365	0.397579	0.149171	-0.598449
41590	-9.979150	2.463896	2.168771	0.679188	0.406356	0.120716	-0.599171
41591	-9.315806	2.285045	2.193409	0.677662	0.417066	0.091866	-0.598658
41592	-8.658361	2.463153	2.258644	0.675755	0.428528	0.063636	-0.596380
41593	-8.106943	2.611805	2.363107	0.674880	0.438953	0.037059	-0.592017
41594	-7.654853	2.826888	2.475229	0.675993	0.446534	0.013077	-0.586063
41595	-7.116356	2.782925	2.650522	0.679269	0.450233	-0.007831	-0.579502
41596	-6.607432	2.807745	2.892376	0.684334	0.449985	-0.025593	-0.573189
41597	-6.576757	2.354011	3.010208	0.689892	0.446678	-0.040735	-0.568215
41598	-6.214143	1.878992	2.963932	0.693839	0.442357	-0.054387	-0.565641
41599	-5.526528	1.859217	2.860763	0.694768	0.439063	-0.067385	-0.565668
41600	-4.473112	2.414634	2.816112	0.692638	0.438065	-0.079843	-0.567430
41601	-3.608654	3.327081	2.837314	0.687025	0.440550	-0.090399	-0.570737
41602	-3.415789	4.554973	3.062107	0.677491	0.446939	-0.098165	-0.575860
41603	-3.608478	6.118801	3.570011	0.665196	0.456292	-0.103206	-0.581945
41604	-4.630530	7.774186	4.222268	0.652835	0.465664	-0.107737	-0.587670
41605	-4.975483	9.817599	4.941193	0.643131	0.472014	-0.112852	-0.592326
41606	-4.851426	10.497914	5.309573	0.636602	0.474333	-0.118516	-0.596406
41607	-4.038629	10.257256	5.319529	0.631494	0.474798	-0.124921	-0.600147
41608	-3.579346	9.884816	5.052415	0.625377	0.475819	-0.131851	-0.604247
41609	-3.424702	9.754392	4.829905	0.617305	0.478348	-0.139285	-0.608865
41610	-3.338057	10.407892	4.790299	0.608229	0.481698	-0.146843	-0.613565
41611	-3.174582	11.299203	4.836391	0.599407	0.484727	-0.153837	-0.618130
41612	-2.620567	11.522784	4.813321	0.592107	0.486825	-0.160011	-0.621938
41613	-2.151798	11.797250	5.062995	0.587215	0.488683	-0.165530	-0.623672
41614	-1.781186	12.402109	5.659100	0.585549	0.490264	-0.170652	-0.622616
41615	-1.836356	12.521971	6.180665	0.587416	0.491160	-0.175267	-0.618859
41616	-1.699912	12.383007	6.603224	0.592407	0.490891	-0.179948	-0.612943
41617	-1.515490	11.912723	6.999427	0.600009	0.489136	-0.184133	-0.605665
41618	-1.499588	10.261362	6.959072	0.608774	0.486587	-0.187770	-0.597804
41619	-1.576057	8.771936	6.681498	0.616801	0.484823	-0.192323	-0.589505
41620	-1.742217	8.068914	6.291318	0.622567	0.484603	-0.198375	-0.581565
41621	-1.854652	7.580640	5.797242	0.625591	0.485718	-0.205832	-0.574758
41622	-1.712132	7.485771	5.299249	0.626764	0.487329	-0.214051	-0.569087
41623	-1.572955	7.532250	4.907187	0.627525	0.488225	-0.221994	-0.564418
41624	-1.497495	7.745408	4.732387	0.629079	0.487406	-0.228770	-0.560677
41625	-1.422121	7.575601	4.558272	0.632403	0.484305	-0.234259	-0.557349
41626	-1.327914	7.172022	4.484804	0.637483	0.479798	-0.239444	-0.553242
41627	-1.286280	6.541041	4.431521	0.643112	0.475178	-0.245199	-0.548170
41628	-1.201337	6.191204	4.358123	0.648217	0.471650	-0.251239	-0.542440
41629	-1.206596	6.049606	4.393043	0.652419	0.469342	-0.256559	-0.536885
41630	-1.922424	6.427588	5.176796	0.655674	0.466466	-0.260568	-0.533484
41631	-2.179173	4.147195	5.133608	0.656581	0.462668	-0.261907	-0.535017
41632	-1.616043	4.151287	5.459384	0.654475	0.461686	-0.262649	-0.538074
41633	-1.721621	4.211736	5.542250	0.648895	0.464998	-0.263853	-0.541382
41634	-2.336944	5.040357	5.711380	0.640716	0.471990	-0.265838	-0.544094
41635	-2.393048	7.446225	5.900478	0.633376	0.479962	-0.267458	-0.544919
41636	-2.206725	9.490831	6.059366	0.631052	0.485622	-0.264119	-0.544230
41637	-2.762560	9.579414	5.740059	0.635421	0.487526	-0.252752	-0.542840
41638	-4.406899	7.892857	5.599095	0.644113	0.485750	-0.236431	-0.541540
41639	-5.405336	6.116508	5.117709	0.654531	0.480718	-0.219097	-0.540829
41640	-5.734148	4.648475	4.934390	0.663640	0.473739	-0.203221	-0.542083
41641	-5.731933	3.959082	4.825034	0.669028	0.466207	-0.189262	-0.547022
41642	-5.467990	3.681155	4.720469	0.669924	0.459311	-0.176748	-0.555874
41643	-4.684899	3.901288	4.803553	0.667150	0.455694	-0.163060	-0.566272
41644	-3.546544	4.995999	4.918667	0.662715	0.459217	-0.145397	-0.573400
41645	-4.494103	6.471760	4.880846	0.658260	0.469814	-0.123201	-0.575144
41646	-6.615346	7.296756	4.465036	0.653681	0.483302	-0.098010	-0.574034
41647	-7.989563	7.659658	4.136816	0.647942	0.496521	-0.072225	-0.573080
41648	-7.967837	7.352029	3.766201	0.640787	0.507487	-0.048310	-0.574035
41649	-7.349437	6.990520	3.602444	0.632727	0.515806	-0.028342	-0.576886
41650	-6.703408	6.644414	3.787339	0.624826	0.521061	-0.013759	-0.581290
41651	-5.860830	5.774098	3.897830	0.616930	0.524374	-0.004485	-0.586863
41652	-5.391599	5.376525	4.097009	0.608671	0.527360	-0.000488	-0.592799
41653	-4.849217	5.134966	4.067952	0.599352	0.531208	-0.001512	-0.598827
41654	-4.151489	5.724591	4.165065	0.588622	0.537917	-0.005865	-0.603436
41655	-3.925377	6.859250	4.419223	0.577033	0.547453	-0.011388	-0.605969
41656	-4.538875	6.679831	4.810515	0.563537	0.558981	-0.017031	-0.608010
41657	-5.907058	5.787632	5.988808	0.545331	0.572336	-0.028609	-0.611741
41658	-7.174117	10.137669	6.959935	0.524376	0.585285	-0.049435	-0.616463
41659	-4.496839	13.745625	6.365053	0.509007	0.593711	-0.067609	-0.619555
41660	-3.018557	11.704911	4.016384	0.499482	0.601278	-0.079159	-0.618640
41661	-3.542590	10.254829	2.208444	0.490954	0.610578	-0.087013	-0.615294
41662	-5.260282	11.160751	1.553764	0.484450	0.617217	-0.094851	-0.612662
41663	-6.233712	13.083412	1.569610	0.485875	0.614194	-0.105133	-0.612893
41664	-5.242723	9.534064	0.881619	0.492524	0.603571	-0.117697	-0.615849
41665	-4.026592	5.815529	1.108852	0.493358	0.595715	-0.133324	-0.619634
41666	-3.023514	8.846556	-0.615699	0.490516	0.593770	-0.145488	-0.621019
41667	-5.537457	7.571182	-0.641167	0.486134	0.592735	-0.148219	-0.624797
41668	-5.073755	10.200617	0.070704	0.485008	0.586610	-0.139764	-0.633342
41669	-6.079119	9.412611	-0.050048	0.491451	0.573763	-0.120908	-0.643935
41670	-5.501161	5.997010	0.434342	0.503197	0.557274	-0.099280	-0.652979
41671	-5.328485	2.808184	1.250118	0.512507	0.545115	-0.082159	-0.658358
41672	-5.892551	3.831109	2.393434	0.515655	0.539235	-0.072246	-0.661895
41673	-6.213740	6.275852	3.189333	0.515003	0.534012	-0.067803	-0.667087
41674	-4.500796	8.396544	3.251368	0.515149	0.526885	-0.064215	-0.672972
41675	-3.295902	8.069204	2.889744	0.517120	0.522379	-0.058637	-0.675477
41676	-3.173614	8.222822	3.263863	0.516114	0.526186	-0.054164	-0.673663
41677	-4.565594	10.274007	3.798660	0.513142	0.536974	-0.052414	-0.667530
41678	-4.527163	11.213039	4.138920	0.512104	0.549876	-0.050706	-0.657887
41679	-5.067606	9.627999	4.323557	0.512427	0.564447	-0.045382	-0.645569
41680	-5.923394	7.607486	4.532196	0.511949	0.581552	-0.036319	-0.631178
41681	-7.371356	6.554548	4.700869	0.509302	0.600412	-0.025505	-0.616008
41682	-8.745331	6.590322	4.888488	0.504089	0.618477	-0.014888	-0.602626
41683	-10.268962	7.547009	4.986264	0.497737	0.632748	-0.005631	-0.593174
41684	-11.709160	8.898158	4.194386	0.493137	0.639750	0.001176	-0.589520
41685	-10.234620	7.725270	4.565679	0.491174	0.631152	0.003425	-0.600319
41686	-10.790982	8.244441	3.375661	0.490417	0.614859	0.000525	-0.617608
41687	-8.676694	6.380710	2.601144	0.492411	0.591362	-0.007585	-0.638564
41688	-7.718386	3.976932	2.164350	0.491174	0.567523	-0.021379	-0.660462
41689	-6.655121	2.818723	2.168506	0.483554	0.547754	-0.041475	-0.681484
41690	-6.398844	2.909778	2.142311	0.469165	0.533763	-0.067197	-0.700332
41691	-6.069474	4.101920	2.098066	0.449818	0.524363	-0.096807	-0.716475
41692	-5.761282	5.417406	2.061879	0.428165	0.517757	-0.127570	-0.729608
41693	-5.578654	6.516282	2.277991	0.406416	0.512603	-0.157125	-0.739849
41694	-5.515350	6.854582	2.423900	0.386175	0.507306	-0.184617	-0.747948
41695	-5.051594	7.122500	2.481158	0.368399	0.501566	-0.209667	-0.754157
41696	-4.863302	7.341031	2.619646	0.353194	0.495842	-0.232035	-0.758653
41697	-4.700043	7.587101	2.881835	0.340621	0.490071	-0.251304	-0.762006
41698	-4.279455	7.494809	3.012175	0.330232	0.484697	-0.267225	-0.764596
41699	-4.093181	7.685855	3.026800	0.321681	0.480208	-0.279665	-0.766622
41700	-3.938252	7.841037	3.082392	0.314818	0.476751	-0.288074	-0.768513
41701	-3.647244	7.531207	3.149479	0.309505	0.474407	-0.292917	-0.770288
41702	-3.618617	7.453213	3.156096	0.305423	0.473368	-0.294933	-0.771786
41703	-3.722583	7.559878	3.285269	0.302321	0.473557	-0.294602	-0.773017
41704	-3.884822	7.616630	3.427317	0.300264	0.474461	-0.292745	-0.773969
41705	-4.180919	7.788505	3.688949	0.299167	0.475835	-0.290132	-0.774535
41706	-4.394708	8.028155	4.086132	0.298975	0.477445	-0.287492	-0.774602
41707	-4.628615	8.393413	4.506397	0.299919	0.479018	-0.285125	-0.774141
41708	-4.902498	8.682002	4.916582	0.302009	0.480304	-0.283105	-0.773272
41709	-5.127423	8.950638	5.278497	0.304879	0.481211	-0.281071	-0.772324
41710	-5.379459	9.165252	5.557744	0.308114	0.481750	-0.278704	-0.771562
41711	-5.596376	9.345903	5.775710	0.311360	0.481979	-0.275941	-0.771108
41712	-5.917782	9.578877	6.006040	0.314199	0.482106	-0.272707	-0.771028
41713	-6.258807	9.407670	6.282761	0.315948	0.482179	-0.269838	-0.771277
41714	-6.722180	9.459284	6.609489	0.316113	0.482115	-0.268709	-0.771643
41715	-7.039718	10.119030	6.664969	0.315537	0.481191	-0.269167	-0.772296
41716	-7.179800	10.626592	6.312772	0.315549	0.478692	-0.270017	-0.773546
41717	-6.898851	10.281610	5.840970	0.316738	0.474340	-0.270545	-0.775554
41718	-6.227691	9.262560	5.322626	0.319444	0.468185	-0.270908	-0.778053
41719	-4.915310	7.942672	4.679833	0.323141	0.461050	-0.269890	-0.781136
41720	-5.085152	5.152353	4.315551	0.325971	0.454297	-0.267826	-0.784618
41721	-4.025498	5.405763	3.015529	0.328704	0.451298	-0.264492	-0.786338
41722	-4.325161	5.813679	3.337297	0.334391	0.449025	-0.261380	-0.786282
41723	-5.183837	7.022215	4.210879	0.343713	0.445098	-0.258771	-0.785358
41724	-5.663492	8.071757	4.939553	0.357183	0.437009	-0.254862	-0.785168
41725	-6.078348	8.018252	5.014459	0.372909	0.424332	-0.247626	-0.787123
41726	-6.181342	7.331874	4.990435	0.387585	0.408213	-0.236148	-0.792070
41727	-6.125962	6.455565	4.811824	0.400064	0.388627	-0.222243	-0.799704
41728	-5.777122	6.521961	4.732638	0.410409	0.366405	-0.207146	-0.808951
41729	-5.648009	5.936594	5.064008	0.420661	0.341093	-0.191392	-0.818577
41730	-5.673442	4.364939	5.614962	0.429960	0.314491	-0.178584	-0.827247
41731	-5.299931	4.062310	6.197981	0.438122	0.289267	-0.170820	-0.833783
41732	-5.021864	4.421165	6.588905	0.445218	0.267335	-0.167208	-0.838066
41733	-4.995890	5.368337	6.927644	0.451188	0.248512	-0.164896	-0.841119
41734	-5.275144	5.253482	6.900068	0.454920	0.231555	-0.162994	-0.844312
41735	-5.179475	4.837626	7.091766	0.456495	0.215001	-0.162636	-0.847901
41736	-4.792296	4.267209	7.190396	0.457265	0.197656	-0.165044	-0.851235
41737	-3.895457	4.065319	6.872273	0.458032	0.179826	-0.170208	-0.853756
41738	-2.895001	3.983997	6.541636	0.458843	0.163167	-0.177368	-0.855208
41739	-2.153350	4.049567	6.655396	0.459860	0.148879	-0.184897	-0.855673
41740	-2.044549	4.865441	6.844531	0.461317	0.135860	-0.191139	-0.855684
41741	-1.829641	4.960024	7.121841	0.463372	0.122221	-0.194864	-0.855790
41742	-1.735229	4.655715	7.588189	0.466224	0.106880	-0.196979	-0.855810
41743	-1.459743	3.834464	7.868739	0.470235	0.089730	-0.199098	-0.855095
