// Start Time: Unknown
// Update Rate: 60.0Hz
// Filter Profile: human (46.1)
// Option Flags: AHS Disabled ICC Disabled 
// Firmware Version: 4.3.5
PacketCounter	Acc_X	Acc_Y	Acc_Z	Quat_q0	Quat_q1	Quat_q2	Quat_q3
40913	0.418838	-9.247057	3.916268	0.712865	-0.447861	-0.310996	0.441051
40914	0.235182	-9.588959	4.002836	0.712103	-0.448906	-0.311117	0.441134
40915	0.252509	-9.560875	4.122538	0.711636	-0.449433	-0.311120	0.441349
40916	0.384627	-9.236726	4.098869	0.711328	-0.449750	-0.311215	0.441454
40917	0.516258	-8.924092	3.844660	0.710971	-0.449944	-0.311593	0.441567
40918	0.615723	-8.819743	3.613015	0.710460	-0.450315	-0.312115	0.441642
40919	0.691769	-8.848984	3.497677	0.709951	-0.450719	-0.312525	0.441758
40920	0.668900	-8.883979	3.543146	0.709512	-0.451194	-0.312802	0.441783
40921	0.725637	-9.057066	3.539063	0.709091	-0.451615	-0.313049	0.441853
40922	0.649007	-9.118394	3.672342	0.708888	-0.451889	-0.313140	0.441833
40923	0.580103	-9.053882	3.882191	0.708826	-0.452041	-0.313179	0.441751
40924	0.480263	-9.121453	3.935464	0.708819	-0.452088	-0.313240	0.441672
40925	0.423022	-9.030847	3.987460	0.708894	-0.451973	-0.313286	0.441635
40926	0.508752	-9.036387	3.999557	0.708960	-0.451833	-0.313411	0.441584
40927	0.440698	-8.915277	4.056882	0.709124	-0.451626	-0.313512	0.441461
40928	0.526101	-8.837936	3.980421	0.709290	-0.451347	-0.313702	0.441344
40929	0.591328	-8.787878	3.926860	0.709416	-0.451211	-0.313875	0.441157
40930	0.542037	-8.879058	3.939166	0.709577	-0.451095	-0.314038	0.440902
40931	0.578638	-8.909008	3.896943	0.709788	-0.450955	-0.314111	0.440653
40932	0.502703	-8.876117	3.991302	0.710008	-0.450767	-0.314169	0.440450
40933	0.550938	-8.792467	3.962111	0.710154	-0.450604	-0.314296	0.440290
40934	0.519836	-8.885650	3.881248	0.710202	-0.450534	-0.314508	0.440133
40935	0.576588	-8.896790	3.929976	0.710236	-0.450549	-0.314714	0.439915
40936	0.553723	-8.873908	3.931599	0.710351	-0.450585	-0.314838	0.439605
40937	0.495535	-8.808992	3.932857	0.710509	-0.450601	-0.314938	0.439260
40938	0.499657	-8.913649	3.937572	0.710483	-0.450825	-0.315253	0.438846
40939	0.549998	-8.940265	3.836637	0.710626	-0.450955	-0.315309	0.438441
40940	0.398440	-8.855159	3.907543	0.710739	-0.451082	-0.315376	0.438079
40941	0.515596	-8.960552	3.883179	0.710754	-0.451206	-0.315580	0.437780
40942	0.520727	-8.965712	3.859239	0.710811	-0.451397	-0.315650	0.437440
40943	0.468970	-8.959991	3.943191	0.710793	-0.451578	-0.315834	0.437149
40944	0.487720	-8.923629	3.870275	0.710804	-0.451740	-0.315963	0.436870
40945	0.425546	-9.031133	3.889391	0.710798	-0.451911	-0.316084	0.436616
40946	0.564999	-9.005562	3.728287	0.710901	-0.451957	-0.316120	0.436375
40947	0.475613	-8.846962	3.740032	0.710888	-0.452118	-0.316236	0.436146
40948	0.462585	-8.890242	3.784955	0.710843	-0.452292	-0.316331	0.435969
40949	0.509744	-8.959398	3.850868	0.710735	-0.452469	-0.316567	0.435789
40950	0.626583	-8.965876	3.848474	0.710597	-0.452677	-0.316792	0.435636
40951	0.495686	-9.029531	3.788605	0.710643	-0.452823	-0.316734	0.435450
40952	0.458691	-8.984138	3.755447	0.710707	-0.452796	-0.316695	0.435403
40953	0.429659	-8.928410	3.849916	0.710729	-0.452766	-0.316661	0.435424
40954	0.346395	-8.747785	3.787784	0.710640	-0.452705	-0.316800	0.435531
40955	0.583529	-9.150955	3.848266	0.710214	-0.453023	-0.317448	0.435423
40956	0.737154	-9.055641	3.758610	0.710326	-0.452849	-0.317429	0.435434
40957	0.606859	-8.910779	3.740335	0.710251	-0.452833	-0.317656	0.435408
40958	0.545023	-8.843030	3.708313	0.710153	-0.452869	-0.317861	0.435381
40959	0.552899	-9.026902	3.661991	0.709828	-0.453033	-0.318361	0.435375
40960	0.568849	-8.986960	3.608208	0.709708	-0.453073	-0.318576	0.435372
40961	0.538159	-8.922605	3.652117	0.709427	-0.453160	-0.318998	0.435431
40962	0.623005	-9.066109	3.626069	0.709115	-0.453369	-0.319429	0.435404
40963	0.540489	-9.130723	3.674386	0.708918	-0.453329	-0.319869	0.435444
40964	0.466946	-8.898715	3.674923	0.708719	-0.453203	-0.320281	0.435596
40965	0.481963	-9.062311	3.708372	0.708226	-0.453271	-0.321127	0.435705
40966	0.737136	-9.105430	3.575582	0.707974	-0.453113	-0.321743	0.435824
40967	0.669111	-9.019916	3.591188	0.707810	-0.453033	-0.322184	0.435848
40968	0.529470	-8.819209	3.590771	0.707615	-0.452976	-0.322589	0.435925
40969	0.550718	-8.889968	3.501987	0.707062	-0.453116	-0.323373	0.436095
40970	0.533757	-9.158975	3.440243	0.706547	-0.453201	-0.324031	0.436353
40971	0.536869	-9.264530	3.386767	0.706112	-0.453147	-0.324675	0.436635
40972	0.535078	-9.285643	3.247550	0.705761	-0.452991	-0.325214	0.436963
40973	0.456573	-9.185416	3.239560	0.705374	-0.452962	-0.325703	0.437253
40974	0.415256	-9.130384	3.101821	0.704837	-0.453244	-0.326243	0.437424
40975	0.399634	-9.339236	2.872932	0.703960	-0.454133	-0.327133	0.437251
40976	0.483526	-9.828350	2.754085	0.703039	-0.454656	-0.328428	0.437218
40977	0.743779	-9.929749	2.699208	0.702899	-0.454185	-0.328711	0.437720
40978	0.111268	-8.838983	3.076515	0.703515	-0.453009	-0.327465	0.438880
40979	0.065196	-8.827607	3.197313	0.702693	-0.452605	-0.328042	0.440181
40980	0.329811	-9.227075	3.021133	0.701964	-0.451490	-0.328876	0.441864
40981	0.460173	-9.465909	3.091477	0.701072	-0.450237	-0.330362	0.443447
40982	0.700542	-10.462279	3.253431	0.700022	-0.449909	-0.331877	0.444306
40983	0.231732	-9.741224	3.109918	0.701794	-0.445910	-0.330221	0.446770
40984	-0.244184	-8.138732	3.310479	0.703423	-0.441418	-0.328870	0.449656
40985	-0.062121	-8.392223	3.766659	0.702697	-0.439130	-0.330934	0.451513
40986	1.499183	-9.123716	3.662981	0.700948	-0.436978	-0.334813	0.453456
40987	1.989524	-9.819679	3.200318	0.700237	-0.435406	-0.336166	0.455062
40988	0.253972	-8.723278	3.379443	0.703946	-0.430640	-0.330858	0.457758
40989	-0.859601	-6.719349	3.956101	0.706707	-0.426208	-0.326815	0.460547
40990	-0.341742	-7.338641	5.191149	0.704128	-0.427034	-0.330717	0.460947
40991	1.821813	-9.763524	4.426456	0.698936	-0.429137	-0.338589	0.461181
40992	2.191528	-10.996546	2.959608	0.698717	-0.427269	-0.338453	0.463341
40993	0.258525	-7.050725	3.619421	0.704259	-0.421048	-0.329405	0.467150
40994	-1.724296	-5.899079	5.369717	0.705591	-0.419119	-0.325901	0.469329
40995	-1.153298	-7.707821	5.523782	0.700147	-0.420123	-0.334151	0.470779
40996	2.218431	-10.218411	4.425498	0.692779	-0.422377	-0.345400	0.471544
40997	4.038876	-12.141218	2.437719	0.690499	-0.421890	-0.347951	0.473445
40998	1.757211	-9.149121	2.504298	0.696519	-0.416293	-0.337638	0.477034
40999	-1.212962	-6.241129	4.685044	0.702301	-0.411762	-0.327398	0.479621
41000	-1.984172	-6.960954	5.357379	0.700320	-0.410812	-0.330128	0.481458
41001	0.513848	-8.950424	5.339210	0.695161	-0.411207	-0.337870	0.483223
41002	2.865045	-9.441231	3.996560	0.692729	-0.412305	-0.338851	0.485089
41003	2.088901	-10.322959	3.016562	0.692952	-0.413167	-0.335285	0.486513
41004	0.882286	-9.668449	3.258959	0.695617	-0.412561	-0.328803	0.487646
41005	-0.042418	-8.854924	3.675210	0.697623	-0.411305	-0.324597	0.488659
41006	-0.131294	-9.139613	4.467260	0.698082	-0.409711	-0.323715	0.489926
41007	0.495545	-8.514744	5.416631	0.698793	-0.407459	-0.322061	0.491876
41008	1.584966	-8.517091	5.167590	0.698463	-0.409071	-0.320472	0.492045
41009	2.436444	-10.007609	2.849138	0.697347	-0.412965	-0.320160	0.490576
41010	2.537966	-9.729989	2.502334	0.700768	-0.413106	-0.313735	0.489732
41011	1.048126	-8.308166	3.743916	0.706091	-0.411131	-0.305702	0.488829
41012	0.714251	-7.286261	4.830780	0.710240	-0.409895	-0.300231	0.487243
41013	1.113032	-7.586062	5.123381	0.712291	-0.411803	-0.297261	0.484453
41014	1.829494	-8.551159	4.078876	0.712731	-0.415919	-0.297028	0.480417
41015	2.083527	-9.302999	2.920368	0.714519	-0.419825	-0.295496	0.475281
41016	1.785953	-9.562648	2.988047	0.717716	-0.423405	-0.292520	0.469088
41017	1.704216	-9.997371	2.976700	0.721305	-0.426734	-0.290120	0.462003
41018	2.210993	-9.956119	2.451798	0.725931	-0.429033	-0.287116	0.454445
41019	1.843047	-9.794714	2.593413	0.732245	-0.429732	-0.282270	0.446622
41020	1.690798	-9.281851	3.295500	0.739317	-0.428897	-0.277412	0.438749
41021	1.867346	-8.467824	3.789362	0.746517	-0.428403	-0.272229	0.430202
41022	1.915845	-8.231259	3.886118	0.752870	-0.430065	-0.267036	0.420622
41023	1.519547	-8.757493	3.231907	0.758278	-0.432710	-0.262555	0.410903
41024	1.827069	-8.903025	3.014259	0.763914	-0.434120	-0.258073	0.401713
41025	2.100303	-8.520183	3.233614	0.769902	-0.434552	-0.253033	0.392924
41026	1.518642	-8.406677	3.405890	0.775536	-0.434959	-0.248093	0.384454
41027	1.453645	-8.111559	3.877361	0.780983	-0.434347	-0.243791	0.376793
41028	2.153081	-7.588576	4.189608	0.785544	-0.434950	-0.239797	0.369103
41029	2.568676	-7.702003	4.396885	0.789239	-0.436328	-0.236720	0.361502
41030	2.984128	-8.064699	4.413941	0.792321	-0.438736	-0.233991	0.353535
41031	3.186426	-8.351418	4.026020	0.795007	-0.442188	-0.230630	0.345315
41032	3.571570	-8.680168	4.515183	0.797275	-0.445970	-0.227310	0.337334
41033	3.635758	-9.315509	4.679004	0.799352	-0.450525	-0.223535	0.328779
41034	3.761200	-9.800662	3.761146	0.802023	-0.455061	-0.218243	0.319451
41035	3.610266	-9.938663	3.826813	0.806213	-0.457907	-0.210811	0.309678
41036	3.130004	-9.057182	4.399326	0.811625	-0.459120	-0.202120	0.299368
41037	2.458147	-9.293827	4.810129	0.816094	-0.460615	-0.195633	0.289054
41038	1.320020	-10.738690	5.114794	0.820510	-0.461544	-0.189253	0.279148
41039	-0.128228	-10.869457	5.699839	0.826388	-0.460004	-0.181034	0.269639
41040	-1.523487	-10.395145	6.376709	0.831939	-0.458241	-0.172685	0.260906
41041	-2.764914	-8.400257	6.323131	0.838738	-0.454666	-0.161773	0.252242
41042	-3.088746	-6.786418	6.826210	0.843893	-0.452195	-0.153515	0.244535
41043	-3.306718	-7.133820	6.851484	0.846049	-0.453119	-0.149751	0.237610
41044	-3.739514	-7.785606	6.231829	0.848334	-0.453381	-0.146723	0.230755
41045	-3.482407	-8.410724	6.575550	0.849818	-0.454386	-0.145679	0.223876
41046	-2.648046	-9.197677	6.185652	0.850945	-0.455453	-0.145683	0.217327
41047	-2.090113	-8.985224	6.432356	0.853499	-0.454565	-0.143296	0.210657
41048	-2.610019	-8.130814	6.583234	0.856201	-0.453353	-0.140207	0.204284
41049	-2.860071	-7.460782	6.075306	0.857964	-0.453264	-0.138045	0.198475
41050	-2.852181	-6.775439	5.488074	0.859637	-0.452984	-0.135982	0.193232
41051	-2.414129	-5.937788	6.159272	0.861181	-0.452671	-0.133951	0.188448
41052	-2.090886	-6.049402	6.508612	0.861688	-0.454027	-0.132246	0.184023
41053	-2.063564	-6.387610	5.875391	0.861737	-0.456001	-0.130461	0.180143
41054	-2.754590	-6.936059	5.329142	0.862047	-0.457421	-0.128257	0.176613
41055	-2.551959	-7.346983	5.128404	0.861783	-0.459577	-0.126763	0.173348
41056	-1.722971	-7.430697	4.293607	0.861334	-0.462013	-0.125550	0.169957
41057	-1.310359	-7.763536	4.820026	0.861358	-0.464387	-0.122561	0.165485
41058	-1.157885	-7.489270	4.325517	0.861509	-0.466650	-0.119144	0.160763
41059	-1.164636	-6.830463	3.053228	0.861242	-0.469214	-0.116545	0.156583
41060	0.018555	-6.772882	3.164244	0.860673	-0.471618	-0.115659	0.153106
41061	1.920022	-7.988796	3.138902	0.860059	-0.473698	-0.116174	0.149709
41062	3.321190	-9.942794	2.509568	0.861304	-0.472757	-0.116071	0.145547
41063	3.792674	-10.698360	3.419292	0.865937	-0.466875	-0.112852	0.139443
41064	3.701307	-10.409946	4.126956	0.873345	-0.455905	-0.109351	0.132141
41065	3.373821	-8.512246	4.893257	0.883757	-0.438725	-0.105336	0.124088
41066	3.997813	-5.398577	6.623988	0.894841	-0.418333	-0.103479	0.116398
41067	4.908193	-4.841157	7.013698	0.901466	-0.406342	-0.102996	0.107875
41068	4.376990	-6.696382	7.100001	0.905490	-0.400556	-0.100241	0.097954
41069	3.049731	-7.926179	5.578713	0.908247	-0.397743	-0.095677	0.087938
41070	2.546579	-6.468672	5.145173	0.913582	-0.387648	-0.092434	0.080949
41071	2.888905	-3.806142	5.847960	0.922307	-0.366063	-0.094876	0.079669
41072	4.221154	-0.908643	8.250377	0.934203	-0.331702	-0.101806	0.082906
41073	4.355811	2.693344	12.960794	0.941293	-0.312537	-0.098011	0.081739
41074	-0.369343	-1.062520	13.642240	0.937834	-0.329076	-0.080848	0.075097
41075	-5.110211	-4.973733	10.622118	0.933583	-0.342408	-0.071786	0.077634
41076	-6.625465	-6.797943	12.570112	0.930985	-0.346028	-0.072933	0.090625
41077	-7.941880	-8.508878	12.354337	0.924947	-0.354962	-0.081345	0.108892
41078	-4.293606	-8.337353	9.890077	0.919043	-0.356138	-0.100850	0.135478
41079	-1.461486	-6.587889	10.836359	0.912628	-0.354694	-0.118327	0.165232
41080	-2.524008	-4.796706	10.914306	0.902157	-0.358731	-0.134727	0.198176
41081	-4.783958	-6.450088	7.830225	0.883273	-0.374763	-0.157714	0.233470
41082	-6.193048	-10.366307	4.024310	0.859579	-0.389640	-0.187306	0.272437
41083	-5.221303	-10.746514	2.605263	0.835410	-0.391974	-0.219501	0.316648
41084	-5.051244	-9.482214	1.772232	0.807697	-0.389572	-0.252785	0.363262
41085	-3.741635	-9.291773	1.032887	0.774079	-0.388123	-0.289403	0.407932
41086	-2.036338	-9.778322	-0.906169	0.735911	-0.388640	-0.327089	0.447667
41087	-0.330161	-10.706041	-2.259205	0.702675	-0.379151	-0.354329	0.486768
41088	1.840038	-9.158267	-2.125225	0.678960	-0.355675	-0.364051	0.529128
41089	-1.360640	-7.805677	0.569603	0.660599	-0.329805	-0.358388	0.571311
41090	-2.804665	-6.154170	2.720120	0.639516	-0.302155	-0.352447	0.612782
41091	-0.398110	-5.210373	5.526409	0.614250	-0.273484	-0.349835	0.652318
41092	2.222855	-5.454993	8.211998	0.586616	-0.254348	-0.350733	0.684233
41093	1.671407	-8.013956	5.311422	0.556640	-0.252063	-0.362317	0.703806
41094	2.348917	-12.380037	1.664636	0.531156	-0.252770	-0.373862	0.717083
41095	1.686746	-14.480929	0.324456	0.516915	-0.247971	-0.369240	0.731417
41096	3.552025	-15.228509	3.296732	0.509590	-0.237816	-0.357402	0.745671
41097	8.259412	-14.261131	5.129201	0.509657	-0.229704	-0.342029	0.755315
41098	8.319219	-11.253571	5.540875	0.518593	-0.231129	-0.324875	0.756371
41099	5.431608	-10.132868	6.394716	0.534739	-0.240151	-0.311608	0.747852
41100	1.423847	-11.873889	5.114382	0.554793	-0.256900	-0.302152	0.731376
41101	-1.422095	-12.489733	5.596333	0.579032	-0.272747	-0.288675	0.712038
41102	-2.761036	-10.805890	6.935659	0.605724	-0.290887	-0.272821	0.688514
41103	-3.490657	-10.810014	6.062693	0.632200	-0.314885	-0.258843	0.658917
41104	-4.317295	-11.718718	3.868290	0.658474	-0.342503	-0.243912	0.624188
41105	-5.971602	-12.015536	3.531433	0.684233	-0.367699	-0.228510	0.586861
41106	-6.661861	-10.606818	3.050083	0.709777	-0.388453	-0.212100	0.548028
41107	-7.402502	-9.861385	2.501415	0.732713	-0.408977	-0.197787	0.506704
41108	-7.898327	-10.808495	1.870585	0.753999	-0.426634	-0.183595	0.464502
41109	-9.085644	-10.477474	0.552352	0.777713	-0.438300	-0.161253	0.420777
41110	-10.967463	-9.514776	-1.045264	0.802581	-0.444290	-0.133866	0.374900
41111	-12.870625	-7.095566	-2.965738	0.827209	-0.441826	-0.107705	0.330022
41112	-12.388759	-3.498221	-1.292510	0.861083	-0.409333	-0.079432	0.290986
41113	-11.579317	4.874212	7.168028	0.898334	-0.349784	-0.058850	0.259198
41114	-6.793725	12.640532	12.088246	0.917123	-0.321814	-0.059787	0.227480
41115	-2.337798	5.264020	9.213690	0.919158	-0.343570	-0.054525	0.184759
41116	-2.917657	-3.411160	8.195731	0.916820	-0.369958	-0.041295	0.144457
41117	-5.661538	-7.953872	7.858983	0.917999	-0.380099	-0.029452	0.109246
41118	-4.267178	-8.778260	8.765370	0.924911	-0.370915	-0.024610	0.079721
41119	-1.178746	-6.369296	9.688473	0.934032	-0.351471	-0.024012	0.058960
41120	-0.569711	-2.169324	9.530643	0.942804	-0.329886	-0.018144	0.044339
41121	-2.540545	-0.844844	14.367494	0.949677	-0.311269	-0.008621	0.033923
41122	-4.841894	-3.149366	16.483994	0.950081	-0.310751	-0.003084	0.027749
41123	-5.066557	-7.014717	15.079804	0.949760	-0.311602	-0.005616	0.028767
41124	-0.832382	-5.488348	14.630504	0.951585	-0.304128	-0.019950	0.039929
41125	3.851210	-3.232413	14.450846	0.951413	-0.301011	-0.035246	0.054437
41126	1.303469	-4.600602	13.663821	0.946348	-0.313607	-0.040105	0.066836
41127	-0.048480	-6.939279	9.663005	0.937823	-0.333345	-0.049689	0.083071
41128	0.948499	-6.599804	7.151651	0.933151	-0.338588	-0.061772	0.103783
41129	1.157023	-2.258198	9.339048	0.931916	-0.330708	-0.073107	0.129689
41130	1.222071	0.218911	10.202388	0.923030	-0.339328	-0.086984	0.159075
41131	1.140713	-3.719455	4.452396	0.905928	-0.367524	-0.098015	0.186050
41132	0.975840	-6.105725	-0.523637	0.890160	-0.386790	-0.109608	0.214466
41133	1.193535	-6.820021	0.869228	0.882411	-0.383961	-0.118015	0.244942
41134	1.995300	-3.996545	5.491958	0.876631	-0.374781	-0.125207	0.274555
41135	4.088369	-5.416418	8.231877	0.868681	-0.374151	-0.128301	0.298233
41136	3.484417	-7.864311	2.863148	0.860174	-0.379918	-0.127039	0.315632
41137	-0.948899	-8.669259	2.411444	0.854583	-0.377813	-0.126428	0.333107
41138	-1.848105	-6.865405	6.125171	0.846388	-0.376525	-0.133070	0.352348
41139	-2.290419	-8.258570	5.618584	0.835235	-0.379167	-0.144974	0.370940
41140	-1.295791	-9.021928	5.305192	0.823745	-0.380112	-0.160043	0.389032
41141	-0.211746	-11.286758	4.553166	0.811231	-0.382556	-0.177466	0.405044
41142	1.397224	-13.324896	3.260995	0.799675	-0.384615	-0.194225	0.418172
41143	2.215272	-14.319942	3.861050	0.790742	-0.383872	-0.208681	0.428744
41144	2.392624	-13.975505	4.772038	0.784384	-0.381475	-0.220533	0.436559
41145	1.791698	-12.202609	5.169780	0.780636	-0.377093	-0.229650	0.442346
41146	1.409826	-9.703961	5.049819	0.778343	-0.372598	-0.237325	0.446126
41147	0.889012	-7.846775	3.939746	0.776359	-0.369787	-0.244575	0.448004
41148	0.338969	-7.176951	3.256229	0.774503	-0.367881	-0.251026	0.449215
41149	0.073075	-6.650179	3.245146	0.773305	-0.365107	-0.255368	0.451090
41150	0.258457	-7.045903	3.048583	0.772083	-0.362756	-0.258315	0.453398
41151	1.063045	-8.136969	2.341077	0.771376	-0.360173	-0.259420	0.456022
41152	1.381196	-8.518197	1.733515	0.772139	-0.357044	-0.257895	0.458051
41153	0.833325	-7.667525	0.613679	0.774552	-0.353809	-0.253770	0.458791
41154	-0.034313	-5.771207	-0.171668	0.778477	-0.349883	-0.247228	0.458731
41155	-0.874028	-3.522939	-0.962776	0.783670	-0.343799	-0.238901	0.458901
41156	-1.438265	-1.299621	-0.820169	0.790432	-0.333116	-0.228828	0.460313
41157	-1.728448	0.498486	-0.293527	0.797800	-0.319930	-0.217637	0.462379
41158	-1.931975	1.356131	-0.229722	0.804282	-0.308647	-0.206648	0.463858
41159	-1.438303	1.675785	-0.287890	0.810101	-0.297717	-0.196628	0.465229
41160	-1.019358	0.931156	-0.080408	0.815115	-0.288366	-0.187927	0.465956
41161	-1.568527	0.900143	-0.154696	0.819030	-0.278993	-0.180679	0.467662
41162	-0.761730	1.598167	0.949712	0.821497	-0.269851	-0.176138	0.470425
41163	0.365735	0.744548	1.543263	0.822288	-0.264652	-0.172994	0.473155
41164	0.770893	0.539473	2.545587	0.823549	-0.257205	-0.167126	0.477160
41165	0.346838	0.376993	3.325698	0.824836	-0.251087	-0.159741	0.480713
41166	-1.161164	-1.474042	2.962373	0.824498	-0.249179	-0.153469	0.484315
41167	-1.068506	-1.605339	2.925730	0.823680	-0.245434	-0.149225	0.488922
41168	0.274200	-2.199283	3.969962	0.822461	-0.243322	-0.146673	0.492787
41169	1.441510	-4.731454	5.432611	0.822701	-0.238935	-0.140643	0.496279
41170	0.268721	-4.693689	9.021047	0.824976	-0.231417	-0.129323	0.499135
41171	-1.515865	-3.768198	11.741815	0.827139	-0.225667	-0.120010	0.500512
41172	-1.839389	-4.584646	11.092098	0.828612	-0.221823	-0.115545	0.500845
41173	-0.534332	-4.672692	11.279392	0.829852	-0.219636	-0.113100	0.500314
41174	-0.155974	-5.020440	11.989657	0.831616	-0.218266	-0.109575	0.498767
41175	-1.248042	-4.771511	14.767999	0.834137	-0.216446	-0.105091	0.496309
41176	-2.044418	-5.812776	15.989242	0.836305	-0.217285	-0.104049	0.492498
41177	-2.083576	-6.380917	16.809997	0.838463	-0.219938	-0.104804	0.487466
41178	-1.460640	-8.093237	18.122837	0.838618	-0.228339	-0.111131	0.481903
41179	0.797914	-9.280104	19.381968	0.839350	-0.233412	-0.116925	0.476801
41180	1.090675	-10.085223	22.621418	0.840738	-0.238384	-0.120716	0.470914
41181	1.082814	-14.139985	24.689643	0.841539	-0.246599	-0.123742	0.464423
41182	1.724001	-17.861433	26.057751	0.842357	-0.253724	-0.125990	0.458459
41183	1.696588	-18.553880	25.797759	0.844082	-0.257810	-0.124788	0.453306
41184	-0.069282	-16.317440	25.409025	0.845950	-0.261582	-0.121679	0.448483
41185	-1.833890	-17.081423	22.881103	0.847360	-0.266895	-0.117814	0.443698
41186	-1.823332	-16.564265	20.649446	0.848761	-0.271114	-0.114961	0.439188
41187	-1.349377	-13.734576	19.195438	0.851006	-0.272302	-0.111704	0.434928
41188	-1.960650	-10.157555	17.838409	0.853477	-0.272566	-0.107760	0.430897
41189	-2.420901	-7.246828	15.923854	0.855437	-0.272946	-0.104122	0.427653
41190	-2.101764	-5.757512	14.465877	0.856460	-0.274861	-0.101570	0.424983
41191	-2.712009	-5.548888	13.699963	0.856687	-0.278951	-0.100011	0.422222
41192	-3.523320	-6.665123	12.626724	0.856352	-0.286587	-0.101108	0.417501
41193	-1.914338	-7.631274	11.797273	0.856919	-0.293703	-0.103888	0.410653
41194	-0.519859	-6.962605	11.025040	0.858380	-0.300421	-0.106480	0.401985
41195	0.088800	-6.163141	10.183759	0.860379	-0.307420	-0.108803	0.391666
41196	0.264018	-5.103188	8.984316	0.862739	-0.314194	-0.109853	0.380652
41197	-0.428166	-3.310958	8.933391	0.865471	-0.318858	-0.109654	0.370494
41198	-0.861312	-3.945124	8.199009	0.866442	-0.326725	-0.110790	0.360907
41199	-1.392861	-6.605654	7.175534	0.865899	-0.337218	-0.112955	0.351773
41200	-0.898307	-8.200678	6.538376	0.865822	-0.344918	-0.115324	0.343634
41201	0.082421	-7.648576	5.282431	0.866525	-0.350150	-0.116908	0.335949
41202	0.535037	-5.898146	4.054312	0.868574	-0.352283	-0.117299	0.328202
41203	0.525671	-3.345599	3.901887	0.872131	-0.351709	-0.116603	0.319518
41204	-0.124889	-1.680690	3.866556	0.875400	-0.353109	-0.115643	0.309216
41205	-0.751671	-1.942488	2.542264	0.876800	-0.358577	-0.115992	0.298647
41206	-0.443185	-1.969797	2.296980	0.878654	-0.361475	-0.116858	0.289218
41207	-0.166917	-0.433620	2.953793	0.881759	-0.360364	-0.116538	0.281171
41208	-0.479553	0.802614	3.260810	0.884152	-0.360825	-0.114695	0.273726
41209	-1.098938	1.215671	1.968742	0.884867	-0.364625	-0.112977	0.267010
41210	-1.483378	1.458169	-0.030634	0.884608	-0.369566	-0.112017	0.261423
41211	-1.636028	1.497669	0.167755	0.883436	-0.374975	-0.113036	0.257211
41212	-1.018275	0.411961	0.512901	0.880220	-0.383305	-0.117068	0.254136
41213	-0.210117	-0.876367	0.454144	0.876645	-0.391533	-0.121660	0.251781
41214	0.365558	-1.988254	0.564608	0.873858	-0.397944	-0.125323	0.249612
41215	0.939064	-3.098769	0.416017	0.872081	-0.403817	-0.125737	0.246163
41216	0.876714	-4.016829	1.616559	0.870732	-0.411870	-0.121429	0.239674
41217	1.371326	-5.005338	0.522636	0.865691	-0.426888	-0.121082	0.231700
41218	2.390105	-7.788373	-1.222779	0.861946	-0.439555	-0.120104	0.222294
41219	3.912435	-11.933607	2.517892	0.860309	-0.447115	-0.120051	0.213411
41220	4.934532	-14.570770	4.491172	0.860973	-0.450303	-0.118988	0.204439
41221	5.281324	-16.232493	4.418828	0.863092	-0.451403	-0.116286	0.194386
41222	4.038136	-15.154656	2.679694	0.869502	-0.445789	-0.110882	0.181506
41223	2.485805	-10.120761	4.724964	0.877613	-0.437042	-0.105417	0.166362
41224	1.988538	-7.610980	3.852375	0.885033	-0.428026	-0.101855	0.152104
41225	2.952877	-6.174090	3.799989	0.892146	-0.418016	-0.099786	0.139213
41226	3.873780	-5.765477	4.773959	0.896972	-0.412306	-0.097659	0.126125
41227	4.246854	-6.190762	5.349918	0.900907	-0.407998	-0.095797	0.112811
41228	4.244196	-6.141581	4.476160	0.904424	-0.404281	-0.094023	0.098657
41229	3.497037	-5.010566	3.714926	0.909792	-0.396354	-0.090576	0.083530
41230	2.454876	-2.547011	5.444360	0.918496	-0.379396	-0.086674	0.070086
41231	1.947481	1.536450	9.421377	0.927808	-0.357567	-0.086662	0.061706
41232	3.138721	5.724114	11.699444	0.933575	-0.340735	-0.093681	0.059675
41233	4.976793	4.217326	12.822533	0.934507	-0.336644	-0.098564	0.060434
41234	0.210442	-5.102167	13.956430	0.931797	-0.346055	-0.091648	0.060010
41235	-7.138411	-7.676732	8.727942	0.928410	-0.355070	-0.086810	0.066657
41236	0.102676	-5.992857	6.035642	0.922115	-0.357770	-0.115955	0.090883
41237	4.759628	-7.448454	8.522140	0.920449	-0.349694	-0.129262	0.117387
41238	-2.591077	-5.628818	14.285379	0.916742	-0.349134	-0.129498	0.144635
41239	-5.220916	-9.117411	8.949276	0.903085	-0.360672	-0.145143	0.182446
41240	-4.429082	-11.284632	4.723165	0.887603	-0.363665	-0.165466	0.229192
41241	-0.630176	-10.207886	3.997162	0.870230	-0.358844	-0.185465	0.282019
41242	-2.221812	-9.258347	3.413846	0.847478	-0.359285	-0.203386	0.333660
41243	-2.652820	-9.734371	2.362907	0.819841	-0.361159	-0.224267	0.383575
41244	-2.671271	-9.397067	1.700706	0.790454	-0.361450	-0.243593	0.430348
41245	-1.932119	-9.303796	2.130308	0.762889	-0.354171	-0.258390	0.475181
41246	-0.454225	-11.130196	3.070258	0.740536	-0.340552	-0.260729	0.517351
41247	0.383325	-8.732723	2.875900	0.723763	-0.313424	-0.251452	0.560985
41248	1.026107	-2.897111	9.222964	0.709116	-0.273675	-0.233955	0.606236
41249	2.087202	1.140764	13.673270	0.688604	-0.254628	-0.227532	0.639702
41250	-1.224713	-4.279131	9.332246	0.666965	-0.254920	-0.232026	0.660559
41251	-0.780523	-7.206048	7.815222	0.652151	-0.245714	-0.231722	0.678696
41252	1.458255	-8.700136	8.940113	0.639757	-0.238139	-0.232580	0.692754
41253	2.286613	-11.391010	7.688241	0.629965	-0.233691	-0.230784	0.703755
41254	4.151925	-9.921919	7.504602	0.624782	-0.225450	-0.222737	0.713588
41255	4.665008	-8.016655	9.314095	0.624795	-0.222553	-0.213419	0.717324
41256	1.937586	-9.865375	9.782105	0.629546	-0.228549	-0.206690	0.713244
41257	-0.003045	-11.117483	9.379286	0.640110	-0.233131	-0.195616	0.705438
41258	-0.655470	-8.848560	10.088163	0.654538	-0.236435	-0.182301	0.694583
41259	-0.396028	-7.047760	9.715373	0.670670	-0.242875	-0.171515	0.679556
41260	-0.435695	-6.600803	9.371641	0.688009	-0.251996	-0.162441	0.660874
41261	-1.074625	-6.406004	8.336419	0.706040	-0.262572	-0.153390	0.639558
41262	-2.647964	-6.495666	7.247070	0.724470	-0.273758	-0.143304	0.616168
41263	-3.946000	-6.349732	6.884539	0.743321	-0.284674	-0.132889	0.590571
41264	-3.961612	-6.878099	6.449000	0.761885	-0.296300	-0.123157	0.562645
41265	-3.949558	-7.877570	5.649015	0.780169	-0.308931	-0.113251	0.532046
41266	-4.817529	-8.810263	4.393170	0.798867	-0.321615	-0.101741	0.498021
41267	-6.386203	-8.195038	3.933186	0.818904	-0.331222	-0.087272	0.460512
41268	-7.921406	-6.639763	3.591710	0.838635	-0.340028	-0.072296	0.419340
41269	-9.324710	-5.548928	3.950320	0.857343	-0.347665	-0.057459	0.375221
41270	-9.821165	-5.282995	4.668825	0.874321	-0.355222	-0.042663	0.327964
41271	-10.542620	-5.770710	5.168584	0.889152	-0.362673	-0.027548	0.277701
41272	-10.992782	-5.780281	5.130402	0.901599	-0.368657	-0.012873	0.225932
41273	-11.114899	-4.635859	3.782238	0.911147	-0.374006	0.002045	0.172995
41274	-10.007133	-2.539790	4.800617	0.917452	-0.378701	0.015707	0.120912
41275	-8.758360	-0.475112	4.415828	0.919880	-0.384854	0.027046	0.070544
41276	-6.096185	-0.192677	4.112121	0.918745	-0.392380	0.038451	0.021639
41277	-3.402260	-1.389240	3.351033	0.914176	-0.401306	0.050481	-0.026197
41278	-1.978981	-3.171459	1.797407	0.905526	-0.412779	0.065815	-0.072826
41279	-2.081562	-5.994655	1.797969	0.895213	-0.421819	0.083256	-0.117182
41280	-2.368425	-8.132746	2.492937	0.886222	-0.423743	0.099096	-0.158850
41281	-2.224989	-6.990476	3.707017	0.880498	-0.416098	0.111113	-0.198089
41282	-1.258125	-4.260656	6.627729	0.875754	-0.404349	0.119986	-0.234862
41283	-1.738546	-2.307992	10.317204	0.870239	-0.392184	0.129735	-0.268410
41284	-3.150023	-3.074100	13.349951	0.864226	-0.381172	0.140131	-0.296958
41285	-1.613461	-7.053509	12.788152	0.859185	-0.371743	0.147873	-0.318971
41286	-0.483497	-8.908265	12.918285	0.856457	-0.360889	0.151883	-0.336411
41287	0.300220	-8.398120	13.000285	0.854784	-0.350212	0.153542	-0.350886
41288	-0.983569	-6.918606	14.208976	0.853058	-0.341211	0.155308	-0.362970
41289	-1.913965	-7.251072	14.013553	0.851524	-0.334876	0.157443	-0.371451
41290	-2.606605	-7.182458	13.968460	0.851743	-0.329112	0.157943	-0.375864
41291	-2.145342	-6.752656	13.580242	0.853126	-0.324835	0.156568	-0.377021
41292	-1.011360	-6.377335	12.636511	0.855024	-0.322315	0.153379	-0.376195
41293	-0.939137	-5.761059	11.243491	0.856843	-0.322157	0.149404	-0.373783
41294	-0.522239	-5.267868	9.803865	0.858585	-0.324342	0.144476	-0.369811
41295	0.257031	-5.114099	8.525296	0.859904	-0.328656	0.139543	-0.364799
41296	0.891133	-5.016678	7.506319	0.861038	-0.333660	0.134744	-0.359345
41297	1.091321	-4.447149	6.763107	0.862474	-0.338336	0.130047	-0.353208
41298	0.896801	-3.613987	6.755308	0.864777	-0.342039	0.124924	-0.345780
41299	0.585434	-4.041583	7.297758	0.867598	-0.345827	0.120067	-0.336544
41300	1.172309	-5.020482	7.836921	0.871265	-0.348554	0.115111	-0.325817
41301	1.134897	-5.844747	8.484148	0.874946	-0.351909	0.111128	-0.313497
41302	0.420332	-6.682910	9.267491	0.879548	-0.354202	0.106384	-0.299363
41303	-0.540451	-6.253400	10.833442	0.885598	-0.354596	0.100330	-0.282688
41304	-1.627046	-4.783693	11.847310	0.893114	-0.353768	0.092238	-0.262084
41305	-2.156116	-3.803296	13.099263	0.901579	-0.352783	0.082439	-0.236438
41306	-1.935920	-4.331905	12.922794	0.909463	-0.353789	0.072581	-0.206016
41307	-2.299493	-5.338350	11.537625	0.916918	-0.354883	0.062070	-0.171659
41308	-3.051992	-5.448957	10.344819	0.923716	-0.355500	0.049336	-0.133921
41309	-5.259350	-5.782639	7.772585	0.929335	-0.355719	0.034472	-0.092800
41310	-7.359194	-5.273356	5.391366	0.933809	-0.354331	0.015859	-0.046897
41311	-8.229371	-4.185119	2.843565	0.936012	-0.351874	-0.006552	0.004915
41312	-7.050419	-3.654933	0.822555	0.934733	-0.348441	-0.031644	0.062148
41313	-6.145517	-4.697146	-0.999776	0.929036	-0.344618	-0.056906	0.122032
41314	-5.873596	-6.316038	-2.915692	0.918456	-0.341364	-0.082197	0.182081
41315	-4.933621	-7.870318	-3.110171	0.904983	-0.333962	-0.106575	0.241074
41316	-3.245117	-7.605973	-1.581880	0.888901	-0.323685	-0.128380	0.297659
41317	-1.447352	-7.471003	-2.176279	0.870139	-0.312448	-0.148185	0.351105
41318	0.269369	-7.916052	-0.678993	0.849607	-0.300348	-0.165581	0.400677
41319	2.388873	-8.262805	-0.182585	0.828029	-0.289157	-0.180853	0.445025
41320	3.928778	-9.377177	1.764709	0.807728	-0.278445	-0.191745	0.482988
41321	4.633399	-9.280237	4.850864	0.790845	-0.268409	-0.196161	0.513850
41322	4.411978	-8.281974	7.442437	0.777666	-0.260018	-0.195831	0.537844
41323	2.989493	-7.919391	9.003357	0.767551	-0.253708	-0.193036	0.556088
41324	2.162296	-6.531119	11.255800	0.760085	-0.249009	-0.189018	0.569682
41325	1.581079	-7.810784	11.671223	0.754490	-0.247845	-0.185267	0.578787
41326	0.863082	-8.424403	12.334466	0.751323	-0.248166	-0.179933	0.584424
41327	0.220367	-8.713822	12.457067	0.750346	-0.249565	-0.174116	0.586841
41328	0.327026	-9.258773	12.565239	0.751207	-0.252312	-0.168881	0.586094
41329	0.363161	-9.892103	12.481601	0.753659	-0.256331	-0.164042	0.582566
41330	-0.087240	-9.944449	12.136869	0.757368	-0.261228	-0.159520	0.576807
41331	-0.365361	-9.200751	11.787507	0.761789	-0.266976	-0.155558	0.569389
41332	-0.621423	-8.857712	10.970867	0.766706	-0.273584	-0.152043	0.560532
41333	-0.959081	-8.960149	10.312194	0.771879	-0.281011	-0.148820	0.550534
41334	-1.259386	-9.215199	9.363164	0.777213	-0.288617	-0.145540	0.539869
41335	-1.490624	-9.307359	8.738221	0.782656	-0.295954	-0.142313	0.528780
41336	-1.869804	-8.685686	8.656477	0.788591	-0.302355	-0.138490	0.517229
41337	-2.439071	-7.891787	8.170467	0.794960	-0.308002	-0.134528	0.505050
41338	-2.816356	-6.972109	7.557693	0.801779	-0.312720	-0.130501	0.492265
41339	-2.800218	-6.318250	6.971709	0.808615	-0.317083	-0.127064	0.479015
41340	-3.056345	-6.438155	5.765217	0.815083	-0.321895	-0.124670	0.465275
41341	-3.636108	-5.589465	5.826069	0.822122	-0.324876	-0.121724	0.451391
41342	-3.994367	-4.139538	5.542338	0.829357	-0.327445	-0.118560	0.436911
41343	-4.170501	-2.740235	5.685934	0.837090	-0.328766	-0.114673	0.421953
41344	-4.151071	-2.099198	5.560003	0.844418	-0.331262	-0.110425	0.406238
41345	-4.228023	-2.309216	4.367522	0.850816	-0.333810	-0.107447	0.391328
41346	-4.746133	-2.982267	5.894213	0.856180	-0.336868	-0.105201	0.377371
41347	-4.968591	-2.665627	5.860357	0.861753	-0.337129	-0.103760	0.364637
41348	-4.502169	-1.713864	7.050837	0.867138	-0.337125	-0.101991	0.352160
41349	-4.324699	-2.011452	7.180338	0.871964	-0.338121	-0.099662	0.339735
41350	-4.530930	-2.088729	6.224263	0.875984	-0.339144	-0.097894	0.328709
41351	-4.683582	-2.598645	6.697734	0.878583	-0.340726	-0.097495	0.320145
41352	-4.843898	-2.046607	8.447581	0.880259	-0.341104	-0.098595	0.314758
41353	-4.302458	-1.376123	8.587740	0.880729	-0.342145	-0.100100	0.311822
41354	-3.760184	-1.227798	7.962196	0.880080	-0.343460	-0.102898	0.311299
41355	-3.384406	-2.093284	6.451736	0.877452	-0.347348	-0.107512	0.312838
41356	-3.242779	-4.437576	6.286249	0.872705	-0.353756	-0.113780	0.316697
41357	-2.176113	-6.243468	7.647349	0.867725	-0.357158	-0.121541	0.323605
41358	-0.862303	-7.189121	7.994360	0.862236	-0.360239	-0.129113	0.331824
41359	0.288258	-7.473010	6.997887	0.856509	-0.362370	-0.136951	0.341065
41360	1.414762	-7.532009	6.345650	0.850661	-0.363980	-0.145173	0.350455
41361	1.517674	-8.125816	6.007763	0.844667	-0.366018	-0.153476	0.359185
41362	1.695164	-7.864357	5.262936	0.838462	-0.367496	-0.162456	0.368151
41363	2.215264	-6.605617	5.714342	0.832386	-0.367064	-0.171823	0.377988
41364	2.708995	-6.136079	6.124026	0.825523	-0.367367	-0.181709	0.387988
41365	2.875619	-6.864613	6.100416	0.817919	-0.368295	-0.191660	0.398289
41366	3.131869	-7.726456	6.728098	0.810351	-0.368774	-0.201145	0.408507
41367	3.519891	-8.709070	6.090458	0.803420	-0.368454	-0.209174	0.418335
41368	3.731123	-8.734919	5.583690	0.796604	-0.368569	-0.216787	0.427296
41369	3.077989	-8.975498	4.988045	0.790122	-0.369152	-0.223993	0.435041
41370	2.594162	-8.213981	4.060466	0.784358	-0.369379	-0.230837	0.441651
41371	3.041550	-8.419970	2.782675	0.778637	-0.371330	-0.237703	0.446470
41372	3.745969	-8.749466	2.757067	0.774032	-0.373211	-0.242694	0.450208
41373	4.258900	-7.926820	3.781333	0.769730	-0.374768	-0.247281	0.453780
41374	4.235504	-7.661416	4.213413	0.764776	-0.379191	-0.251572	0.456118
41375	3.167517	-8.296346	4.344801	0.759835	-0.385098	-0.254549	0.457771
41376	2.140816	-8.829473	4.475937	0.755037	-0.390014	-0.257906	0.459666
41377	1.709229	-8.795215	5.234010	0.751268	-0.392252	-0.260772	0.462313
41378	2.112630	-6.508489	5.721507	0.748281	-0.390809	-0.264624	0.466174
41379	2.123827	-5.388207	5.665616	0.744185	-0.391221	-0.269504	0.469577
41380	2.009016	-6.036548	4.833558	0.738561	-0.393157	-0.276938	0.472505
41381	2.359647	-7.844400	4.071979	0.732383	-0.394867	-0.286508	0.474982
41382	2.806074	-8.209470	3.491136	0.727751	-0.393203	-0.294345	0.478676
41383	2.658290	-7.266295	4.636049	0.724841	-0.391350	-0.298296	0.482152
41384	2.131468	-7.248330	4.541584	0.721525	-0.390099	-0.302009	0.485814
41385	1.759454	-6.561738	4.458729	0.718977	-0.387219	-0.304174	0.490522
41386	1.670545	-5.882079	4.546150	0.715141	-0.385461	-0.307707	0.495287
41387	1.546891	-6.040983	3.987283	0.710281	-0.385393	-0.312314	0.499433
41388	0.871403	-6.400344	4.126191	0.705753	-0.385128	-0.316879	0.503166
41389	0.357229	-7.653483	3.491458	0.699609	-0.385298	-0.324579	0.506696
41390	0.780967	-8.962818	2.731902	0.693530	-0.384554	-0.332990	0.510150
41391	1.234219	-9.911604	1.763554	0.688826	-0.383317	-0.340021	0.512808
41392	1.426478	-9.940821	1.984623	0.687435	-0.380277	-0.342307	0.515412
41393	0.898455	-8.675673	3.404659	0.688490	-0.375610	-0.340333	0.518722
41394	0.014062	-7.262404	5.116465	0.689967	-0.371291	-0.336925	0.522082
41395	-0.398909	-7.167968	5.804458	0.689628	-0.370294	-0.335901	0.523895
41396	0.121414	-8.778372	5.247215	0.687960	-0.371713	-0.337300	0.524184
41397	0.508302	-9.224998	5.816387	0.689144	-0.370951	-0.334792	0.524776
41398	-0.107150	-8.163251	6.985179	0.691868	-0.369140	-0.330320	0.525303
41399	-0.708506	-7.796890	6.779957	0.693061	-0.368179	-0.328430	0.525590
41400	-0.894758	-7.963815	6.702976	0.693131	-0.368258	-0.327925	0.525757
41401	-1.034564	-8.860684	6.258135	0.691845	-0.369398	-0.329769	0.525499
41402	-0.089389	-11.031725	5.323476	0.688814	-0.372168	-0.334744	0.524379
41403	0.880288	-12.769966	4.431394	0.686879	-0.373974	-0.338248	0.523382
41404	0.956741	-12.387632	5.650211	0.688369	-0.373094	-0.336464	0.523202
41405	0.117956	-11.695023	7.555905	0.689449	-0.373315	-0.334835	0.522667
41406	-0.306774	-12.544880	7.714895	0.688371	-0.375163	-0.335995	0.522020
41407	0.392705	-13.906960	6.884033	0.686688	-0.377282	-0.338175	0.521302
41408	1.572919	-14.434829	6.725905	0.685992	-0.378554	-0.339274	0.520582
41409	1.541222	-14.324184	7.713215	0.686534	-0.379504	-0.338150	0.519907
41410	0.640706	-14.231713	8.439791	0.687300	-0.380316	-0.336432	0.519415
41411	0.681448	-14.184732	8.663139	0.687587	-0.380793	-0.335617	0.519213
41412	1.302844	-14.234947	8.659472	0.687707	-0.381689	-0.335395	0.518539
41413	1.245640	-14.143770	7.894994	0.688030	-0.382508	-0.335465	0.517460
41414	1.769259	-14.046040	7.069331	0.688146	-0.383714	-0.336463	0.515763
41415	1.836814	-14.011404	6.424562	0.688647	-0.384936	-0.336968	0.513851
41416	1.340468	-13.312472	6.595089	0.689842	-0.384903	-0.336276	0.512725
41417	1.060592	-11.718708	7.182174	0.691054	-0.384390	-0.334924	0.512362
41418	0.183167	-10.741032	7.968948	0.691004	-0.385235	-0.334884	0.511821
41419	-0.062542	-12.108848	7.255346	0.688313	-0.388277	-0.338182	0.510979
41420	0.757840	-12.851266	6.357976	0.685673	-0.391241	-0.341212	0.510252
41421	1.184487	-13.255202	5.415497	0.683294	-0.394421	-0.344161	0.509013
41422	1.665721	-13.419565	5.086739	0.682002	-0.396611	-0.346352	0.507556
41423	2.023433	-13.220511	5.156171	0.681889	-0.397611	-0.347858	0.505892
41424	1.450376	-12.077690	4.844644	0.683129	-0.397263	-0.347798	0.504533
41425	0.757429	-10.603428	4.387334	0.684482	-0.396841	-0.347488	0.503242
41426	0.714500	-9.366560	3.655694	0.685320	-0.396353	-0.347500	0.502478
41427	0.885795	-8.176286	3.107995	0.685702	-0.395907	-0.347533	0.502286
41428	1.042057	-7.637125	2.523369	0.685300	-0.396406	-0.348566	0.501725
41429	0.710428	-7.333554	1.894765	0.685858	-0.396752	-0.348319	0.500860
41430	0.260212	-6.163776	1.900411	0.688471	-0.395126	-0.345526	0.500495
41431	0.006886	-4.967065	1.311102	0.691403	-0.392388	-0.342483	0.500698
41432	-0.303441	-3.425024	0.678497	0.695334	-0.387791	-0.338148	0.501781
41433	-0.496643	-1.964856	1.384399	0.699230	-0.384936	-0.333102	0.501941
41434	-0.889372	-1.337080	2.227632	0.701397	-0.385678	-0.329736	0.500569
41435	-1.479809	-1.308802	2.639886	0.701261	-0.388930	-0.328784	0.498867
41436	-1.535883	-1.663080	2.353948	0.699793	-0.393596	-0.329395	0.496861
41437	-1.378669	-2.489286	2.177243	0.697809	-0.399363	-0.330195	0.494512
41438	-1.196735	-3.082782	2.216065	0.696370	-0.404520	-0.330058	0.492437
41439	-0.922625	-3.709441	2.268996	0.695052	-0.409962	-0.330034	0.489808
41440	-0.698653	-4.716138	2.188318	0.693403	-0.416151	-0.330352	0.486701
41441	-0.141268	-5.428463	3.064267	0.692353	-0.423552	-0.328872	0.482798
41442	0.097299	-6.026031	3.478213	0.692398	-0.431288	-0.324761	0.478650
41443	-0.246466	-6.291263	3.430919	0.693805	-0.437629	-0.318806	0.474847
41444	-0.475519	-6.505578	3.858087	0.693580	-0.445606	-0.314379	0.470689
41445	0.011417	-7.749282	3.716832	0.689740	-0.456811	-0.314283	0.465628
41446	0.061971	-10.053556	3.195899	0.685892	-0.464961	-0.315190	0.462622
41447	-0.042829	-10.944740	3.776301	0.683400	-0.467364	-0.316359	0.463091
41448	0.546046	-11.395344	3.156860	0.680873	-0.468328	-0.317857	0.464809
41449	0.832983	-10.085551	2.674029	0.679641	-0.466893	-0.317719	0.468139
41450	-0.118747	-8.380231	3.098014	0.677513	-0.465906	-0.317850	0.472101
41451	-0.327534	-9.237180	3.917036	0.672266	-0.465599	-0.321212	0.477597
41452	-0.434561	-9.630657	3.988235	0.666734	-0.461902	-0.324864	0.486390
41453	-0.330238	-9.074204	4.275275	0.660548	-0.456567	-0.328545	0.497274
41454	0.184507	-8.775713	4.179994	0.653338	-0.450378	-0.332853	0.509428
41455	0.779687	-8.101085	3.348655	0.646046	-0.441815	-0.337128	0.523229
41456	1.361123	-7.203009	3.398234	0.638216	-0.432678	-0.341210	0.537630
41457	0.904368	-7.359124	3.820775	0.628753	-0.424425	-0.346117	0.552029
41458	0.997379	-7.601793	3.809076	0.618116	-0.415893	-0.351332	0.567038
41459	1.626001	-7.823644	4.564537	0.606412	-0.409875	-0.355694	0.581162
41460	1.105013	-7.572180	4.116334	0.593484	-0.403594	-0.359778	0.596194
41461	1.202328	-5.975893	3.026289	0.578765	-0.396906	-0.363902	0.612431
41462	0.759504	-5.477748	3.763963	0.562007	-0.391297	-0.368018	0.628966
41463	1.115788	-6.400218	3.669450	0.542484	-0.387552	-0.374193	0.644589
41464	1.777672	-7.548171	3.299901	0.522235	-0.384103	-0.379538	0.660065
41465	1.802867	-6.895276	3.383519	0.503423	-0.381292	-0.381110	0.675231
41466	1.578433	-5.834581	3.828657	0.482925	-0.380742	-0.383276	0.689143
41467	0.785473	-6.511997	3.998806	0.459138	-0.383190	-0.387699	0.701461
41468	-0.400743	-8.398914	3.121065	0.433791	-0.386347	-0.390907	0.713970
41469	-0.933811	-9.101710	2.727513	0.410283	-0.388628	-0.389052	0.727512
41470	-0.767810	-9.044079	2.903592	0.388393	-0.391149	-0.385309	0.740061
41471	-0.923598	-9.066380	4.450748	0.369064	-0.394931	-0.379195	0.751021
41472	-2.310650	-8.639239	5.471742	0.350240	-0.400766	-0.371413	0.760770
41473	-3.064956	-8.028622	6.940439	0.331323	-0.407996	-0.362076	0.769847
41474	-3.775301	-7.989772	5.506988	0.309873	-0.416764	-0.353132	0.778193
41475	-4.077601	-7.233908	4.727780	0.289583	-0.424533	-0.340537	0.787368
41476	-5.580727	-5.230699	4.676540	0.269673	-0.433637	-0.328043	0.794747
41477	-7.407862	-6.469971	4.824032	0.249446	-0.443052	-0.318144	0.800166
41478	-8.020900	-7.595347	4.116586	0.230862	-0.450492	-0.308195	0.805466
41479	-7.800810	-6.658650	3.004177	0.214219	-0.455878	-0.297421	0.811065
41480	-8.010358	-4.900981	3.398633	0.197492	-0.460761	-0.288578	0.815732
41481	-7.923635	-4.628736	3.432563	0.179120	-0.465230	-0.284530	0.818852
41482	-6.833178	-6.364429	2.439201	0.159329	-0.469048	-0.283614	0.821079
41483	-5.493610	-7.069331	2.156400	0.141702	-0.471665	-0.278859	0.824433
41484	-4.713098	-5.229706	2.402213	0.126508	-0.473631	-0.269973	0.828725
41485	-5.010578	-2.992946	1.998115	0.111724	-0.475232	-0.260660	0.832904
41486	-5.610393	-0.658401	1.960247	0.097118	-0.476212	-0.250477	0.837288
41487	-5.689112	1.615851	2.115978	0.081093	-0.476433	-0.241719	0.841432
41488	-6.383414	1.695358	3.445087	0.063399	-0.476626	-0.235388	0.844630
41489	-6.887023	0.043611	4.642399	0.044177	-0.476836	-0.231147	0.846904
41490	-6.934129	-2.089383	4.589477	0.024530	-0.476788	-0.227611	0.848684
41491	-5.855421	-3.234615	4.212916	0.006245	-0.475420	-0.223303	0.850925
41492	-6.187255	-3.334136	4.319419	-0.009309	-0.473611	-0.217942	0.853292
41493	-8.420971	-3.119016	5.752236	-0.023043	-0.471298	-0.213154	0.855519
41494	-11.360034	-2.399354	4.821175	-0.036724	-0.468289	-0.209221	0.857661
41495	-12.950662	-0.247832	3.934894	-0.051035	-0.463387	-0.205650	0.860451
41496	-12.750942	0.844149	2.959267	-0.066755	-0.456248	-0.203328	0.863736
41497	-12.768603	0.634581	3.498867	-0.083775	-0.447427	-0.202350	0.867090
41498	-11.645417	-0.273519	4.004097	-0.101724	-0.437567	-0.202105	0.870253
41499	-9.568144	-1.201862	2.973877	-0.120474	-0.427101	-0.202858	0.872880
41500	-9.076025	-4.690370	3.196124	-0.139179	-0.417915	-0.203992	0.874279
41501	-8.484295	-7.794082	6.002505	-0.154720	-0.412819	-0.202875	0.874348
41502	-7.930439	-8.636285	7.288204	-0.164818	-0.413278	-0.199154	0.873141
41503	-9.946115	-5.595499	7.333066	-0.169274	-0.416994	-0.192584	0.871994
41504	-12.646778	-2.202583	8.073779	-0.171764	-0.420777	-0.187083	0.870887
41505	-15.222877	-0.647255	8.402938	-0.175540	-0.422681	-0.183955	0.869878
41506	-15.844683	-3.637970	7.840141	-0.181778	-0.422519	-0.183116	0.868852
41507	-14.105328	-7.238021	7.088699	-0.186470	-0.422003	-0.180465	0.868663
41508	-11.960391	-7.555712	8.108199	-0.187434	-0.421996	-0.177648	0.869039
41509	-10.618513	-6.743802	8.532902	-0.184131	-0.423160	-0.175980	0.869519
41510	-11.074326	-3.919049	8.343718	-0.177645	-0.424823	-0.176416	0.869969
41511	-11.932387	-3.357672	6.788382	-0.169589	-0.426611	-0.178987	0.870176
41512	-12.385620	-3.244959	6.627260	-0.160087	-0.428959	-0.182362	0.870121
41513	-12.933329	-4.489408	6.135653	-0.149235	-0.432136	-0.186808	0.869535
41514	-13.138023	-5.277978	6.410717	-0.135842	-0.436313	-0.191204	0.868688
41515	-13.330766	-3.751906	7.038986	-0.119337	-0.440834	-0.196319	0.867688
41516	-13.362927	-3.164389	6.043405	-0.101125	-0.444612	-0.205124	0.866036
41517	-13.385161	-4.127602	5.742357	-0.080748	-0.447942	-0.215959	0.863823
41518	-13.676287	-4.522149	5.559452	-0.058406	-0.450982	-0.227970	0.860949
41519	-13.379141	-5.161912	5.624187	-0.034370	-0.453439	-0.241189	0.857344
41520	-12.477016	-5.881843	5.453087	-0.008996	-0.455375	-0.254606	0.853070
41521	-11.445920	-4.797743	5.500328	0.017754	-0.456969	-0.267405	0.848150
41522	-10.296292	-3.070319	5.229800	0.044970	-0.458463	-0.281007	0.841917
41523	-9.477613	-2.279168	4.282676	0.071729	-0.460317	-0.297225	0.833439
41524	-8.454621	-3.468394	4.234786	0.098097	-0.462286	-0.315757	0.822780
41525	-7.390722	-5.243763	2.049060	0.124468	-0.464232	-0.335452	0.810227
41526	-5.931615	-6.017297	1.098309	0.152561	-0.465521	-0.353503	0.796901
41527	-5.066470	-5.346877	0.293780	0.182391	-0.465910	-0.369017	0.783255
41528	-4.161294	-3.965259	-0.525008	0.212963	-0.465489	-0.382757	0.769067
41529	-3.832805	-3.956525	-0.169048	0.243960	-0.464814	-0.395473	0.753680
41530	-4.050897	-3.525797	0.774738	0.275300	-0.463187	-0.406851	0.737658
41531	-3.985550	-2.439252	0.463700	0.306353	-0.460655	-0.416760	0.721287
41532	-2.674016	-0.490163	2.300195	0.335927	-0.456488	-0.424131	0.706317
41533	-1.334536	0.384942	2.324449	0.360694	-0.453284	-0.431551	0.691519
41534	-0.860595	-0.883716	-0.155367	0.379916	-0.452380	-0.439687	0.676529
41535	-0.818174	-3.685777	-0.098455	0.396097	-0.453194	-0.446626	0.662003
41536	-1.223084	-5.660831	0.206221	0.411213	-0.453743	-0.451842	0.648737
41537	-1.587014	-6.576930	0.557665	0.426766	-0.453404	-0.454172	0.637199
41538	-2.074158	-6.628886	1.620595	0.441298	-0.453552	-0.455971	0.625809
41539	-2.180758	-8.679987	0.682171	0.454451	-0.454304	-0.458043	0.614230
41540	-1.412266	-10.529114	-0.617608	0.468898	-0.453187	-0.457051	0.604864
41541	-0.746372	-10.020103	0.439157	0.485803	-0.450333	-0.452480	0.597040
41542	-0.611892	-8.659392	1.706972	0.502384	-0.448024	-0.448419	0.588053
41543	-1.103856	-8.967872	1.416862	0.517832	-0.446980	-0.445253	0.577762
41544	-1.433254	-9.889337	1.113680	0.533091	-0.445888	-0.440480	0.568310
41545	-0.686481	-10.282806	0.945701	0.547488	-0.444298	-0.434676	0.560279
41546	-0.334668	-10.947631	0.838835	0.561860	-0.442530	-0.427149	0.553195
41547	-0.559941	-10.511282	0.818254	0.576149	-0.440219	-0.418235	0.547119
41548	-1.203578	-9.661025	1.334534	0.590218	-0.438178	-0.407761	0.541640
41549	-2.096266	-9.445523	1.940772	0.602241	-0.437560	-0.398014	0.536127
41550	-2.773120	-10.663396	1.638979	0.611931	-0.438830	-0.388660	0.530955
41551	-3.451378	-11.313639	2.081623	0.620434	-0.440396	-0.378709	0.526966
41552	-3.366236	-11.127789	2.335423	0.628963	-0.441306	-0.367791	0.523818
41553	-2.527329	-9.691971	2.503766	0.638140	-0.440977	-0.356685	0.520666
41554	-1.462906	-8.324358	1.994729	0.647736	-0.440519	-0.346320	0.516181
41555	-1.106079	-6.997033	2.513904	0.657255	-0.441329	-0.337138	0.509492
41556	-1.373014	-6.777394	3.911356	0.664595	-0.444239	-0.330530	0.501712
41557	-1.466203	-7.013518	3.476967	0.670888	-0.446580	-0.324349	0.495251
41558	-1.674140	-6.579203	4.604613	0.677045	-0.446494	-0.318067	0.491005
41559	-1.074765	-7.095462	6.095513	0.680414	-0.447789	-0.314423	0.487503
41560	0.240445	-8.858259	6.124689	0.682322	-0.450545	-0.311316	0.484281
41561	1.670324	-10.389746	5.845707	0.684286	-0.454834	-0.307123	0.480160
41562	2.126501	-10.903300	5.794905	0.688580	-0.459105	-0.300247	0.474270
41563	1.752964	-10.419067	5.869837	0.695616	-0.462782	-0.291202	0.465997
41564	0.623949	-9.959922	6.291824	0.704405	-0.465572	-0.280772	0.456315
41565	-1.436239	-8.524552	7.358613	0.713091	-0.467878	-0.271330	0.446062
41566	-1.755835	-7.646212	6.798967	0.719995	-0.470076	-0.264971	0.436379
41567	-0.977935	-6.831310	6.098614	0.725095	-0.472340	-0.261479	0.427505
41568	0.673164	-6.565565	5.576068	0.728769	-0.474934	-0.259941	0.419242
41569	1.908137	-6.954858	5.143376	0.732008	-0.477812	-0.258579	0.411092
41570	2.594980	-7.255340	4.450372	0.735299	-0.481144	-0.256395	0.402613
41571	2.736407	-7.843801	3.525431	0.738772	-0.485436	-0.252886	0.393214
41572	2.082408	-9.045192	3.173145	0.742735	-0.490223	-0.247893	0.382851
41573	0.933421	-9.735901	3.240088	0.747739	-0.493904	-0.241516	0.372309
41574	0.654500	-8.913396	4.040673	0.753788	-0.495527	-0.234438	0.362347
41575	1.068898	-7.543469	4.626473	0.759807	-0.496766	-0.227298	0.352495
41576	1.070924	-7.510359	5.179265	0.765123	-0.498952	-0.220012	0.342387
41577	0.658721	-7.934384	5.445990	0.770006	-0.501109	-0.212408	0.332962
41578	0.286917	-8.166188	5.453505	0.774195	-0.503262	-0.205331	0.324327
41579	0.230849	-8.857853	5.161927	0.777893	-0.505721	-0.198800	0.315605
41580	0.089183	-8.696884	5.223483	0.781878	-0.507903	-0.192107	0.306261
41581	0.401065	-8.267906	5.595712	0.784983	-0.511305	-0.186305	0.296074
41582	1.629690	-9.013522	4.636832	0.787343	-0.516120	-0.180925	0.284567
41583	1.799069	-9.219782	3.843727	0.791549	-0.519384	-0.173299	0.271399
41584	1.484599	-8.870634	3.399761	0.795942	-0.523008	-0.164509	0.256664
41585	1.188394	-9.038271	3.226275	0.800762	-0.526496	-0.154342	0.240334
41586	0.742718	-8.697635	3.622119	0.806587	-0.528611	-0.142689	0.222771
41587	0.019116	-7.974909	4.530532	0.812330	-0.530477	-0.130258	0.204322
41588	-0.988378	-7.269677	5.290896	0.817345	-0.532737	-0.117512	0.185282
41589	-1.358860	-7.131665	5.201652	0.821421	-0.534975	-0.105737	0.166998
41590	-1.746565	-7.068741	5.419737	0.824912	-0.536753	-0.094646	0.149863
41591	-1.678933	-6.730342	5.726271	0.827311	-0.538918	-0.084507	0.134102
41592	-1.344431	-6.956976	5.757590	0.828606	-0.541695	-0.075344	0.119589
41593	-1.085743	-7.484617	5.386279	0.829330	-0.544468	-0.067058	0.106155
41594	-0.959131	-7.868891	5.284214	0.830064	-0.546558	-0.059336	0.093524
41595	-0.821425	-8.077601	5.171271	0.830522	-0.548507	-0.052116	0.081595
41596	-0.846358	-8.380775	4.872088	0.831032	-0.549889	-0.045309	0.070391
41597	-0.970675	-8.501853	4.802501	0.831801	-0.550458	-0.038983	0.059866
41598	-0.979313	-8.566939	4.599400	0.832572	-0.550652	-0.033213	0.050028
41599	-0.968207	-8.808611	4.516976	0.833100	-0.550893	-0.028029	0.040931
41600	-0.742896	-8.827115	4.650667	0.833781	-0.550683	-0.022799	0.032211
41601	-0.775016	-8.896217	4.623580	0.834825	-0.549721	-0.017428	0.023864
41602	-0.728354	-9.218079	4.783103	0.836346	-0.547837	-0.011992	0.015977
41603	-0.557874	-9.464006	4.722774	0.838352	-0.545031	-0.006154	0.008292
41604	-0.860728	-9.788169	4.283647	0.840972	-0.541078	-0.000051	0.000789
41605	-0.688320	-8.959198	4.042940	0.844139	-0.536057	0.005602	-0.006331
41606	-0.706695	-8.668438	4.137491	0.846858	-0.531529	0.011459	-0.013329
41607	-0.918557	-9.310095	4.222950	0.849462	-0.526998	0.017201	-0.019803
41608	-0.983035	-9.595066	4.373456	0.852276	-0.521965	0.022851	-0.025620
41609	-1.232858	-9.793474	4.289256	0.854771	-0.517338	0.028102	-0.030623
41610	-1.217897	-10.148044	4.315261	0.856659	-0.513642	0.032798	-0.035094
41611	-1.342388	-10.770322	4.293212	0.858333	-0.510192	0.037353	-0.039661
41612	-1.064601	-10.871599	4.130509	0.860054	-0.506490	0.041905	-0.044933
41613	-0.608472	-10.309773	3.988400	0.861419	-0.503168	0.046442	-0.051206
41614	-0.507018	-9.866183	4.106853	0.862650	-0.499748	0.051129	-0.058922
41615	-0.806806	-9.467179	4.035426	0.863355	-0.496851	0.056263	-0.067768
41616	-1.257858	-9.360299	3.814346	0.863526	-0.494591	0.061487	-0.076958
41617	-1.307927	-9.316212	3.976312	0.863147	-0.493100	0.066446	-0.086110
41618	-1.221426	-9.154591	4.277663	0.862653	-0.491517	0.071568	-0.095493
41619	-1.231088	-8.778303	4.486342	0.861882	-0.490098	0.076850	-0.105152
41620	-1.369750	-8.379978	4.740973	0.860853	-0.488840	0.082141	-0.114982
41621	-1.556451	-7.864086	4.861365	0.859598	-0.487762	0.087237	-0.124773
41622	-1.726417	-7.694022	4.666138	0.858058	-0.487199	0.091639	-0.134073
41623	-1.763735	-7.580802	4.471653	0.856415	-0.486902	0.095315	-0.142809
41624	-1.626423	-7.666015	4.371926	0.854519	-0.487167	0.098609	-0.150802
41625	-1.468286	-7.613280	4.383615	0.852418	-0.487878	0.101636	-0.158208
41626	-1.228042	-7.558415	4.383870	0.849946	-0.489254	0.104554	-0.165203
41627	-1.262376	-7.572001	4.628979	0.847003	-0.491369	0.107627	-0.171927
41628	-1.638859	-8.090934	4.519899	0.843956	-0.493722	0.110534	-0.178213
41629	-1.612081	-8.143237	4.496510	0.840727	-0.496495	0.113061	-0.184090
41630	-1.399363	-8.208027	4.050070	0.837370	-0.499510	0.115473	-0.189653
41631	-1.248528	-8.071832	3.993169	0.833972	-0.502471	0.118062	-0.195127
41632	-1.097119	-7.879479	3.861309	0.830410	-0.505622	0.120732	-0.200472
41633	-1.069052	-7.872915	3.685408	0.826689	-0.509019	0.123423	-0.205553
41634	-0.907433	-7.999392	3.563851	0.822846	-0.512654	0.126231	-0.210180
41635	-1.135928	-8.498501	3.352107	0.818690	-0.516870	0.129235	-0.214219
41636	-1.360735	-9.177798	3.291737	0.814426	-0.521238	0.132415	-0.217917
41637	-1.122409	-9.558755	2.410204	0.810822	-0.524550	0.135493	-0.221486
41638	-0.755232	-9.324087	2.462091	0.808172	-0.526373	0.138412	-0.225014
41639	-0.536488	-9.104122	2.509300	0.806031	-0.527285	0.141364	-0.228694
41640	-0.472216	-8.985820	2.437173	0.804018	-0.527744	0.144292	-0.232852
41641	-0.519567	-9.094387	2.499799	0.801510	-0.528759	0.147393	-0.237216
41642	-0.244055	-9.845734	2.629490	0.798299	-0.530610	0.151142	-0.241513
41643	-0.575314	-10.061973	2.551238	0.795162	-0.531525	0.156205	-0.246572
41644	-1.551637	-9.781300	2.204810	0.792532	-0.531176	0.161622	-0.252238
41645	-2.050014	-9.356771	2.432849	0.790750	-0.529787	0.166351	-0.257618
41646	-1.972391	-9.194849	3.208882	0.788861	-0.529054	0.170893	-0.261909
41647	-1.968166	-9.173597	3.049515	0.787158	-0.527929	0.175954	-0.265918
41648	-2.130852	-8.688680	3.133625	0.785629	-0.526790	0.180580	-0.269575
41649	-1.990309	-8.983631	3.088190	0.783828	-0.526548	0.184547	-0.272584
41650	-1.829356	-9.055936	3.027488	0.782398	-0.525584	0.188359	-0.275928
41651	-1.622117	-8.827020	3.361570	0.781251	-0.523629	0.192655	-0.279900
41652	-1.514056	-8.434818	3.385869	0.779698	-0.521647	0.198318	-0.283947
41653	-1.932941	-8.739035	3.164020	0.778053	-0.519828	0.204306	-0.287526
41654	-2.077658	-8.799074	3.177903	0.777320	-0.517345	0.209017	-0.290585
41655	-1.566948	-9.307404	4.126511	0.776253	-0.516200	0.213026	-0.292555
41656	-0.587361	-11.351778	4.918453	0.775344	-0.516179	0.215963	-0.292850
41657	-0.140860	-11.535910	4.600243	0.775845	-0.513427	0.219083	-0.294041
41658	0.121656	-8.427162	4.521864	0.776351	-0.510116	0.221141	-0.296913
41659	1.411257	-8.129921	3.808838	0.774539	-0.511125	0.222071	-0.299207
41660	2.383818	-8.855097	3.161365	0.772936	-0.511517	0.223332	-0.301735
41661	2.108764	-8.828472	3.485846	0.771626	-0.511017	0.225538	-0.304282
41662	1.558851	-9.176900	4.045247	0.770070	-0.510633	0.228565	-0.306601
41663	0.976633	-9.577627	4.221600	0.768613	-0.509925	0.232018	-0.308834
41664	0.729404	-9.899046	4.359150	0.767106	-0.508928	0.236078	-0.311140
41665	0.393417	-9.805758	4.028741	0.765256	-0.507804	0.240956	-0.313781
41666	0.159719	-9.981121	3.528495	0.763062	-0.507043	0.246182	-0.316288
41667	0.209698	-10.235096	3.619661	0.760979	-0.505885	0.251583	-0.318902
41668	0.331988	-10.007812	3.671658	0.758953	-0.504224	0.257155	-0.321902
41669	0.323463	-9.397645	3.623885	0.756923	-0.502065	0.262532	-0.325693
41670	-0.068526	-8.966777	3.697306	0.754391	-0.500297	0.267833	-0.329943
41671	-0.501392	-8.508049	3.557602	0.751241	-0.499664	0.272756	-0.334032
41672	0.192839	-8.984759	3.263413	0.747449	-0.500528	0.277232	-0.337542
41673	0.821685	-9.022271	2.977528	0.743672	-0.500823	0.281522	-0.341869
41674	0.711215	-8.886024	2.929291	0.739639	-0.501048	0.285737	-0.346756
41675	0.363445	-8.735716	2.764084	0.735998	-0.500913	0.288756	-0.352156
41676	0.576029	-8.764830	2.840849	0.732342	-0.500910	0.291004	-0.357885
41677	1.216633	-9.432620	2.395992	0.728414	-0.501201	0.293120	-0.363719
41678	1.416494	-9.275677	2.299482	0.724949	-0.500332	0.294957	-0.370293
41679	0.973753	-8.862077	2.782826	0.721168	-0.499507	0.296942	-0.377141
41680	0.554634	-8.856756	3.037310	0.716910	-0.499178	0.299072	-0.383950
41681	0.415901	-9.335607	3.105173	0.712135	-0.499371	0.301647	-0.390515
41682	0.440141	-9.316809	2.989299	0.707429	-0.499173	0.304499	-0.397053
41683	0.200691	-9.048765	2.568255	0.702719	-0.498995	0.307728	-0.403104
41684	0.259446	-9.263742	2.174339	0.698038	-0.499345	0.311125	-0.408165
41685	0.734889	-9.805039	2.107986	0.693925	-0.499140	0.314468	-0.412841
41686	0.704372	-9.631378	2.030069	0.690595	-0.497870	0.317584	-0.417546
41687	0.336850	-9.355303	2.134288	0.687818	-0.496054	0.320427	-0.422094
41688	0.281262	-9.227188	2.079234	0.685466	-0.494591	0.322766	-0.425839
41689	0.227692	-9.379165	1.846194	0.683295	-0.493169	0.325082	-0.429200
41690	0.153958	-9.491804	1.800839	0.681588	-0.491572	0.326857	-0.432388
41691	0.394902	-9.420908	1.937711	0.680315	-0.489728	0.328103	-0.435531
41692	0.680486	-9.331523	2.189922	0.679351	-0.487545	0.329017	-0.438783
41693	0.681050	-9.268067	2.575419	0.678466	-0.484798	0.330023	-0.442425
41694	0.464507	-9.221913	2.570700	0.677787	-0.481261	0.330936	-0.446625
41695	0.353486	-9.227326	2.589139	0.677336	-0.477326	0.331554	-0.451051
41696	0.302319	-9.205602	2.697019	0.676967	-0.473357	0.331945	-0.455480
41697	0.234797	-9.357704	2.679338	0.676346	-0.469823	0.332431	-0.459687
41698	0.205171	-9.328510	2.729970	0.675764	-0.466035	0.332804	-0.464109
41699	0.200380	-9.168891	2.698019	0.675067	-0.462293	0.333167	-0.468582
41700	0.295605	-9.093155	2.708676	0.674341	-0.458724	0.333351	-0.472984
41701	0.284741	-9.166747	2.588483	0.673600	-0.455294	0.333436	-0.477275
41702	0.268195	-9.128888	2.683186	0.672830	-0.451658	0.333652	-0.481645
41703	0.481210	-9.059424	2.721490	0.671978	-0.448330	0.333935	-0.485730
41704	0.595746	-9.283614	2.629642	0.671074	-0.444939	0.334263	-0.489855
41705	0.432079	-9.252019	2.879515	0.670138	-0.441189	0.334681	-0.494223
41706	0.323550	-9.093544	3.285636	0.668913	-0.437965	0.335361	-0.498272
41707	0.264606	-8.826489	3.497656	0.667269	-0.435217	0.336673	-0.501986
41708	0.035342	-9.013280	3.589135	0.665069	-0.433823	0.338861	-0.504632
41709	-0.036228	-9.839655	3.675773	0.662456	-0.433748	0.341829	-0.506130
41710	0.167768	-10.537250	3.829196	0.659904	-0.433539	0.344986	-0.507499
41711	0.259283	-11.086781	3.988139	0.657384	-0.432857	0.348187	-0.509163
41712	0.178425	-11.665408	4.286918	0.655015	-0.431790	0.351178	-0.511065
41713	-0.080981	-11.707563	4.720912	0.652982	-0.429749	0.353794	-0.513577
41714	-0.453229	-11.441296	4.922453	0.650969	-0.427894	0.356265	-0.515967
41715	-0.819417	-10.697522	4.879185	0.649108	-0.425883	0.358466	-0.518444
41716	-0.987711	-9.477966	4.710693	0.647155	-0.424488	0.360414	-0.520674
41717	-0.918318	-8.613113	4.372025	0.645169	-0.423756	0.362157	-0.522524
41718	-0.785072	-7.969666	4.191827	0.643265	-0.423378	0.363654	-0.524135
41719	-0.594273	-7.587530	4.104121	0.641346	-0.423544	0.364985	-0.525425
41720	-0.498380	-7.498461	4.109458	0.639591	-0.423844	0.365935	-0.526660
41721	-0.491613	-7.586790	4.200007	0.637966	-0.424121	0.366768	-0.527827
41722	-0.632917	-7.938509	4.246154	0.636621	-0.424176	0.367278	-0.529052
41723	-0.774927	-8.121975	4.213288	0.635620	-0.423796	0.367315	-0.530532
41724	-0.749578	-8.107256	4.325601	0.634713	-0.423496	0.367088	-0.532012
41725	-0.897433	-7.992727	4.406166	0.633775	-0.423080	0.366730	-0.533706
41726	-1.017781	-7.883958	4.541367	0.632707	-0.422890	0.366430	-0.535328
41727	-1.078039	-7.960876	4.673599	0.631413	-0.422964	0.366357	-0.536843
41728	-1.182816	-8.141503	4.590337	0.630021	-0.423189	0.366534	-0.538179
41729	-1.218403	-8.506571	4.475011	0.628727	-0.423361	0.366854	-0.539339
41730	-1.116518	-9.000913	4.543104	0.627534	-0.423237	0.367401	-0.540452
41731	-1.132086	-9.320025	4.631940	0.626562	-0.422533	0.367909	-0.541783
41732	-1.395640	-9.349523	4.645976	0.625851	-0.421376	0.368271	-0.543259
41733	-1.328801	-9.231722	4.550348	0.625401	-0.420800	0.368213	-0.544261
41734	-0.929305	-9.238975	4.140229	0.625044	-0.420773	0.367910	-0.544897
41735	-0.779150	-8.745023	4.168496	0.625008	-0.420478	0.367077	-0.545727
41736	-0.862690	-8.329552	4.211136	0.625100	-0.420310	0.366088	-0.546415
41737	-0.975878	-8.014372	4.252509	0.625314	-0.420401	0.364889	-0.546902
41738	-0.947870	-7.923183	4.189576	0.625534	-0.421026	0.363731	-0.546941
41739	-0.876638	-7.997391	4.055782	0.625734	-0.422000	0.362738	-0.546620
41740	-0.639375	-8.451130	4.157040	0.625842	-0.423350	0.361982	-0.545954
41741	-0.581386	-8.723816	4.155928	0.625924	-0.424700	0.361255	-0.545292
41742	-0.580118	-8.653082	4.133615	0.625899	-0.425908	0.360576	-0.544828
41743	-0.663653	-8.483830	4.183818	0.625681	-0.427346	0.359941	-0.544373
