// Start Time: Unknown
// Update Rate: 60.0Hz
// Filter Profile: human (46.1)
// Option Flags: AHS Disabled ICC Disabled 
// Firmware Version: 4.3.5
PacketCounter	Acc_X	Acc_Y	Acc_Z	Quat_q0	Quat_q1	Quat_q2	Quat_q3
43442	0.622796	-8.826313	3.984573	0.689565	-0.422958	-0.339766	0.479756
43443	0.626726	-8.910623	3.984493	0.689506	-0.423020	-0.339908	0.479685
43444	0.598526	-8.862976	4.041591	0.689548	-0.422898	-0.339983	0.479680
43445	0.626112	-8.825928	3.984907	0.689598	-0.422895	-0.339996	0.479601
43446	0.619733	-8.876844	4.016642	0.689618	-0.422893	-0.340042	0.479542
43447	0.651978	-8.841539	4.006671	0.689739	-0.422803	-0.339923	0.479531
43448	0.529638	-8.803907	4.055094	0.689799	-0.422728	-0.339875	0.479546
43449	0.720049	-8.819126	3.984502	0.689777	-0.422737	-0.339942	0.479521
43450	0.670262	-8.835587	4.056347	0.689858	-0.422769	-0.339802	0.479476
43451	0.520416	-8.835845	4.016697	0.689937	-0.422785	-0.339634	0.479466
43452	0.692340	-8.833611	4.005228	0.689915	-0.422835	-0.339654	0.479440
43453	0.639810	-8.792314	3.985960	0.689951	-0.422874	-0.339571	0.479412
43454	0.563597	-8.748766	4.053839	0.689957	-0.422973	-0.339537	0.479341
43455	0.662081	-8.888400	3.992780	0.689952	-0.423053	-0.339522	0.479288
43456	0.654479	-8.922473	3.949564	0.689989	-0.423174	-0.339466	0.479167
43457	0.639023	-8.884866	3.966671	0.690079	-0.423331	-0.339334	0.478992
43458	0.604299	-8.868575	4.012602	0.690125	-0.423498	-0.339346	0.478770
43459	0.705617	-8.823604	3.950558	0.690135	-0.423973	-0.339355	0.478330
43460	0.498627	-8.851682	4.021289	0.690306	-0.424393	-0.339086	0.477901
43461	0.503709	-8.862642	4.045641	0.690402	-0.424599	-0.339039	0.477612
43462	0.707346	-8.873161	3.972210	0.690541	-0.424798	-0.338902	0.477332
43463	0.557869	-8.801822	4.069065	0.690743	-0.424905	-0.338620	0.477144
43464	0.522757	-8.741234	3.989863	0.690864	-0.424882	-0.338470	0.477096
43465	0.581233	-8.818087	3.946849	0.690774	-0.425048	-0.338509	0.477050
43466	0.615658	-8.893998	3.988357	0.690721	-0.425183	-0.338544	0.476981
43467	0.655062	-8.982650	4.023734	0.690736	-0.425432	-0.338524	0.476753
43468	0.507999	-8.876925	3.970826	0.690854	-0.425459	-0.338349	0.476681
43469	0.536983	-8.834880	3.978393	0.690840	-0.425687	-0.338307	0.476528
43470	0.625295	-8.764948	3.901674	0.690901	-0.425608	-0.338133	0.476634
43471	0.675808	-8.766997	3.953013	0.690864	-0.425800	-0.338001	0.476609
43472	0.679722	-9.023392	3.919590	0.690828	-0.426187	-0.337864	0.476413
43473	0.505864	-9.048981	3.872291	0.691004	-0.426339	-0.337519	0.476266
43474	0.527753	-8.755491	3.927773	0.691176	-0.426415	-0.337172	0.476194
43475	0.603713	-8.983404	3.939149	0.691297	-0.426621	-0.336815	0.476088
43476	0.460715	-8.811015	4.086684	0.691345	-0.426656	-0.336548	0.476175
43477	0.547479	-8.935049	3.988616	0.691240	-0.426690	-0.336556	0.476290
43478	0.690785	-8.912142	3.944426	0.691132	-0.426779	-0.336604	0.476333
43479	0.619860	-8.987418	3.900716	0.691164	-0.427028	-0.336477	0.476154
43480	0.585122	-8.852786	3.990249	0.691367	-0.427136	-0.336172	0.475977
43481	0.534509	-8.822851	3.967573	0.691551	-0.427275	-0.335733	0.475896
43482	0.445331	-8.486636	4.066474	0.691627	-0.427265	-0.335342	0.476070
43483	0.631988	-8.837559	3.877269	0.691358	-0.427449	-0.335393	0.476260
43484	0.661294	-9.055106	4.155379	0.691357	-0.427898	-0.335011	0.476126
43485	0.694214	-9.071372	3.852313	0.691461	-0.428192	-0.334452	0.476103
43486	0.343879	-8.587915	3.909255	0.691806	-0.428231	-0.333369	0.476327
43487	0.477008	-8.692826	3.968677	0.691515	-0.428563	-0.333296	0.476503
43488	0.751642	-8.841042	3.956063	0.691222	-0.428894	-0.333283	0.476639
43489	0.711168	-9.111593	3.959700	0.691212	-0.429271	-0.332822	0.476636
43490	0.372689	-8.924930	3.996701	0.691297	-0.429412	-0.332191	0.476826
43491	0.491785	-8.825237	3.927105	0.691144	-0.429394	-0.332026	0.477179
43492	0.653611	-8.891075	3.913046	0.690964	-0.429525	-0.331882	0.477422
43493	0.561875	-8.875425	3.924445	0.690907	-0.429586	-0.331605	0.477642
43494	0.537957	-8.999904	4.074848	0.690814	-0.430038	-0.331294	0.477585
43495	0.362415	-8.840911	4.019474	0.691282	-0.429675	-0.330105	0.478058
43496	0.294195	-8.348558	4.192208	0.691348	-0.429450	-0.329501	0.478580
43497	0.676492	-8.716139	4.051937	0.690892	-0.429704	-0.329713	0.478866
43498	0.768534	-9.023274	4.118640	0.690510	-0.430246	-0.329959	0.478761
43499	0.378598	-9.064179	4.077525	0.690668	-0.430502	-0.329418	0.478674
43500	0.126073	-8.833657	4.125493	0.690708	-0.430378	-0.329230	0.478857
43501	0.560752	-8.894809	3.941892	0.690637	-0.430337	-0.329289	0.478957
43502	0.594640	-8.829809	3.724580	0.691024	-0.429908	-0.328801	0.479119
43503	0.218490	-8.727224	4.100011	0.691691	-0.429466	-0.327777	0.479255
43504	-0.169387	-9.160779	4.218147	0.691822	-0.429320	-0.327735	0.479225
43505	-0.096682	-9.176902	4.312037	0.691766	-0.428559	-0.328726	0.479308
43506	0.058285	-9.095330	4.340984	0.691511	-0.427679	-0.330635	0.479149
43507	0.217251	-9.011723	4.462954	0.691257	-0.426488	-0.333001	0.478937
43508	0.931196	-8.724794	3.900728	0.690978	-0.425258	-0.335288	0.478838
43509	0.861316	-8.667008	3.906774	0.691061	-0.424648	-0.336479	0.478425
43510	0.700969	-8.682016	4.085105	0.691108	-0.424275	-0.337464	0.477995
43511	0.524092	-8.537773	4.025854	0.691477	-0.423579	-0.337710	0.477905
43512	0.631489	-8.806596	4.177653	0.691320	-0.423521	-0.338416	0.477682
43513	0.808436	-9.073584	3.977879	0.691739	-0.422984	-0.338050	0.477811
43514	0.613730	-8.826055	4.157160	0.692034	-0.422691	-0.337790	0.477827
43515	0.738526	-8.946176	3.950124	0.692507	-0.422179	-0.337215	0.478001
43516	0.669610	-8.763749	4.204362	0.692995	-0.421876	-0.336382	0.478148
43517	0.633809	-8.686032	4.077738	0.693360	-0.421443	-0.335595	0.478554
43518	0.691363	-8.524683	3.984664	0.693483	-0.421564	-0.334891	0.478763
43519	0.585720	-8.825016	4.019332	0.693498	-0.421896	-0.334414	0.478781
43520	0.839798	-8.960904	3.862453	0.693559	-0.422019	-0.333970	0.478895
43521	0.566779	-8.839578	3.962395	0.694066	-0.421944	-0.332814	0.479031
43522	0.437914	-8.741660	3.972593	0.694255	-0.421878	-0.332209	0.479234
43523	0.542685	-8.885589	4.031108	0.694478	-0.421838	-0.331553	0.479401
43524	0.503838	-9.012052	4.162399	0.694700	-0.421785	-0.330894	0.479581
43525	0.347172	-8.952566	4.036929	0.694909	-0.421643	-0.330226	0.479864
43526	0.512863	-9.094216	3.909461	0.695049	-0.421404	-0.329797	0.480165
43527	0.512098	-8.922557	4.009635	0.695317	-0.420894	-0.329286	0.480576
43528	0.523626	-8.882636	4.001383	0.695573	-0.420343	-0.328782	0.481033
43529	0.398861	-8.694019	4.044472	0.695840	-0.419763	-0.328079	0.481632
43530	0.517825	-8.994821	3.893050	0.695666	-0.419517	-0.328192	0.482022
43531	0.766148	-9.197009	3.648019	0.695906	-0.418854	-0.328029	0.482361
43532	0.603864	-8.782147	3.999781	0.696670	-0.417955	-0.327080	0.482684
43533	0.264899	-8.624953	4.259282	0.696987	-0.417433	-0.326630	0.482982
43534	0.457553	-8.859519	3.976410	0.697055	-0.416612	-0.326521	0.483665
43535	0.661358	-8.982202	3.918229	0.697129	-0.415698	-0.326441	0.484398
43536	0.659393	-8.897092	3.917488	0.697676	-0.414674	-0.325695	0.484991
43537	0.439235	-8.372610	4.581582	0.698216	-0.414101	-0.324813	0.485295
43538	0.377166	-8.347170	4.582970	0.698269	-0.413921	-0.324485	0.485592
43539	0.392959	-8.393507	4.596929	0.697922	-0.414037	-0.324649	0.485882
43540	0.533747	-8.593363	4.463775	0.697540	-0.414353	-0.324933	0.485971
43541	0.477231	-8.544099	4.438076	0.697257	-0.414701	-0.325272	0.485854
43542	0.387560	-8.703368	4.349158	0.696732	-0.415462	-0.325961	0.485495
43543	0.219242	-8.621756	4.419201	0.696590	-0.415835	-0.326191	0.485226
43544	0.241013	-8.528117	4.495135	0.695989	-0.416457	-0.327376	0.484756
43545	0.163280	-8.854065	4.347054	0.694545	-0.417726	-0.330220	0.483804
43546	-0.007777	-9.205462	4.721047	0.693272	-0.418928	-0.333605	0.482266
43547	0.424344	-9.276419	4.940516	0.692671	-0.418641	-0.336971	0.481037
43548	1.277516	-8.690017	3.836084	0.692978	-0.416895	-0.339367	0.480427
43549	1.017548	-8.308646	3.855216	0.694223	-0.415929	-0.339381	0.479456
43550	0.614660	-8.061039	4.283412	0.695100	-0.415172	-0.339118	0.479028
43551	0.432211	-7.999043	4.504679	0.695196	-0.414772	-0.339346	0.479073
43552	0.549922	-8.299679	4.919385	0.694759	-0.414110	-0.339733	0.480005
43553	1.345192	-8.302078	3.979134	0.693409	-0.413538	-0.340291	0.482051
43554	1.236293	-8.938021	3.450860	0.691928	-0.414079	-0.340378	0.483650
43555	0.613678	-8.724707	3.836752	0.691562	-0.412602	-0.339648	0.485943
43556	0.676059	-8.315457	4.305929	0.690611	-0.411618	-0.340604	0.487459
43557	0.819827	-9.174289	5.213258	0.688948	-0.412012	-0.342545	0.488119
43558	1.661253	-9.342701	3.975029	0.687191	-0.411805	-0.344154	0.489636
43559	0.993820	-9.639811	3.257403	0.687097	-0.411486	-0.342799	0.490985
43560	0.440044	-8.732222	4.147355	0.688826	-0.408582	-0.339205	0.493477
43561	0.422013	-8.272260	4.626117	0.689207	-0.406794	-0.338046	0.495214
43562	1.201709	-8.762769	4.285606	0.688371	-0.405902	-0.339058	0.496415
43563	1.485337	-8.939119	3.602890	0.688523	-0.404831	-0.338426	0.497509
43564	0.754445	-8.801041	3.821336	0.689883	-0.403168	-0.336050	0.498585
43565	0.698043	-8.817516	4.714876	0.691159	-0.401823	-0.334257	0.499108
43566	1.893844	-9.171944	4.097331	0.691613	-0.401488	-0.333503	0.499254
43567	1.719876	-9.309838	3.266184	0.693564	-0.401081	-0.329659	0.499427
43568	0.599090	-8.478832	4.183999	0.697724	-0.399660	-0.321550	0.500058
43569	-0.304784	-8.360846	4.943494	0.699988	-0.399930	-0.315795	0.500346
43570	-0.500971	-9.096459	4.058064	0.700288	-0.400491	-0.313487	0.500929
43571	0.367947	-9.280609	3.355059	0.700939	-0.399979	-0.311021	0.501964
43572	0.981122	-8.923407	3.807610	0.702871	-0.398828	-0.306354	0.503047
43573	0.096790	-8.806165	4.440295	0.705242	-0.397479	-0.301259	0.503873
43574	-0.865116	-9.047473	5.470000	0.707857	-0.395285	-0.296793	0.504581
43575	-0.563667	-9.346627	4.987395	0.709433	-0.394071	-0.294969	0.504386
43576	0.607260	-9.707935	3.394056	0.711175	-0.393384	-0.292843	0.503709
43577	0.160302	-9.181946	3.913877	0.715754	-0.391068	-0.284680	0.503705
43578	-1.561025	-7.854754	4.379015	0.720827	-0.386995	-0.274748	0.505130
43579	-1.203739	-7.641741	4.903899	0.723160	-0.383951	-0.268819	0.507305
43580	0.059518	-7.812688	3.939551	0.723913	-0.381323	-0.266116	0.509633
43581	1.133530	-7.960774	3.572471	0.725472	-0.378414	-0.262170	0.511625
43582	-0.104084	-8.046116	4.057570	0.727880	-0.375305	-0.256639	0.513297
43583	-1.182545	-8.586402	4.967776	0.729324	-0.372191	-0.253345	0.515147
43584	-0.103697	-7.577734	4.829234	0.731596	-0.367019	-0.248277	0.518095
43585	1.030793	-5.997391	3.937685	0.733853	-0.361743	-0.243246	0.520992
43586	0.961610	-6.116438	4.541187	0.736575	-0.358659	-0.236636	0.522326
43587	0.065969	-6.873471	5.220112	0.739697	-0.356096	-0.229811	0.522715
43588	-0.538500	-7.783372	4.650782	0.742544	-0.354819	-0.224477	0.521864
43589	-1.261967	-9.141600	4.152522	0.745814	-0.352419	-0.218292	0.521451
43590	-0.850611	-8.753914	4.889176	0.750843	-0.343821	-0.208753	0.523875
43591	0.489449	-6.364896	5.986690	0.756865	-0.331903	-0.196096	0.527771
43592	0.116907	-4.842307	5.743557	0.761364	-0.323551	-0.183700	0.530936
43593	-0.982620	-4.621677	5.337393	0.764987	-0.316482	-0.173180	0.533520
43594	-1.032189	-4.595749	6.023655	0.768051	-0.309229	-0.164797	0.536020
43595	-1.314142	-4.827805	6.354947	0.770222	-0.304123	-0.158439	0.537740
43596	-1.363106	-5.862627	6.598055	0.772151	-0.298639	-0.154367	0.539229
43597	-0.867404	-6.013268	7.812379	0.774969	-0.291684	-0.148524	0.540633
43598	-1.002995	-5.536449	7.335387	0.777463	-0.285416	-0.141822	0.542195
43599	-1.375491	-5.339505	8.122981	0.780878	-0.275686	-0.132633	0.544642
43600	-1.590250	-3.643845	10.688616	0.784824	-0.265235	-0.121829	0.546680
43601	-1.456542	-2.716147	11.386783	0.786915	-0.258993	-0.116715	0.547782
43602	-1.216230	-3.779121	11.777217	0.788160	-0.256033	-0.114580	0.547834
43603	-1.116213	-5.001844	12.037409	0.789138	-0.254091	-0.112813	0.547698
43604	-1.254075	-5.076911	12.061995	0.790513	-0.250908	-0.110012	0.547751
43605	-1.592085	-4.175869	12.928301	0.792175	-0.247024	-0.106525	0.547805
43606	-1.914163	-3.493895	13.479154	0.793239	-0.244854	-0.105030	0.547528
43607	-1.882428	-3.580043	13.550675	0.793724	-0.244649	-0.105732	0.546781
43608	-1.549524	-4.021054	13.219882	0.793676	-0.246356	-0.107737	0.545691
43609	-1.445400	-4.408115	12.732470	0.793287	-0.249662	-0.110567	0.544186
43610	-1.511136	-4.536494	12.058896	0.792705	-0.253605	-0.114086	0.542483
43611	-1.478537	-4.327331	11.605286	0.791916	-0.257867	-0.118124	0.540759
43612	-1.376165	-3.973712	11.263979	0.790788	-0.262678	-0.122908	0.539025
43613	-1.217656	-3.860289	10.847694	0.789082	-0.268626	-0.129195	0.537120
43614	-1.168554	-4.215532	10.219229	0.786772	-0.275779	-0.136826	0.534991
43615	-1.143652	-4.500338	9.604639	0.784044	-0.283223	-0.145326	0.532861
43616	-0.968256	-4.401077	9.015172	0.780959	-0.290744	-0.154663	0.530707
43617	-0.795112	-4.359897	8.482960	0.777474	-0.298663	-0.164570	0.528442
43618	-0.679376	-4.474189	7.986240	0.773513	-0.307099	-0.174968	0.526074
43619	-0.532375	-4.796066	7.362257	0.769159	-0.315864	-0.185322	0.523717
43620	-0.345011	-4.998069	6.610216	0.764452	-0.324818	-0.195686	0.521358
43621	-0.173901	-5.180064	5.894662	0.759493	-0.333758	-0.205913	0.519014
43622	-0.225115	-5.210024	5.260780	0.754457	-0.342270	-0.215908	0.516750
43623	-0.260998	-5.137147	5.180027	0.749071	-0.350629	-0.226078	0.514626
43624	-0.154154	-5.434481	4.728019	0.742778	-0.360127	-0.237240	0.512159
43625	-0.055827	-6.209132	3.973839	0.735831	-0.370003	-0.248978	0.509568
43626	0.082221	-6.881392	3.552278	0.729213	-0.378795	-0.259766	0.507233
43627	0.133712	-7.187252	3.635813	0.723205	-0.386206	-0.269102	0.505374
43628	0.234066	-7.333958	3.537389	0.717259	-0.392804	-0.277937	0.503979
43629	0.203463	-7.443985	3.372891	0.711757	-0.398492	-0.285751	0.502944
43630	0.065569	-7.363154	3.593079	0.706622	-0.403374	-0.292753	0.502266
43631	0.056264	-7.169939	3.637134	0.701557	-0.407942	-0.299509	0.501693
43632	0.040737	-7.016544	3.652274	0.696458	-0.412672	-0.306056	0.500977
43633	0.013262	-7.022845	3.643750	0.691218	-0.417710	-0.312522	0.500066
43634	-0.093163	-7.021373	3.670176	0.685901	-0.422777	-0.318948	0.499071
43635	-0.294386	-6.888275	3.525252	0.680091	-0.428079	-0.325957	0.497972
43636	-0.500819	-7.074522	3.293635	0.673485	-0.434293	-0.333814	0.496361
43637	-0.549390	-7.357794	2.883679	0.666275	-0.440885	-0.342436	0.494403
43638	-0.347639	-7.849427	2.635147	0.658551	-0.447847	-0.351546	0.492097
43639	-0.187484	-8.506504	2.165473	0.650428	-0.455104	-0.360675	0.489630
43640	-0.242643	-8.952196	1.715104	0.642556	-0.461546	-0.369152	0.487672
43641	-0.333752	-9.162965	1.449134	0.634778	-0.467444	-0.377240	0.486049
43642	-0.165379	-9.404189	1.170184	0.627133	-0.473064	-0.385155	0.484325
43643	0.251076	-9.872518	0.821143	0.619485	-0.478755	-0.392997	0.482270
43644	0.685356	-10.830383	0.606650	0.611857	-0.484676	-0.400497	0.479919
43645	0.721146	-11.668203	0.182148	0.604971	-0.490208	-0.406597	0.477896
43646	0.441709	-11.711033	-0.293749	0.599234	-0.494589	-0.411189	0.476679
43647	0.337944	-11.593923	-0.456186	0.593744	-0.498989	-0.415628	0.475112
43648	0.438776	-12.069319	-0.762640	0.587964	-0.504470	-0.420363	0.472339
43649	0.752461	-13.068611	-1.220129	0.582799	-0.510174	-0.424426	0.468968
43650	0.996081	-13.680270	-1.657113	0.580050	-0.514111	-0.426049	0.466599
43651	0.899109	-13.206995	-1.291360	0.580366	-0.515509	-0.424815	0.465787
43652	0.443343	-12.362443	-0.797203	0.581671	-0.516645	-0.422699	0.464825
43653	-0.101618	-12.333529	-0.607736	0.583268	-0.518007	-0.420539	0.463265
43654	-0.241269	-12.409007	-0.324691	0.585613	-0.518794	-0.417846	0.461859
43655	-0.196486	-12.583425	-0.136432	0.588574	-0.518839	-0.414737	0.460847
43656	0.016764	-12.263295	0.023133	0.592691	-0.517254	-0.410896	0.460794
43657	0.202995	-11.249728	0.380684	0.597926	-0.514446	-0.406392	0.461168
43658	0.235594	-10.547943	0.651020	0.602845	-0.512161	-0.402454	0.460760
43659	0.186002	-10.622347	0.449508	0.607659	-0.510320	-0.398842	0.459619
43660	0.347680	-10.838028	0.567811	0.613531	-0.507102	-0.394422	0.459194
43661	0.518798	-10.640138	1.083079	0.620372	-0.502127	-0.389272	0.459863
43662	0.622826	-10.344613	1.566852	0.627469	-0.496571	-0.383871	0.460807
43663	0.583170	-10.038159	1.641700	0.634434	-0.490800	-0.378706	0.461725
43664	0.912686	-9.475288	1.618349	0.641156	-0.484882	-0.373723	0.462752
43665	1.253856	-9.336376	1.557872	0.647418	-0.479300	-0.368814	0.463786
43666	1.288594	-9.387983	1.661879	0.653796	-0.473467	-0.362996	0.465417
43667	1.187658	-9.149826	1.860686	0.660240	-0.466959	-0.356268	0.468086
43668	1.334404	-8.858223	1.757033	0.666085	-0.460562	-0.349316	0.471374
43669	1.633809	-8.550230	1.673473	0.671825	-0.453653	-0.341723	0.475474
43670	1.883902	-8.062924	1.839263	0.677455	-0.446557	-0.333259	0.480187
43671	1.795985	-7.858135	2.110188	0.682788	-0.440194	-0.323867	0.484912
43672	1.486190	-7.575530	2.048683	0.688101	-0.433879	-0.313056	0.490165
43673	1.029826	-7.128188	2.207663	0.693545	-0.427011	-0.300624	0.496268
43674	0.620278	-6.441795	2.640045	0.698920	-0.419805	-0.286945	0.502928
43675	0.232847	-5.945670	3.089335	0.703663	-0.413545	-0.272651	0.509412
43676	-0.363790	-5.879297	3.265330	0.707547	-0.408570	-0.258547	0.515365
43677	-0.787472	-6.075762	3.105361	0.710484	-0.404873	-0.245328	0.520678
43678	-1.276676	-6.237574	3.358086	0.712415	-0.402750	-0.232923	0.525362
43679	-1.794030	-6.483626	3.137068	0.713269	-0.401960	-0.221556	0.529707
43680	-2.568359	-7.397389	3.356634	0.714994	-0.397778	-0.209648	0.535354
43681	-2.688589	-7.106664	4.101368	0.720462	-0.386420	-0.193204	0.542482
43682	-3.110337	-5.541869	6.097180	0.727129	-0.373188	-0.175157	0.548939
43683	-3.622260	-5.292501	6.968788	0.731168	-0.363377	-0.162367	0.554065
43684	-3.450071	-6.282648	6.894184	0.735032	-0.353132	-0.151139	0.558734
43685	-3.496724	-5.741476	7.504867	0.739752	-0.341432	-0.139014	0.562908
43686	-3.833480	-5.377788	7.488451	0.743952	-0.329880	-0.128875	0.566662
43687	-4.113777	-4.934755	7.643820	0.748496	-0.316796	-0.119710	0.570143
43688	-4.234719	-4.506661	8.758085	0.752596	-0.304047	-0.112969	0.573056
43689	-3.894514	-4.827284	9.072332	0.756043	-0.292419	-0.109636	0.575212
43690	-3.553788	-5.355185	9.204154	0.759788	-0.281104	-0.107369	0.576347
43691	-3.474097	-4.911519	9.366313	0.764139	-0.269166	-0.105693	0.576602
43692	-3.209797	-4.351968	9.791135	0.768691	-0.256877	-0.105263	0.576236
43693	-3.025163	-3.507118	10.343095	0.773464	-0.244242	-0.105323	0.575332
43694	-3.013900	-2.606234	10.876733	0.777824	-0.232525	-0.107106	0.573977
43695	-2.713031	-2.436067	11.067641	0.781733	-0.221518	-0.110497	0.572375
43696	-2.397648	-2.536881	11.602500	0.785350	-0.211343	-0.115174	0.570346
43697	-2.071781	-2.514969	12.055004	0.788745	-0.201690	-0.121644	0.567807
43698	-1.435988	-2.569296	12.243974	0.791894	-0.193412	-0.129783	0.564493
43699	-1.304073	-2.461727	12.306307	0.795024	-0.186002	-0.138753	0.560435
43700	-0.975807	-2.093218	12.456977	0.797955	-0.179417	-0.149248	0.555700
43701	-0.315754	-1.626174	12.479144	0.800573	-0.173759	-0.160897	0.550457
43702	0.533508	-1.402116	12.155126	0.802398	-0.170159	-0.174479	0.544758
43703	1.433035	-1.628006	11.652920	0.803414	-0.168437	-0.189523	0.538736
43704	1.922587	-1.937702	11.428605	0.804010	-0.167440	-0.204814	0.532526
43705	2.097543	-1.874594	11.255029	0.804063	-0.167256	-0.220842	0.526058
43706	2.212890	-1.913580	10.798434	0.803303	-0.168393	-0.238206	0.519237
43707	3.018750	-2.247195	9.972125	0.801202	-0.171567	-0.257931	0.511969
43708	4.268173	-2.962761	8.767392	0.797928	-0.175827	-0.278698	0.504700
43709	5.538156	-3.268807	7.852348	0.793867	-0.181048	-0.299019	0.497578
43710	6.062477	-3.687008	7.265792	0.789644	-0.187592	-0.317147	0.490601
43711	5.919427	-3.601223	6.729481	0.785108	-0.194684	-0.333776	0.484043
43712	6.095438	-3.373914	6.244163	0.779836	-0.203306	-0.349835	0.477637
43713	6.227125	-3.566340	5.244891	0.773625	-0.214335	-0.365519	0.471128
43714	6.284768	-4.167598	4.006133	0.766701	-0.226886	-0.380323	0.464809
43715	6.432725	-4.756717	3.294694	0.759586	-0.240754	-0.393137	0.458815
43716	5.868166	-5.307990	3.410154	0.752817	-0.255652	-0.403033	0.453292
43717	5.336462	-5.414004	3.388014	0.745606	-0.271116	-0.411748	0.448366
43718	5.122328	-5.580970	2.809105	0.737907	-0.287490	-0.419340	0.443843
43719	4.790195	-5.661925	2.147099	0.730021	-0.304082	-0.425220	0.440217
43720	4.419806	-5.640133	1.576832	0.721969	-0.321036	-0.429374	0.437419
43721	3.905280	-5.958336	0.995618	0.713212	-0.339468	-0.432596	0.434685
43722	3.247003	-6.640445	0.502060	0.703987	-0.358849	-0.434757	0.431991
43723	2.684672	-7.354490	0.172058	0.694259	-0.378587	-0.436287	0.429337
43724	2.262035	-7.973904	-0.405910	0.684302	-0.398180	-0.437112	0.426751
43725	1.860083	-8.601490	-0.563875	0.674341	-0.417107	-0.437125	0.424508
43726	1.723702	-9.029604	-0.911758	0.664365	-0.434978	-0.436466	0.422979
43727	1.334684	-9.198233	-1.298942	0.654737	-0.451967	-0.434568	0.422131
43728	1.049864	-9.315778	-1.070959	0.645324	-0.467558	-0.431784	0.422504
43729	1.009928	-9.527244	-1.189580	0.636249	-0.482195	-0.427990	0.423674
43730	0.801955	-9.793214	-1.116224	0.627849	-0.495957	-0.422888	0.425439
43731	0.653570	-10.003099	-1.178540	0.619832	-0.509103	-0.416907	0.427565
43732	0.208702	-10.262185	-1.282950	0.612669	-0.521752	-0.409559	0.429737
43733	-0.126999	-10.678433	-0.956545	0.605982	-0.533469	-0.401625	0.432313
43734	-0.251697	-11.222570	-0.944872	0.599986	-0.544148	-0.392979	0.435301
43735	-0.538284	-11.158822	-1.020163	0.594832	-0.553709	-0.383594	0.438677
43736	-1.062583	-11.222041	-0.927190	0.589911	-0.562757	-0.373973	0.442102
43737	-1.494910	-11.357272	-1.008192	0.585392	-0.571007	-0.363858	0.445953
43738	-1.752177	-11.099701	-1.115377	0.581649	-0.577990	-0.352896	0.450639
43739	-1.791346	-10.581521	-1.260541	0.578426	-0.584045	-0.341299	0.455884
43740	-1.982894	-9.846566	-1.337171	0.575980	-0.589386	-0.328853	0.461224
43741	-2.444080	-9.302515	-1.290603	0.573826	-0.594439	-0.315890	0.466455
43742	-3.017223	-9.258192	-1.139896	0.571705	-0.599287	-0.302497	0.471704
43743	-3.525854	-9.370622	-0.931537	0.569482	-0.604014	-0.288696	0.476982
43744	-3.858213	-9.950386	-0.651790	0.567921	-0.608089	-0.273817	0.482408
43745	-4.215689	-9.970580	-0.335748	0.568308	-0.609994	-0.257269	0.488617
43746	-4.367998	-9.674984	0.230103	0.570461	-0.609582	-0.239627	0.495542
43747	-4.753151	-9.137264	0.439539	0.573546	-0.607738	-0.221660	0.502561
43748	-5.246863	-8.883048	1.501605	0.576196	-0.605695	-0.204712	0.509141
43749	-5.645397	-9.073143	1.920710	0.576980	-0.604681	-0.190095	0.515090
43750	-5.824834	-9.990090	1.322522	0.577898	-0.602769	-0.176239	0.521194
43751	-5.878727	-10.365746	1.481089	0.580468	-0.598334	-0.162096	0.527994
43752	-5.677079	-10.171120	1.862457	0.584220	-0.592263	-0.148034	0.534788
43753	-5.632406	-9.630364	2.162560	0.589082	-0.585025	-0.134252	0.541021
43754	-5.909488	-9.094238	2.450150	0.594422	-0.577034	-0.121498	0.546747
43755	-6.109527	-8.695736	3.047255	0.599927	-0.568580	-0.109756	0.552049
43756	-6.201695	-8.411900	3.245988	0.605640	-0.559195	-0.098894	0.557423
43757	-6.035389	-7.861545	3.476503	0.612416	-0.547938	-0.087759	0.563036
43758	-5.954850	-7.033693	4.214187	0.619723	-0.535078	-0.076743	0.568987
43759	-5.786430	-6.221872	4.910683	0.626205	-0.522487	-0.067344	0.574752
43760	-5.784758	-5.908729	4.808194	0.631692	-0.510619	-0.059920	0.580210
43761	-5.712876	-5.924027	4.827318	0.636922	-0.498470	-0.053845	0.585627
43762	-5.664045	-6.256354	4.802916	0.642056	-0.485614	-0.048756	0.591241
43763	-5.532151	-6.496511	4.931174	0.647387	-0.471613	-0.043989	0.597106
43764	-5.338784	-6.287343	5.133925	0.652804	-0.457067	-0.039649	0.602798
43765	-5.086290	-5.955827	5.397428	0.658120	-0.442293	-0.036104	0.608237
43766	-5.032070	-5.939572	5.568453	0.662602	-0.428589	-0.034245	0.613268
43767	-5.042386	-6.305901	5.496975	0.667098	-0.414790	-0.033059	0.617930
43768	-4.754743	-6.161031	5.846994	0.672308	-0.399856	-0.031463	0.622196
43769	-4.724200	-5.861630	6.478505	0.677814	-0.384747	-0.029512	0.625832
43770	-4.851332	-5.030866	7.141662	0.683386	-0.369646	-0.028363	0.628920
43771	-4.952987	-4.401580	7.371870	0.689379	-0.354424	-0.027471	0.631178
43772	-5.205962	-3.964270	8.401465	0.696007	-0.337930	-0.026977	0.632969
43773	-5.455070	-3.761847	9.348469	0.701726	-0.323723	-0.028700	0.634003
43774	-5.616342	-4.717937	9.134810	0.707386	-0.309413	-0.030700	0.634764
43775	-5.636774	-4.129384	10.388152	0.713660	-0.293852	-0.032205	0.635062
43776	-5.043353	-3.338749	9.847474	0.719741	-0.279557	-0.036510	0.634419
43777	-4.587526	-3.288056	9.664379	0.726468	-0.265556	-0.042097	0.632418
43778	-4.145601	-3.197733	9.801764	0.733317	-0.252993	-0.050062	0.629075
43779	-3.514636	-3.107461	9.409806	0.740457	-0.240932	-0.059135	0.624642
43780	-2.893095	-2.718189	9.040005	0.747709	-0.229204	-0.068656	0.619422
43781	-2.301172	-2.275701	9.326265	0.755289	-0.216922	-0.077509	0.613576
43782	-1.702589	-1.713244	9.799141	0.762856	-0.204617	-0.086729	0.607174
43783	-1.536185	-1.406599	10.265635	0.770070	-0.193038	-0.096867	0.600287
43784	-1.289437	-1.013867	10.205060	0.776475	-0.182907	-0.109030	0.593080
43785	-0.701751	-1.094171	10.229039	0.782035	-0.174747	-0.123345	0.585380
43786	0.211978	-1.172582	9.949252	0.787002	-0.168175	-0.138763	0.577139
43787	0.792654	-1.226133	10.189545	0.791662	-0.162985	-0.154221	0.568263
43788	1.048750	-1.131780	10.104433	0.796128	-0.158993	-0.169299	0.558784
43789	1.206703	-0.801960	10.154830	0.800597	-0.155651	-0.183632	0.548722
43790	1.765753	-0.382536	9.927011	0.804492	-0.153486	-0.198878	0.538221
43791	2.688135	-0.315167	9.334541	0.807612	-0.152797	-0.215201	0.527356
43792	3.989655	-0.567969	8.767016	0.809438	-0.154193	-0.233631	0.516189
43793	5.307587	-1.941793	7.851193	0.810208	-0.159451	-0.252326	0.504451
43794	5.281565	-3.164868	7.352556	0.811179	-0.164530	-0.267691	0.493214
43795	4.883926	-2.785614	7.804270	0.812023	-0.168837	-0.281211	0.482735
43796	4.774245	-2.725695	8.005874	0.811797	-0.175172	-0.295218	0.472384
43797	5.031193	-3.347592	7.447423	0.810479	-0.182736	-0.309479	0.462552
43798	5.352149	-3.734610	7.050772	0.808454	-0.190059	-0.322949	0.453855
43799	5.378753	-3.866578	6.600500	0.805664	-0.197905	-0.335778	0.446086
43800	5.502525	-3.949322	6.267802	0.801789	-0.207113	-0.348545	0.439039
43801	5.668474	-4.426616	5.536757	0.796950	-0.217934	-0.360948	0.432541
43802	5.802810	-4.795295	4.786848	0.791447	-0.229327	-0.372721	0.426732
43803	5.914266	-5.462581	4.111805	0.785402	-0.242010	-0.383640	0.421184
43804	5.772758	-6.141551	3.893069	0.779081	-0.255492	-0.393137	0.416174
43805	5.413396	-6.578934	3.336579	0.772421	-0.269598	-0.401351	0.411825
43806	5.114336	-6.734459	2.889448	0.765142	-0.284184	-0.408922	0.408142
43807	5.088653	-7.307931	2.470399	0.756905	-0.299783	-0.416329	0.404841
43808	4.974851	-8.246407	1.657632	0.748105	-0.316136	-0.422722	0.402124
43809	4.446630	-9.073071	1.488100	0.739746	-0.331363	-0.426986	0.400821
43810	3.969978	-9.004285	1.516308	0.731918	-0.345020	-0.429529	0.400951
43811	3.720948	-8.745991	1.600942	0.724264	-0.358027	-0.431084	0.401777
43812	3.646834	-8.645140	1.198825	0.716531	-0.371169	-0.431933	0.402804
43813	3.211883	-8.959529	0.677823	0.709149	-0.384448	-0.431337	0.404049
43814	2.565970	-9.167800	0.649722	0.702555	-0.396617	-0.429057	0.406229
43815	2.127785	-9.251549	0.966656	0.696367	-0.407729	-0.425815	0.409281
43816	1.938448	-9.577565	1.014399	0.690530	-0.418410	-0.421709	0.412629
43817	1.591408	-9.837036	0.768744	0.685456	-0.428314	-0.416532	0.416171
43818	1.196379	-9.705419	0.580062	0.681376	-0.437051	-0.410386	0.419877
43819	1.038455	-9.510896	0.787598	0.677977	-0.444817	-0.403730	0.423658
43820	0.865425	-9.696616	1.085947	0.674701	-0.452653	-0.397006	0.426930
43821	0.501829	-10.019867	0.930199	0.671640	-0.460229	-0.390155	0.429963
43822	0.055267	-10.263777	0.842418	0.668670	-0.467545	-0.383237	0.432909
43823	0.027154	-10.567862	1.384484	0.665977	-0.474004	-0.376371	0.436050
43824	0.215941	-10.911037	1.409255	0.663550	-0.480276	-0.369366	0.438868
43825	0.014270	-11.446471	0.804739	0.661997	-0.485787	-0.361631	0.441582
43826	-0.178064	-10.990830	1.213831	0.660104	-0.491800	-0.354325	0.443677
43827	-0.258015	-11.669587	1.358724	0.655981	-0.500088	-0.349049	0.444708
43828	-0.679589	-12.239371	2.324816	0.656033	-0.504713	-0.339516	0.446783
43829	-1.183780	-9.947580	2.189363	0.656029	-0.508027	-0.331346	0.449159
43830	-1.209115	-10.743531	2.213075	0.656861	-0.511013	-0.322348	0.451099
43831	-1.781035	-9.785184	1.986915	0.658301	-0.512162	-0.313829	0.453698
43832	-1.738983	-9.690963	1.622178	0.659690	-0.511850	-0.306329	0.457145
43833	-1.800029	-9.115765	2.618685	0.660896	-0.510298	-0.299819	0.461435
43834	-1.776746	-9.116259	3.179185	0.661792	-0.507866	-0.294499	0.466234
43835	-1.804599	-8.711284	3.575779	0.662679	-0.504785	-0.290174	0.471007
43836	-1.297870	-8.664833	3.251552	0.662742	-0.501666	-0.287918	0.475613
43837	-0.769391	-9.046364	3.091287	0.662100	-0.499023	-0.287240	0.479680
43838	-0.612684	-9.531285	2.810535	0.661910	-0.495773	-0.286825	0.483546
43839	-0.538258	-9.414209	3.233135	0.662885	-0.490811	-0.286058	0.487708
43840	-0.187170	-8.888247	3.482491	0.664004	-0.485000	-0.286227	0.491882
43841	0.646407	-8.480005	3.306452	0.664868	-0.479065	-0.287534	0.495753
43842	1.326388	-8.283123	3.040716	0.665243	-0.474010	-0.289729	0.498822
43843	1.538187	-8.399593	2.904374	0.664900	-0.470123	-0.292682	0.501228
43844	1.776512	-8.878559	2.716593	0.664174	-0.466895	-0.295844	0.503347
43845	2.131009	-9.353002	2.542549	0.663989	-0.463924	-0.298320	0.504875
43846	2.140917	-9.769879	2.924210	0.665140	-0.461212	-0.299021	0.505428
43847	2.379272	-9.592084	2.572722	0.668016	-0.457308	-0.297952	0.505814
43848	2.608108	-9.209283	2.663829	0.672476	-0.453788	-0.294493	0.505101
43849	2.468235	-9.430457	2.954696	0.678040	-0.452141	-0.289225	0.502174
43850	2.321656	-10.101051	2.901825	0.684569	-0.451893	-0.283019	0.497049
43851	1.906091	-9.922372	2.699349	0.693011	-0.450910	-0.274933	0.490742
43852	1.720118	-8.364682	3.151833	0.703121	-0.449082	-0.265702	0.483062
43853	1.869923	-7.490919	3.715828	0.712313	-0.451174	-0.257366	0.472033
43854	1.806682	-8.377361	3.884731	0.720980	-0.457897	-0.248010	0.457175
43855	1.594545	-9.791595	3.410352	0.729703	-0.465530	-0.237980	0.440660
43856	0.086316	-10.639794	2.736065	0.741647	-0.470910	-0.222469	0.422742
43857	-1.897671	-9.708043	3.778596	0.755324	-0.473168	-0.205164	0.404359
43858	-2.321429	-9.605554	3.861622	0.766513	-0.477015	-0.191057	0.385242
43859	-2.215682	-9.253780	3.177400	0.778974	-0.479240	-0.173872	0.365099
43860	-2.953553	-8.198384	3.560752	0.791616	-0.481818	-0.153569	0.342947
43861	-3.933273	-7.823895	4.079784	0.801591	-0.485246	-0.136983	0.321284
43862	-2.951825	-9.249845	4.171524	0.809381	-0.489581	-0.123275	0.300028
43863	-2.979067	-10.761701	4.195474	0.815821	-0.495268	-0.109138	0.277911
43864	-3.479802	-11.097981	3.689186	0.822366	-0.499365	-0.094869	0.255634
43865	-4.643509	-9.894009	4.366634	0.829928	-0.500503	-0.079483	0.233236
43866	-5.334950	-8.245152	4.888142	0.836708	-0.500543	-0.065446	0.212351
43867	-5.208757	-6.993865	4.612300	0.841981	-0.500701	-0.053626	0.193627
43868	-4.714349	-6.384085	4.868571	0.845679	-0.501635	-0.044151	0.176751
43869	-4.076986	-6.522517	4.434857	0.846998	-0.505252	-0.036568	0.161177
43870	-3.374507	-7.444089	3.960853	0.846268	-0.511289	-0.030571	0.146561
43871	-2.670117	-8.485841	3.756088	0.844957	-0.517521	-0.025639	0.132524
43872	-2.169791	-9.072555	3.180869	0.843457	-0.523482	-0.021168	0.118736
43873	-1.762011	-9.294260	3.045913	0.843579	-0.526346	-0.016522	0.105173
43874	-1.313772	-8.375848	3.155179	0.845463	-0.525835	-0.011933	0.092451
43875	-1.125059	-7.486754	3.688271	0.846662	-0.526106	-0.006905	0.079549
43876	-1.474262	-7.684073	4.261843	0.845370	-0.530101	-0.000666	0.065887
43877	-2.030141	-8.773822	3.963051	0.842003	-0.536918	0.004523	0.052252
43878	-2.067974	-9.402962	3.274521	0.839823	-0.541358	0.008521	0.039457
43879	-1.948281	-8.949817	3.406655	0.840225	-0.541411	0.012990	0.026981
43880	-1.911590	-8.118183	3.771023	0.840282	-0.541661	0.017321	0.015150
43881	-1.585013	-8.401077	3.144660	0.838439	-0.544587	0.020727	0.003906
43882	-1.195718	-8.751585	2.570804	0.836096	-0.548006	0.024019	-0.007448
43883	-1.218074	-9.114457	2.530442	0.834104	-0.550527	0.028315	-0.019695
43884	-1.426254	-9.359320	3.429845	0.832594	-0.551756	0.034930	-0.033645
43885	-1.477922	-9.433575	3.664360	0.830406	-0.553536	0.041791	-0.047729
43886	-0.781059	-9.161883	2.980005	0.827565	-0.555880	0.048080	-0.061819
43887	-0.588297	-9.371586	2.292560	0.823587	-0.559083	0.056343	-0.077171
43888	-0.675092	-9.466622	2.605837	0.819791	-0.561168	0.065718	-0.093352
43889	-0.768170	-9.533294	2.958123	0.815398	-0.563255	0.075836	-0.110088
43890	-0.843980	-9.683894	2.651106	0.811153	-0.564291	0.086186	-0.127197
43891	-0.473181	-9.029733	2.592123	0.807504	-0.563757	0.096146	-0.144470
43892	-0.446288	-8.961313	2.896376	0.802534	-0.564036	0.107307	-0.162138
43893	-0.376669	-10.144267	2.932923	0.796189	-0.565299	0.119424	-0.179605
43894	-0.252184	-10.569770	2.611902	0.790022	-0.565472	0.130991	-0.197350
43895	-0.660645	-9.498995	2.587949	0.784667	-0.563500	0.141924	-0.215923
43896	-1.186508	-8.027855	2.617669	0.779355	-0.561220	0.151471	-0.233867
43897	-0.226023	-8.092706	2.155709	0.772803	-0.561493	0.159031	-0.249418
43898	1.431919	-9.478254	1.279105	0.765623	-0.562612	0.166390	-0.263825
43899	2.394391	-10.533591	1.095326	0.759584	-0.560248	0.176200	-0.279478
43900	2.133528	-10.471171	1.652760	0.754136	-0.555256	0.188191	-0.295894
43901	1.071911	-10.369562	2.133395	0.747227	-0.550521	0.202100	-0.312624
43902	0.419541	-10.539095	2.544350	0.740132	-0.546075	0.214199	-0.328823
43903	0.941789	-10.545504	2.888986	0.733280	-0.541909	0.224049	-0.344146
43904	1.553490	-10.270996	2.712013	0.726442	-0.538005	0.232551	-0.358822
43905	1.954390	-10.026203	2.204938	0.719060	-0.534666	0.240763	-0.372985
43906	2.058898	-9.795981	1.623951	0.711574	-0.531012	0.248980	-0.386908
43907	2.129893	-9.315443	1.494797	0.705116	-0.526009	0.256212	-0.400601
43908	2.200814	-8.646647	1.541546	0.698884	-0.521170	0.262581	-0.413513
43909	2.493865	-8.643480	1.516403	0.691743	-0.517019	0.269632	-0.426007
43910	2.583202	-8.757332	1.715693	0.683684	-0.512354	0.278117	-0.439000
43911	2.375924	-9.140612	2.087047	0.674339	-0.507459	0.288303	-0.452364
43912	1.924626	-8.998290	2.293279	0.665611	-0.501684	0.297308	-0.465706
43913	2.051117	-8.431673	2.721282	0.657540	-0.495407	0.304953	-0.478766
43914	2.359734	-8.437291	2.877363	0.648863	-0.488851	0.313673	-0.491539
43915	1.981591	-8.430185	3.095206	0.639955	-0.481642	0.323046	-0.504102
43916	1.662827	-8.474550	3.129415	0.630784	-0.475348	0.332188	-0.515564
43917	1.453842	-8.777521	2.936696	0.621243	-0.469438	0.341477	-0.526382
43918	1.234979	-8.859138	2.893203	0.611973	-0.462924	0.349992	-0.537305
43919	1.165834	-9.177493	3.298977	0.602312	-0.456590	0.358425	-0.547976
43920	1.076695	-9.482055	3.097772	0.592761	-0.450483	0.366109	-0.558269
43921	1.205643	-9.776215	2.719187	0.583141	-0.444924	0.373209	-0.568070
43922	0.810532	-10.376379	2.748354	0.572489	-0.438266	0.381513	-0.578470
43923	0.275825	-10.978961	3.171779	0.561606	-0.430911	0.389388	-0.589315
43924	0.213448	-12.298026	3.798728	0.549655	-0.423645	0.398061	-0.599959
43925	-0.966464	-12.034673	3.380493	0.537655	-0.415809	0.406373	-0.610648
43926	-2.240397	-9.851271	2.766858	0.526460	-0.410063	0.412792	-0.619912
43927	-2.140552	-9.127553	1.728343	0.514441	-0.407904	0.419841	-0.626656
43928	-1.916679	-10.345549	0.761764	0.501366	-0.405018	0.428246	-0.633402
43929	-1.563712	-11.267892	1.368751	0.489990	-0.397444	0.432894	-0.643856
43930	-1.320726	-9.767653	3.249614	0.479953	-0.388988	0.434128	-0.655642
43931	-1.266927	-8.554836	3.296348	0.468478	-0.382497	0.437041	-0.665747
43932	-1.226356	-8.284933	2.917820	0.455590	-0.376674	0.441519	-0.674993
43933	-1.155113	-8.490214	2.840284	0.441817	-0.370894	0.446481	-0.684025
43934	-0.851580	-8.333729	2.902816	0.428629	-0.365416	0.450115	-0.692925
43935	-0.276539	-8.355418	2.813414	0.414959	-0.360193	0.454331	-0.701180
43936	-0.352930	-9.144546	2.657756	0.400387	-0.353899	0.459894	-0.709185
43937	-0.585028	-9.308203	2.856590	0.386542	-0.347242	0.464748	-0.716950
43938	-0.559025	-9.407921	2.517156	0.372049	-0.341097	0.470770	-0.723608
43939	-0.452258	-9.652692	2.317073	0.357616	-0.334759	0.476246	-0.730231
43940	0.135518	-9.209444	2.142769	0.344430	-0.329316	0.479946	-0.736594
43941	0.727473	-8.980164	1.549924	0.330897	-0.323643	0.484463	-0.742332
43942	0.669498	-9.130413	1.304575	0.316326	-0.316178	0.490605	-0.747848
43943	0.522627	-9.445037	1.496315	0.301198	-0.307919	0.497162	-0.753190
43944	0.610036	-9.992434	1.433573	0.285387	-0.299586	0.504170	-0.758034
43945	0.339029	-10.178640	1.267839	0.269380	-0.290796	0.510965	-0.762750
43946	0.233872	-9.921075	1.102103	0.254052	-0.282230	0.516946	-0.767183
43947	0.112337	-9.910135	0.975252	0.238239	-0.272949	0.523231	-0.771343
43948	0.072878	-10.036533	1.328922	0.221806	-0.263188	0.529285	-0.775495
43949	0.528548	-10.129854	1.440433	0.204894	-0.253721	0.535209	-0.779227
43950	0.860417	-10.257118	1.583965	0.187139	-0.243088	0.541019	-0.783062
43951	0.638613	-9.582046	2.002262	0.169077	-0.231643	0.546779	-0.786630
43952	0.158379	-9.496174	1.590953	0.150157	-0.219458	0.554661	-0.788443
43953	-0.377199	-9.668647	1.574005	0.131442	-0.206527	0.561518	-0.790422
43954	-0.035575	-9.829501	2.263821	0.113814	-0.194165	0.565315	-0.793577
43955	0.680831	-9.127600	3.094835	0.096586	-0.182492	0.566884	-0.797503
43956	1.554199	-9.437093	3.161352	0.078630	-0.170450	0.569716	-0.800117
43957	2.462604	-10.034440	2.768170	0.060391	-0.157832	0.572949	-0.801980
43958	2.304237	-9.697553	1.993101	0.041894	-0.144384	0.576106	-0.803430
43959	1.984775	-9.222685	1.452272	0.023629	-0.130722	0.579000	-0.804433
43960	2.233392	-9.546217	1.052697	0.005914	-0.117428	0.582155	-0.804532
43961	2.420899	-9.936318	0.618274	-0.011792	-0.103244	0.584259	-0.804887
43962	2.185274	-9.456092	1.078242	-0.030126	-0.088048	0.585120	-0.805590
43963	2.110835	-9.656196	1.547057	-0.049007	-0.072461	0.586106	-0.805498
43964	2.127838	-9.912700	1.805083	-0.067837	-0.057245	0.586202	-0.805287
43965	2.363567	-10.197721	2.063714	-0.086332	-0.042963	0.585698	-0.804773
43966	2.617384	-10.453131	2.122692	-0.104681	-0.029075	0.585272	-0.803526
43967	2.632431	-9.959065	1.987008	-0.122857	-0.015828	0.584085	-0.802185
43968	2.546289	-9.258474	1.784962	-0.141038	-0.002756	0.583273	-0.799934
43969	2.181348	-8.593925	1.494964	-0.159346	0.010668	0.582246	-0.797173
43970	2.101671	-8.257524	1.692397	-0.177313	0.023572	0.580707	-0.794219
43971	2.425913	-9.014806	1.869444	-0.195659	0.037065	0.578754	-0.790815
43972	2.323110	-9.225497	2.281437	-0.214442	0.050609	0.575549	-0.787525
43973	2.297225	-9.113103	2.597714	-0.233026	0.063920	0.572773	-0.783291
43974	2.170940	-9.109209	2.529283	-0.251395	0.077992	0.570927	-0.777663
43975	2.053866	-9.447516	2.323253	-0.269660	0.093264	0.569482	-0.770893
43976	1.717863	-9.773518	2.518856	-0.287734	0.109017	0.565798	-0.764981
43977	1.035861	-9.203282	2.533926	-0.304705	0.124049	0.562226	-0.758728
43978	1.514697	-9.385778	2.409949	-0.320618	0.137366	0.558491	-0.752610
43979	1.734406	-9.925819	1.900807	-0.336662	0.151843	0.554977	-0.745388
43980	1.246779	-9.642091	1.684444	-0.352745	0.165872	0.549724	-0.738824
43981	1.358296	-9.291496	2.247297	-0.368407	0.178581	0.543076	-0.733112
43982	1.193134	-9.136730	1.880415	-0.383148	0.191450	0.537624	-0.726296
43983	1.354983	-9.431269	1.942983	-0.397965	0.203885	0.532352	-0.718788
43984	1.349416	-10.318930	2.055654	-0.413034	0.218240	0.527640	-0.709485
43985	0.583514	-10.941080	2.027030	-0.428538	0.233194	0.521772	-0.699807
43986	-0.521142	-9.688757	2.614041	-0.444923	0.246076	0.512659	-0.691860
43987	-1.561443	-7.395894	3.520602	-0.461221	0.255618	0.501149	-0.686137
43988	-1.845044	-5.312231	3.541541	-0.475212	0.263164	0.492311	-0.680109
43989	-0.398163	-7.121856	4.677695	-0.486576	0.273271	0.487988	-0.671144
43990	-0.042553	-10.935676	3.969611	-0.495882	0.288945	0.486798	-0.658513
43991	-1.571594	-12.625776	2.854573	-0.505647	0.302687	0.482458	-0.648024
43992	-2.400102	-11.221885	3.004366	-0.516670	0.310507	0.474013	-0.641833
43993	-1.522460	-9.074782	4.272170	-0.527812	0.315124	0.464947	-0.637131
43994	-0.967949	-9.368368	4.600655	-0.537860	0.323082	0.458063	-0.629685
43995	-1.670000	-9.197809	4.008063	-0.547894	0.329523	0.450984	-0.622768
43996	-1.528672	-8.211328	4.562782	-0.557855	0.334025	0.444190	-0.616377
43997	-0.761619	-8.494988	4.232646	-0.566254	0.340655	0.440760	-0.607487
43998	-0.498457	-8.731738	3.831154	-0.575484	0.346557	0.435880	-0.598936
43999	-0.963324	-7.379303	3.944375	-0.584638	0.351554	0.430419	-0.591057
44000	-1.369103	-7.369309	3.947806	-0.592092	0.357780	0.426610	-0.582601
44001	-1.253744	-8.544041	3.410138	-0.597588	0.365553	0.425169	-0.573141
44002	-0.684536	-9.147381	3.438236	-0.602917	0.372381	0.423892	-0.564038
44003	-0.433600	-9.877656	3.398465	-0.608097	0.379346	0.422579	-0.554744
44004	-0.836018	-9.936451	3.122751	-0.613673	0.384814	0.420142	-0.546629
44005	-0.715049	-9.259076	3.250258	-0.619117	0.389306	0.417450	-0.539324
44006	-0.634531	-8.945786	3.310198	-0.624126	0.394288	0.414984	-0.531782
44007	-0.940728	-8.933618	3.125537	-0.628493	0.399579	0.413228	-0.523999
44008	-0.737397	-9.450426	2.884478	-0.632355	0.404448	0.411909	-0.516604
44009	-0.569633	-9.243624	3.081979	-0.636141	0.408087	0.410281	-0.510352
44010	-0.274521	-9.169660	3.177417	-0.639188	0.411807	0.409009	-0.504544
44011	0.075711	-9.674365	2.766672	-0.641859	0.415781	0.407831	-0.498816
44012	-0.042167	-9.627967	2.814468	-0.645117	0.419487	0.405541	-0.493347
44013	-0.396202	-9.301508	3.237197	-0.648100	0.422897	0.403319	-0.488322
44014	-0.138010	-9.040943	3.295672	-0.650339	0.425762	0.401853	-0.484045
44015	0.240022	-8.779259	3.321108	-0.652342	0.428045	0.400406	-0.480522
44016	0.806606	-8.925973	3.457963	-0.654018	0.430519	0.398785	-0.477373
44017	0.910406	-8.767236	3.215102	-0.656026	0.432570	0.396028	-0.475052
44018	0.814171	-8.941246	3.056625	-0.656917	0.435228	0.394393	-0.472748
44019	1.388765	-10.116039	2.767964	-0.657845	0.437406	0.392695	-0.470858
44020	1.494786	-10.094038	3.389021	-0.659804	0.438235	0.389433	-0.470053
44021	1.518863	-9.950603	3.747563	-0.661938	0.438542	0.385728	-0.469823
44022	1.582126	-9.342598	3.677676	-0.664139	0.437767	0.382270	-0.470265
44023	1.555439	-8.296629	3.376754	-0.665869	0.436559	0.379741	-0.470991
44024	1.887083	-8.133370	3.044832	-0.666324	0.436492	0.378868	-0.471111
44025	2.104938	-8.811687	2.742056	-0.666321	0.437603	0.378264	-0.470570
44026	1.822302	-9.416240	2.759070	-0.666705	0.438707	0.377008	-0.470005
44027	1.992639	-9.909286	2.827519	-0.667073	0.439709	0.375989	-0.469364
44028	1.843500	-10.295766	2.676986	-0.668059	0.440330	0.374494	-0.468574
44029	1.695272	-10.277834	3.114123	-0.669779	0.439749	0.372577	-0.468191
44030	1.773884	-9.894001	3.662461	-0.671959	0.438294	0.370397	-0.468163
44031	1.810062	-9.496501	3.960135	-0.674573	0.436180	0.367705	-0.468498
44032	1.724201	-8.665652	4.433116	-0.677434	0.433911	0.364830	-0.468725
44033	1.438177	-8.094514	4.442150	-0.679359	0.432414	0.363296	-0.468515
44034	1.290275	-7.803142	3.919492	-0.679892	0.431993	0.363376	-0.468067
44035	1.388140	-8.233166	3.570146	-0.679539	0.433920	0.364247	-0.466116
44036	1.092650	-8.925389	3.422996	-0.679152	0.435660	0.365595	-0.463998
44037	1.508929	-9.221039	3.149101	-0.678867	0.436484	0.367303	-0.462287
44038	1.698460	-9.142343	3.197890	-0.679080	0.435885	0.368464	-0.461615
44039	1.318259	-8.374694	3.057534	-0.678805	0.434391	0.369702	-0.462438
44040	0.387522	-8.224527	2.954343	-0.676734	0.434112	0.372578	-0.463425
44041	0.461499	-8.605825	2.906138	-0.673578	0.432366	0.377311	-0.465821
44042	1.202430	-7.866615	3.679186	-0.670644	0.427949	0.381974	-0.470311
44043	1.453163	-7.734187	4.497866	-0.666689	0.424825	0.386579	-0.474981
44044	1.385692	-8.283965	4.662414	-0.661901	0.422198	0.391162	-0.480237
44045	1.474755	-9.050862	4.362770	-0.656576	0.419067	0.395979	-0.486304
44046	0.860338	-8.303392	4.159122	-0.652725	0.413220	0.398486	-0.494376
44047	-0.549258	-7.526969	5.421619	-0.648545	0.407165	0.400487	-0.503206
44048	0.035828	-8.285271	6.197635	-0.640265	0.401945	0.408034	-0.511868
44049	4.530581	-9.391945	5.428722	-0.630820	0.397605	0.416211	-0.520331
44050	6.226546	-8.693358	1.411156	-0.624922	0.396731	0.418149	-0.526525
44051	2.693825	-8.890024	0.411184	-0.624978	0.402035	0.410865	-0.528167
44052	-0.911512	-9.094467	3.891225	-0.627413	0.407397	0.401015	-0.528742
44053	0.409008	-9.634981	5.765210	-0.626525	0.413250	0.396522	-0.528640
44054	2.494736	-10.438558	2.901473	-0.624927	0.420731	0.393846	-0.526628
44055	1.738314	-10.517268	0.914685	-0.629193	0.428632	0.382912	-0.523230
44056	-0.788040	-9.686886	2.995603	-0.637780	0.435605	0.366358	-0.518909
44057	-1.781445	-9.670446	4.393325	-0.645259	0.443880	0.352455	-0.512237
44058	-0.933606	-11.666634	2.648665	-0.649546	0.450136	0.346594	-0.505312
44059	-0.283526	-11.809905	1.214772	-0.656650	0.447735	0.339384	-0.503152
44060	-0.859853	-9.225707	1.649339	-0.664606	0.441371	0.332408	-0.502986
44061	-0.941433	-8.338710	2.832092	-0.670229	0.437455	0.328459	-0.501538
44062	-0.947492	-8.264935	4.064985	-0.674099	0.432281	0.327475	-0.501481
44063	0.019188	-8.199038	3.280319	-0.675434	0.427792	0.330132	-0.501793
44064	0.667496	-9.325525	1.876805	-0.676520	0.426075	0.332034	-0.500533
44065	0.055999	-9.054618	2.698286	-0.678185	0.423630	0.332645	-0.499949
44066	0.010902	-9.172382	2.656818	-0.678097	0.422621	0.335046	-0.499319
44067	0.218599	-9.313172	3.342524	-0.678178	0.421033	0.336426	-0.499623
44068	0.736681	-9.173929	3.331272	-0.677328	0.420828	0.338123	-0.499803
44069	0.452320	-9.086542	3.272170	-0.676930	0.421381	0.338352	-0.499722
44070	0.268090	-8.454409	4.178764	-0.676956	0.420248	0.338223	-0.500727
44071	0.381669	-8.357406	4.363368	-0.676298	0.420260	0.338895	-0.501151
44072	0.229976	-8.780726	4.087683	-0.675441	0.421029	0.339628	-0.501165
44073	0.283759	-8.670774	4.246424	-0.675041	0.420668	0.339781	-0.501904
44074	0.491074	-8.651980	4.362859	-0.674452	0.420373	0.340110	-0.502719
44075	0.456870	-9.091948	4.043140	-0.673949	0.421076	0.340061	-0.502838
44076	0.225155	-9.108931	4.121197	-0.673934	0.421107	0.339501	-0.503211
44077	0.288644	-9.076450	4.179557	-0.673583	0.421397	0.339479	-0.503452
44078	0.299242	-9.083780	4.044473	-0.673471	0.421497	0.339441	-0.503544
44079	0.399481	-9.103860	3.807023	-0.673550	0.421551	0.339395	-0.503425
44080	0.324366	-8.965181	3.701231	-0.673814	0.421192	0.339342	-0.503407
44081	0.427995	-8.968997	3.998171	-0.673972	0.420932	0.339353	-0.503406
44082	0.442281	-9.157318	4.079055	-0.674080	0.420726	0.339243	-0.503508
44083	0.465054	-9.302079	3.748321	-0.674374	0.420342	0.338725	-0.503783
44084	0.463585	-8.944195	3.758892	-0.674968	0.419366	0.337909	-0.504349
44085	0.501334	-8.840741	3.610558	-0.675237	0.418991	0.337597	-0.504510
44086	0.448483	-9.118230	3.663903	-0.675343	0.418943	0.337629	-0.504386
44087	0.314599	-9.205460	3.699983	-0.675417	0.418848	0.337834	-0.504229
44088	0.427300	-9.256246	4.169852	-0.675790	0.418119	0.337691	-0.504430
44089	0.845749	-9.333672	3.885566	-0.676091	0.417227	0.337595	-0.504828
44090	0.770708	-9.112388	3.521483	-0.676898	0.416438	0.336579	-0.505077
44091	0.593846	-8.885767	3.864445	-0.677531	0.415572	0.335844	-0.505430
44092	0.520055	-8.858730	3.856654	-0.677758	0.415478	0.335564	-0.505389
44093	0.379512	-8.818527	3.980281	-0.677621	0.415933	0.335723	-0.505092
44094	0.554509	-8.761397	4.153133	-0.677241	0.416204	0.336402	-0.504928
44095	0.691239	-8.874286	3.907275	-0.676454	0.417432	0.337663	-0.504128
44096	0.543006	-8.932829	3.783094	-0.675809	0.418811	0.338740	-0.503124
44097	0.527769	-8.909702	4.053454	-0.675353	0.419522	0.339893	-0.502367
44098	0.544532	-8.655958	4.173166	-0.674447	0.420274	0.341877	-0.501608
44099	0.654652	-8.573776	4.138199	-0.672888	0.421622	0.344819	-0.500557
44100	0.920520	-8.531925	4.063666	-0.671411	0.422101	0.347857	-0.500033
44101	1.290784	-8.137960	3.672511	-0.669611	0.422596	0.351337	-0.499596
44102	1.365702	-7.862819	3.498597	-0.667806	0.424198	0.354523	-0.498402
44103	1.264456	-7.638139	3.458756	-0.666040	0.426528	0.357562	-0.496603
44104	1.317079	-7.558469	3.381123	-0.663781	0.429674	0.361077	-0.494366
44105	1.626509	-7.725850	3.162023	-0.661174	0.433136	0.364407	-0.492391
44106	1.992875	-8.521073	3.722569	-0.661647	0.433592	0.362587	-0.492699
44107	1.985364	-7.727998	3.948126	-0.664897	0.430681	0.355989	-0.495679
44108	1.714910	-7.790270	3.753598	-0.667362	0.430233	0.349232	-0.497558
44109	0.988024	-7.915980	3.697242	-0.669458	0.429163	0.342577	-0.500286
44110	0.514329	-7.616611	3.384531	-0.669061	0.429485	0.338960	-0.502997
44111	0.140471	-8.301362	3.662388	-0.665866	0.431317	0.339416	-0.505356
44112	0.482541	-9.273373	3.974477	-0.661672	0.434304	0.340893	-0.507308
44113	1.334237	-10.939915	5.547364	-0.658724	0.438766	0.339824	-0.508022
44114	1.091474	-10.334494	6.729449	-0.657079	0.443542	0.336218	-0.508405
44115	1.229488	-10.375812	4.047706	-0.654646	0.451126	0.333968	-0.506349
44116	1.201789	-11.304986	2.974223	-0.655200	0.456274	0.329467	-0.503963
44117	0.596397	-10.875766	2.800779	-0.657707	0.459748	0.324028	-0.501058
44118	1.503873	-10.660325	1.885700	-0.661028	0.462452	0.318766	-0.497562
44119	2.430932	-10.098521	1.342051	-0.665728	0.465762	0.312357	-0.492245
44120	2.549744	-10.814447	0.572604	-0.671542	0.470440	0.304823	-0.484563
44121	1.412854	-12.077884	0.289008	-0.679411	0.475394	0.294866	-0.474821
44122	-1.572509	-12.623588	1.098842	-0.689100	0.478845	0.283623	-0.464119
44123	-3.849664	-11.435409	2.517865	-0.698479	0.479998	0.274599	-0.454229
44124	-4.063996	-9.853172	4.265885	-0.706856	0.478403	0.267316	-0.447244
44125	-3.828254	-7.117893	5.485419	-0.713825	0.474461	0.260983	-0.444103
44126	-3.095398	-6.140649	5.721346	-0.717531	0.470890	0.257952	-0.443704
44127	-2.088628	-6.288356	5.435869	-0.718877	0.468871	0.257748	-0.443781
44128	-0.571060	-7.794179	5.068922	-0.719106	0.468515	0.259140	-0.442975
44129	0.704848	-9.022592	4.448522	-0.720107	0.468360	0.259556	-0.441265
44130	1.222466	-8.979463	3.897692	-0.722744	0.467665	0.257824	-0.438700
44131	1.242956	-8.658368	3.499949	-0.726374	0.467187	0.254743	-0.434998
44132	0.746424	-8.573027	3.404361	-0.730885	0.466638	0.250173	-0.430661
44133	0.084444	-8.186499	3.575206	-0.735895	0.466011	0.244544	-0.426017
44134	-0.388472	-7.826440	3.710526	-0.740793	0.465940	0.238717	-0.420880
44135	-0.913407	-8.000831	4.302117	-0.744823	0.467360	0.233532	-0.415061
44136	-1.351800	-8.355355	4.791668	-0.748686	0.468945	0.228592	-0.409030
44137	-1.649023	-8.632061	4.824435	-0.752397	0.471025	0.223872	-0.402387
44138	-1.934527	-8.504393	4.934309	-0.755996	0.473365	0.219373	-0.395313
44139	-2.168482	-8.726456	4.772493	-0.759155	0.476053	0.215435	-0.388129
44140	-2.486462	-8.542081	4.546823	-0.762422	0.478309	0.211747	-0.380916
44141	-2.500508	-8.437432	4.288209	-0.765409	0.480700	0.208549	-0.373610
44142	-2.486657	-8.376951	4.199541	-0.768076	0.483318	0.205686	-0.366273
44143	-2.373533	-8.887909	3.958297	-0.770168	0.486378	0.203323	-0.359080
44144	-2.117123	-9.057917	3.770893	-0.772019	0.489385	0.201119	-0.352193
44145	-2.003878	-9.079268	3.743220	-0.773789	0.492335	0.198848	-0.345423
44146	-1.905722	-9.201552	3.669443	-0.775396	0.495237	0.196613	-0.338887
44147	-1.745129	-9.209571	3.604143	-0.777196	0.497590	0.194099	-0.332709
44148	-1.686306	-8.839156	3.586294	-0.779177	0.499419	0.191351	-0.326878
44149	-1.601956	-8.450319	3.730809	-0.780975	0.501304	0.188531	-0.321291
44150	-1.528969	-8.358291	3.860906	-0.782516	0.503260	0.185748	-0.316063
44151	-1.326581	-8.730760	4.145207	-0.783701	0.505208	0.183237	-0.311451
44152	-1.200362	-9.140538	3.931477	-0.785005	0.506337	0.180682	-0.307807
44153	-1.154671	-9.018986	4.171150	-0.786511	0.506882	0.178121	-0.304539
44154	-0.685124	-8.848090	4.245285	-0.787699	0.507618	0.176172	-0.301359
44155	-0.244791	-9.037450	4.158900	-0.788693	0.508548	0.174506	-0.298146
44156	0.086599	-9.052799	4.192976	-0.789532	0.509676	0.173127	-0.294783
44157	0.452263	-9.096331	3.902880	-0.790240	0.511218	0.171759	-0.290991
44158	0.545060	-8.968621	3.716863	-0.791241	0.512811	0.169894	-0.286531
44159	0.484275	-8.682473	3.736298	-0.792549	0.514507	0.167311	-0.281347
44160	0.344065	-8.581308	3.618386	-0.793837	0.516583	0.164222	-0.275675
44161	0.073150	-8.761967	3.460312	-0.794670	0.519344	0.161148	-0.269837
44162	0.019403	-9.056565	3.619538	-0.795470	0.521978	0.157925	-0.264246
44163	0.006426	-9.076716	3.619256	-0.796347	0.524355	0.154338	-0.258965
44164	-0.047758	-9.199727	3.672697	-0.797393	0.526395	0.150432	-0.253855
44165	-0.061944	-9.028041	3.778047	-0.798601	0.528158	0.146273	-0.248776
44166	-0.046911	-9.007857	3.792591	-0.799884	0.529719	0.142114	-0.243696
44167	-0.032535	-9.032414	3.623048	-0.801165	0.531239	0.137944	-0.238520
44168	-0.129044	-8.860949	3.755588	-0.802490	0.532665	0.133477	-0.233371
44169	-0.085306	-8.812283	3.818878	-0.803800	0.534065	0.128824	-0.228220
44170	-0.043104	-8.720796	3.781546	-0.805050	0.535517	0.124114	-0.222962
44171	-0.134426	-8.701631	3.790288	-0.806302	0.536944	0.119274	-0.217581
44172	-0.350422	-8.729435	3.854879	-0.807495	0.538399	0.114484	-0.212067
44173	-0.478296	-8.644434	3.990017	-0.808664	0.539797	0.109644	-0.206543
44174	-0.609983	-8.617497	4.098233	-0.809808	0.541146	0.104762	-0.200992
44175	-0.575693	-8.608258	4.038611	-0.810917	0.542409	0.100026	-0.195451
44176	-0.615160	-8.556654	4.225329	-0.812029	0.543551	0.095412	-0.189891
44177	-0.696026	-8.604198	4.289877	-0.812935	0.544814	0.091056	-0.184452
44178	-0.828221	-8.585185	4.312751	-0.813637	0.546162	0.087016	-0.179247
44179	-0.969666	-8.647104	4.196916	-0.814280	0.547392	0.083334	-0.174260
44180	-0.995181	-8.599247	4.235032	-0.814782	0.548633	0.079967	-0.169518
44181	-0.979633	-8.638294	4.237146	-0.815032	0.550068	0.076841	-0.165055
44182	-1.051759	-8.897902	4.222511	-0.814896	0.551856	0.074054	-0.160982
44183	-1.038390	-9.175349	4.098828	-0.814734	0.553469	0.071607	-0.157331
44184	-1.003381	-9.205777	4.072499	-0.814638	0.554794	0.069426	-0.154105
44185	-0.979881	-9.209338	4.016835	-0.814557	0.555967	0.067412	-0.151175
44186	-1.081793	-9.136916	4.048254	-0.814490	0.556975	0.065617	-0.148591
44187	-1.130166	-8.932563	3.970541	-0.814314	0.557996	0.064146	-0.146353
44188	-1.134743	-8.932045	3.876385	-0.813997	0.559073	0.063086	-0.144453
44189	-1.146666	-8.913843	3.841523	-0.813589	0.560144	0.062506	-0.142842
44190	-1.094406	-8.991263	3.860319	-0.813094	0.561179	0.062224	-0.141718
44191	-1.018630	-9.039139	3.794366	-0.812588	0.562066	0.062251	-0.141094
44192	-0.937807	-9.120949	3.735349	-0.812073	0.562805	0.062541	-0.140988
44193	-0.847483	-9.209649	3.701393	-0.811615	0.563334	0.063059	-0.141276
44194	-0.827313	-9.214920	3.721766	-0.811115	0.563833	0.063833	-0.141812
44195	-0.807725	-9.274622	3.634371	-0.810613	0.564252	0.064795	-0.142573
44196	-0.747380	-9.314350	3.568102	-0.810149	0.564535	0.065898	-0.143581
44197	-0.644091	-9.346301	3.576638	-0.809762	0.564660	0.067234	-0.144647
44198	-0.535103	-9.347323	3.468944	-0.809436	0.564673	0.068556	-0.145800
44199	-0.456193	-9.311265	3.398925	-0.809043	0.564783	0.069900	-0.146910
44200	-0.358038	-9.290702	3.391536	-0.808631	0.564937	0.071169	-0.147973
44201	-0.355406	-9.265691	3.301175	-0.808386	0.564897	0.072325	-0.148905
44202	-0.365598	-9.205263	3.263405	-0.808250	0.564695	0.073418	-0.149870
44203	-0.414091	-9.114654	3.257900	-0.808220	0.564336	0.074377	-0.150909
44204	-0.492423	-9.058112	3.353983	-0.808268	0.563828	0.075298	-0.152087
44205	-0.488640	-8.985387	3.440755	-0.808402	0.563166	0.076163	-0.153394
44206	-0.495922	-9.069352	3.422111	-0.808581	0.562412	0.077006	-0.154786
44207	-0.642734	-8.974538	3.462937	-0.808866	0.561481	0.077781	-0.156286
44208	-0.611608	-9.008069	3.576899	-0.808958	0.560745	0.078625	-0.158018
44209	-0.535478	-9.109772	3.571727	-0.809147	0.559844	0.079447	-0.159826
44210	-0.494169	-9.043299	3.590474	-0.809251	0.559025	0.080370	-0.161695
44211	-0.500805	-9.129919	3.481797	-0.809430	0.558093	0.081350	-0.163519
44212	-0.563187	-9.014536	3.552186	-0.809630	0.557106	0.082274	-0.165416
44213	-0.584600	-8.927867	3.540553	-0.809752	0.556223	0.083190	-0.167323
44214	-0.558646	-8.896982	3.530596	-0.809799	0.555454	0.084068	-0.169202
44215	-0.570771	-8.951964	3.603406	-0.809752	0.554807	0.084945	-0.171101
44216	-0.587668	-9.041238	3.544105	-0.809725	0.554112	0.085869	-0.173007
44217	-0.590549	-8.990081	3.635472	-0.809746	0.553311	0.086806	-0.174993
44218	-0.562857	-9.000814	3.586296	-0.809678	0.552600	0.087839	-0.177029
44219	-0.580944	-8.965965	3.658313	-0.809582	0.551918	0.088879	-0.179063
44220	-0.608004	-8.982417	3.663557	-0.809484	0.551234	0.089953	-0.181064
44221	-0.613207	-8.962015	3.660466	-0.809236	0.550738	0.091189	-0.183056
44222	-0.596957	-9.003052	3.639831	-0.808929	0.550302	0.092440	-0.185085
44223	-0.582667	-9.047121	3.597835	-0.808642	0.549856	0.093599	-0.187072
44224	-0.611378	-8.967561	3.659706	-0.808392	0.549355	0.094717	-0.189049
44225	-0.608856	-9.002800	3.597561	-0.808092	0.548914	0.095906	-0.191004
44226	-0.640085	-9.004833	3.638588	-0.807780	0.548463	0.097145	-0.192982
44227	-0.572870	-9.062290	3.601964	-0.807419	0.548096	0.098446	-0.194871
44228	-0.529964	-9.061957	3.612600	-0.807106	0.547655	0.099684	-0.196765
44229	-0.546482	-9.034839	3.637231	-0.806833	0.547211	0.100890	-0.198501
44230	-0.524404	-9.034318	3.669886	-0.806479	0.546899	0.102112	-0.200167
44231	-0.540732	-9.052383	3.580966	-0.806087	0.546687	0.103379	-0.201668
44232	-0.510446	-9.105075	3.627333	-0.805776	0.546377	0.104647	-0.203091
44233	-0.476704	-9.100489	3.593108	-0.805491	0.546055	0.105960	-0.204403
44234	-0.445792	-9.136558	3.575219	-0.805263	0.545703	0.107189	-0.205597
44235	-0.427168	-9.087502	3.622177	-0.805055	0.545369	0.108368	-0.206677
44236	-0.412974	-9.081537	3.613032	-0.804908	0.544985	0.109498	-0.207665
44237	-0.435584	-9.010983	3.664791	-0.804792	0.544611	0.110622	-0.208500
44238	-0.443632	-9.007120	3.606015	-0.804649	0.544301	0.111819	-0.209221
44239	-0.435831	-8.991454	3.645697	-0.804385	0.544179	0.113105	-0.209860
44240	-0.398832	-9.029922	3.569539	-0.804100	0.544079	0.114362	-0.210528
44241	-0.382871	-9.009799	3.595412	-0.803922	0.543893	0.115549	-0.211042
44242	-0.307256	-8.978522	3.568731	-0.803756	0.543744	0.116711	-0.211418
44243	-0.309903	-8.973660	3.578912	-0.803641	0.543579	0.117742	-0.211709
44244	-0.334835	-8.967758	3.613923	-0.803516	0.543480	0.118667	-0.211920
44245	-0.269850	-9.058140	3.636279	-0.803483	0.543320	0.119517	-0.211976
44246	-0.370937	-9.018577	3.543878	-0.803517	0.543105	0.120291	-0.211961
44247	-0.323469	-9.048388	3.582316	-0.803328	0.543162	0.121226	-0.211999
44248	-0.195715	-9.164261	3.551188	-0.803138	0.543243	0.122061	-0.212034
44249	-0.181329	-9.125703	3.476995	-0.803033	0.543285	0.122798	-0.211898
44250	-0.162077	-9.084264	3.529776	-0.802977	0.543331	0.123447	-0.211616
44251	-0.279341	-9.020609	3.509769	-0.803058	0.543254	0.123852	-0.211265
44252	-0.365194	-8.892732	3.604344	-0.803111	0.543247	0.124202	-0.210878
44253	-0.384706	-8.917424	3.578273	-0.803075	0.543335	0.124615	-0.210547
44254	-0.369835	-8.971100	3.590889	-0.802992	0.543457	0.124967	-0.210335
44255	-0.296442	-9.013323	3.601869	-0.802918	0.543594	0.125316	-0.210057
44256	-0.308293	-9.030989	3.581467	-0.802868	0.543727	0.125629	-0.209718
44257	-0.315589	-9.065476	3.625629	-0.802806	0.543872	0.125975	-0.209370
44258	-0.292645	-9.073171	3.609214	-0.802764	0.543964	0.126294	-0.209099
44259	-0.304311	-9.052178	3.606861	-0.802721	0.544062	0.126613	-0.208816
44260	-0.323381	-8.997950	3.581124	-0.802707	0.544098	0.126878	-0.208617
44261	-0.294044	-8.981463	3.613627	-0.802564	0.544340	0.127287	-0.208287
44262	-0.216771	-9.097851	3.609189	-0.802397	0.544592	0.127647	-0.208050
44263	-0.234476	-9.084189	3.614163	-0.802196	0.544903	0.128042	-0.207769
